TrialType,Path,Correct,ms,s,ks,trials_4.thisRepN,trials_4.thisTrialN,trials_4.thisN,trials_4.thisIndex,welcome.started,welcome.stopped,space.started,space.stopped,key_resp.keys,key_resp.rt,key_resp.started,key_resp.stopped,Fixwarn.started,Fixwarn.stopped,table.started,table.stopped,key_resp__0.keys,key_resp__0.rt,key_resp__0.started,key_resp__0.stopped,type.started,type.stopped,space_3.started,space_3.stopped,key_resp_6.keys,key_resp_6.rt,key_resp_6.started,key_resp_6.stopped,stim_2.started,stim_2.stopped,text_2.started,text_2.stopped,key_resp_9.keys,key_resp_9.corr,key_resp_9.rt,key_resp_9.started,key_resp_9.stopped,END.started,END.stopped,key_resp_2.keys,key_resp_2.rt,key_resp_2.started,key_resp_2.stopped,participant,session,date,expName,psychopyVersion,frameRate,
,,,,,,,,,,10.848803000000771,None,10.848803000000771,None,space,1.7667134000221267,10.848803000000771,None,,,,,,,,,,,,,,,,,,,,,,,,,,,,,,,,11008,001,2024_Jan_01_1541,gonogo_T,2021.2.3,60.116782855808154,
,,,,,,,,,,,,,,,,,,12.634908900014125,None,12.634908900014125,None,space,16.46042870002566,12.634908900014125,None,,,,,,,,,,,,,,,,,,,,,,,,11008,001,2024_Jan_01_1541,gonogo_T,2021.2.3,60.116782855808154,
,,,,,,,,,,,,,,,,,,,,,,,,,,29.125192800012883,None,29.125192800012883,None,space,20.634481100016274,29.125192800012883,None,,,,,,,,,,,,,,,,11008,001,2024_Jan_01_1541,gonogo_T,2021.2.3,60.116782855808154,
go,triangle.png,space,1154,1.154,1.654,0,0,0,71,,,,,,,,,,,,,,,,,,,,,,,,,49.85605410003336,50.35724740003934,50.35724740003934,None,space,1,0.6953020999790169,49.85605410003336,51.51017940003658,,,,,,,11008,001,2024_Jan_01_1541,gonogo_T,2021.2.3,60.116782855808154,
nogo,square.png,None,1414,1.414,1.914,0,1,1,68,,,,,,,,,,,,,,,,,,,,,,,,,51.52587740001036,52.02659580000909,52.01030170003651,53.42897649999941,None,1,,51.52587740001036,None,,,,,,,11008,001,2024_Jan_01_1541,gonogo_T,2021.2.3,60.116782855808154,
go,triangle.png,space,1582,1.582,2.082,0,2,2,67,,,,,,,,,,,,,,,,,,,,,,,,,53.445525699993595,53.94684150000103,53.929652000020724,55.51507449999917,space,1,0.3302389999735169,53.445525699993595,53.445525699993595,,,,,,,11008,001,2024_Jan_01_1541,gonogo_T,2021.2.3,60.116782855808154,
go,triangle.png,space,1478,1.478,1.978,0,3,3,75,,,,,,,,,,,,,,,,,,,,,,,,,55.531688200018834,56.03256479999982,56.01608880003914,57.501212600036524,space,1,0.371976500027813,55.531688200018834,55.531688200018834,,,,,,,11008,001,2024_Jan_01_1541,gonogo_T,2021.2.3,60.116782855808154,
go,triangle.png,space,1879,1.879,2.379,0,4,4,11,,,,,,,,,,,,,,,,,,,,,,,,,57.517934200004674,58.01858540001558,58.001871299988125,59.88807640003506,space,1,0.4015743999625556,57.517934200004674,57.517934200004674,,,,,,,11008,001,2024_Jan_01_1541,gonogo_T,2021.2.3,60.116782855808154,
go,triangle.png,space,1529,1.529,2.029,0,5,5,51,,,,,,,,,,,,,,,,,,,,,,,,,59.90513369999826,60.405819400039036,60.389848400023766,61.92532839998603,space,1,0.40657979995012283,59.90513369999826,59.90513369999826,,,,,,,11008,001,2024_Jan_01_1541,gonogo_T,2021.2.3,60.116782855808154,
go,triangle.png,space,1036,1.036,1.536,0,6,6,70,,,,,,,,,,,,,,,,,,,,,,,,,61.9412192000309,62.44240549998358,62.425135000026785,63.460344700026326,space,1,0.36218120000557974,61.9412192000309,61.9412192000309,,,,,,,11008,001,2024_Jan_01_1541,gonogo_T,2021.2.3,60.116782855808154,
nogo,square.png,None,1844,1.844,2.344,0,7,7,88,,,,,,,,,,,,,,,,,,,,,,,,,63.47689440002432,63.97825129999546,63.961490000016056,65.81548679998377,None,1,,63.47689440002432,63.47689440002432,,,,,,,11008,001,2024_Jan_01_1541,gonogo_T,2021.2.3,60.116782855808154,
nogo,square.png,None,1379,1.379,1.879,0,8,8,84,,,,,,,,,,,,,,,,,,,,,,,,,65.83079400000861,66.33114989998285,66.3142186999903,67.70049650000874,None,1,,65.83079400000861,65.83079400000861,,,,,,,11008,001,2024_Jan_01_1541,gonogo_T,2021.2.3,60.116782855808154,
go,triangle.png,space,1386,1.386,1.886,0,9,9,83,,,,,,,,,,,,,,,,,,,,,,,,,67.71715490001952,68.2172613000148,68.20051970001077,69.58691130002262,space,1,0.3867168999859132,67.71715490001952,67.71715490001952,,,,,,,11008,001,2024_Jan_01_1541,gonogo_T,2021.2.3,60.116782855808154,
nogo,square.png,None,1518,1.518,2.018,0,10,10,56,,,,,,,,,,,,,,,,,,,,,,,,,69.6025260000024,70.1034198999987,70.08743850002065,71.60651630000211,None,1,,69.6025260000024,69.6025260000024,,,,,,,11008,001,2024_Jan_01_1541,gonogo_T,2021.2.3,60.116782855808154,
go,triangle.png,space,1161,1.161,1.661,0,11,11,62,,,,,,,,,,,,,,,,,,,,,,,,,71.62220169999637,72.123591999989,72.10601990000578,73.27477220003493,space,1,0.3700302999932319,71.62220169999637,71.62220169999637,,,,,,,11008,001,2024_Jan_01_1541,gonogo_T,2021.2.3,60.116782855808154,
go,triangle.png,space,1960,1.96,2.46,0,12,12,31,,,,,,,,,,,,,,,,,,,,,,,,,73.291276700038,73.79322809999576,73.77593790000537,75.74535199999809,space,1,0.3484934000298381,73.291276700038,73.291276700038,,,,,,,11008,001,2024_Jan_01_1541,gonogo_T,2021.2.3,60.116782855808154,
go,triangle.png,space,1466,1.466,1.966,0,13,13,94,,,,,,,,,,,,,,,,,,,,,,,,,75.76201170001877,76.26269910001429,76.24635620001936,77.7149250000366,space,1,0.3173909000470303,75.76201170001877,75.76201170001877,,,,,,,11008,001,2024_Jan_01_1541,gonogo_T,2021.2.3,60.116782855808154,
go,triangle.png,space,1714,1.714,2.214,0,14,14,22,,,,,,,,,,,,,,,,,,,,,,,,,77.73160080000525,78.23206579999533,78.21606120001525,79.93450080003822,space,1,0.3560441000154242,77.73160080000525,77.73160080000525,,,,,,,11008,001,2024_Jan_01_1541,gonogo_T,2021.2.3,60.116782855808154,
nogo,square.png,None,1913,1.913,2.413,0,15,15,36,,,,,,,,,,,,,,,,,,,,,,,,,79.95237880002242,80.45201400003862,80.43598980002571,82.35507069999585,None,1,,79.95237880002242,79.95237880002242,,,,,,,11008,001,2024_Jan_01_1541,gonogo_T,2021.2.3,60.116782855808154,
nogo,square.png,None,1636,1.636,2.136,0,16,16,0,,,,,,,,,,,,,,,,,,,,,,,,,82.37185410002712,82.87316369998734,82.85624500003178,84.49166240001796,None,1,,82.37185410002712,82.37185410002712,,,,,,,11008,001,2024_Jan_01_1541,gonogo_T,2021.2.3,60.116782855808154,
nogo,square.png,None,1895,1.895,2.395,0,17,17,4,,,,,,,,,,,,,,,,,,,,,,,,,84.50901360000717,85.0093632999924,84.99269400001504,86.89553420001175,None,1,,84.50901360000717,84.50901360000717,,,,,,,11008,001,2024_Jan_01_1541,gonogo_T,2021.2.3,60.116782855808154,
go,triangle.png,space,1445,1.445,1.945,0,18,18,5,,,,,,,,,,,,,,,,,,,,,,,,,86.91160260001197,87.41252569999779,87.39612380001927,88.8476246999926,space,1,0.304333999985829,86.91160260001197,86.91160260001197,,,,,,,11008,001,2024_Jan_01_1541,gonogo_T,2021.2.3,60.116782855808154,
go,triangle.png,space,1716,1.716,2.216,0,19,19,14,,,,,,,,,,,,,,,,,,,,,,,,,88.8644595000078,89.36567120003747,89.34856300003594,91.06753520003986,space,1,0.31895089999306947,88.8644595000078,88.8644595000078,,,,,,,11008,001,2024_Jan_01_1541,gonogo_T,2021.2.3,60.116782855808154,
nogo,square.png,None,1611,1.611,2.111,0,20,20,28,,,,,,,,,,,,,,,,,,,,,,,,,91.08426590001909,91.58613760001026,91.56948230002308,93.18757830001414,None,1,,91.08426590001909,91.08426590001909,,,,,,,11008,001,2024_Jan_01_1541,gonogo_T,2021.2.3,60.116782855808154,
go,triangle.png,space,1262,1.262,1.762,0,21,21,61,,,,,,,,,,,,,,,,,,,,,,,,,93.20515769999474,93.70569510001224,93.6882881000056,94.9570221999893,space,1,0.48302619997411966,93.20515769999474,93.20515769999474,,,,,,,11008,001,2024_Jan_01_1541,gonogo_T,2021.2.3,60.116782855808154,
go,triangle.png,space,1918,1.918,2.418,0,22,22,3,,,,,,,,,,,,,,,,,,,,,,,,,94.97345749998931,95.47430800000438,95.45779620000394,97.37767200003145,space,1,0.4660176999750547,94.97345749998931,94.97345749998931,,,,,,,11008,001,2024_Jan_01_1541,gonogo_T,2021.2.3,60.116782855808154,
nogo,square.png,None,1337,1.337,1.837,0,23,23,64,,,,,,,,,,,,,,,,,,,,,,,,,97.39459660003195,97.89516810001805,97.8777878000401,None,None,1,,97.39459660003195,97.39459660003195,,,,,,,11008,001,2024_Jan_01_1541,gonogo_T,2021.2.3,60.116782855808154,
go,triangle.png,space,1450,1.45,1.95,0,24,24,78,,,,,,,,,,,,,,,,,,,,,,,,,99.23019370000111,99.73162410000805,99.71381490002386,101.1660684000235,space,1,0.44971149996854365,99.23019370000111,99.23019370000111,,,,,,,11008,001,2024_Jan_01_1541,gonogo_T,2021.2.3,60.116782855808154,
nogo,square.png,None,1165,1.165,1.665,0,25,25,76,,,,,,,,,,,,,,,,,,,,,,,,,101.183161700028,101.68440860003466,101.66757650004001,102.83556929999031,None,1,,101.183161700028,101.183161700028,,,,,,,11008,001,2024_Jan_01_1541,gonogo_T,2021.2.3,60.116782855808154,
go,triangle.png,space,1021,1.021,1.521,0,26,26,91,,,,,,,,,,,,,,,,,,,,,,,,,102.85188309999648,103.35324309999123,103.33670590003021,104.37075090000872,space,1,0.33973269996931776,102.85188309999648,102.85188309999648,,,,,,,11008,001,2024_Jan_01_1541,gonogo_T,2021.2.3,60.116782855808154,
go,triangle.png,space,1962,1.962,2.462,0,27,27,74,,,,,,,,,,,,,,,,,,,,,,,,,104.38811850000639,104.8889764000196,104.87190349999582,106.84126369998557,space,1,0.4677533999783918,104.38811850000639,104.38811850000639,,,,,,,11008,001,2024_Jan_01_1541,gonogo_T,2021.2.3,60.116782855808154,
go,triangle.png,space,1940,1.94,2.44,0,28,28,49,,,,,,,,,,,,,,,,,,,,,,,,,106.85804449999705,107.35985629999777,107.34214040002553,None,space,1,0.46153400000184774,106.85804449999705,106.85804449999705,,,,,,,11008,001,2024_Jan_01_1541,gonogo_T,2021.2.3,60.116782855808154,
nogo,square.png,None,1194,1.194,1.694,0,29,29,24,,,,,,,,,,,,,,,,,,,,,,,,,109.29479760001414,109.7953343000263,109.77910560002783,110.98112280003261,None,1,,109.29479760001414,109.29479760001414,,,,,,,11008,001,2024_Jan_01_1541,gonogo_T,2021.2.3,60.116782855808154,
go,triangle.png,space,1630,1.63,2.13,0,30,30,23,,,,,,,,,,,,,,,,,,,,,,,,,110.99807880003937,111.49809569999343,111.48195390001638,113.11786990001565,space,1,0.3297055999864824,110.99807880003937,110.99807880003937,,,,,,,11008,001,2024_Jan_01_1541,gonogo_T,2021.2.3,60.116782855808154,
go,triangle.png,space,1344,1.344,1.844,0,31,31,53,,,,,,,,,,,,,,,,,,,,,,,,,113.13412200001767,113.63465790002374,113.61781399999745,114.96993570000632,space,1,0.2976728000212461,113.13412200001767,113.13412200001767,,,,,,,11008,001,2024_Jan_01_1541,gonogo_T,2021.2.3,60.116782855808154,
go,triangle.png,space,1641,1.641,2.141,0,32,32,86,,,,,,,,,,,,,,,,,,,,,,,,,114.98675039998489,115.48747390002245,115.47115290001966,117.12374579999596,space,1,0.3248084000078961,114.98675039998489,114.98675039998489,,,,,,,11008,001,2024_Jan_01_1541,gonogo_T,2021.2.3,60.116782855808154,
go,triangle.png,space,1329,1.329,1.829,0,33,33,90,,,,,,,,,,,,,,,,,,,,,,,,,117.13966879999498,117.64108770003077,117.62422050000168,118.9591981000267,space,1,0.27583810000214726,117.13966879999498,117.13966879999498,,,,,,,11008,001,2024_Jan_01_1541,gonogo_T,2021.2.3,60.116782855808154,
go,triangle.png,space,1594,1.594,2.094,0,34,34,38,,,,,,,,,,,,,,,,,,,,,,,,,118.97590469999705,119.47681650001323,119.46076049999101,121.06221000000369,space,1,0.3515895999735221,118.97590469999705,118.97590469999705,,,,,,,11008,001,2024_Jan_01_1541,gonogo_T,2021.2.3,60.116782855808154,
go,triangle.png,space,1866,1.866,2.366,0,35,35,42,,,,,,,,,,,,,,,,,,,,,,,,,121.07972610002616,121.58036510000238,121.56350500002736,123.43257659999654,space,1,0.35180429997853935,121.07972610002616,121.07972610002616,,,,,,,11008,001,2024_Jan_01_1541,gonogo_T,2021.2.3,60.116782855808154,
go,triangle.png,space,1791,1.791,2.291,0,36,36,55,,,,,,,,,,,,,,,,,,,,,,,,,123.44904249999672,123.95012580003822,123.93373069999507,125.7360398999881,space,1,0.3103762000100687,123.44904249999672,123.44904249999672,,,,,,,11008,001,2024_Jan_01_1541,gonogo_T,2021.2.3,60.116782855808154,
go,triangle.png,space,1955,1.955,2.455,0,37,37,35,,,,,,,,,,,,,,,,,,,,,,,,,125.75271000002977,126.25337340001715,126.236284899991,128.20610080001643,space,1,0.29494639998301864,125.75271000002977,125.75271000002977,,,,,,,11008,001,2024_Jan_01_1541,gonogo_T,2021.2.3,60.116782855808154,
go,triangle.png,space,1323,1.323,1.823,0,38,38,21,,,,,,,,,,,,,,,,,,,,,,,,,128.22329769999487,128.72394220001297,128.70787869999185,130.04217610001797,space,1,0.31244110001716763,128.22329769999487,128.22329769999487,,,,,,,11008,001,2024_Jan_01_1541,gonogo_T,2021.2.3,60.116782855808154,
nogo,square.png,None,1776,1.776,2.276,0,39,39,8,,,,,,,,,,,,,,,,,,,,,,,,,130.0588207000401,130.5602271000389,130.5429100000183,132.3303093999857,None,1,,130.0588207000401,130.0588207000401,,,,,,,11008,001,2024_Jan_01_1541,gonogo_T,2021.2.3,60.116782855808154,
nogo,square.png,None,1600,1.6,2.1,0,40,40,92,,,,,,,,,,,,,,,,,,,,,,,,,132.3455474000075,132.84697910002433,132.83029670000542,134.432482800039,None,1,,132.3455474000075,132.3455474000075,,,,,,,11008,001,2024_Jan_01_1541,gonogo_T,2021.2.3,60.116782855808154,
go,triangle.png,space,1711,1.711,2.211,0,41,41,65,,,,,,,,,,,,,,,,,,,,,,,,,134.4487109000329,134.95001760002924,134.93312930001412,136.65197720000288,space,1,0.40710230002878234,134.4487109000329,134.4487109000329,,,,,,,11008,001,2024_Jan_01_1541,gonogo_T,2021.2.3,60.116782855808154,
go,triangle.png,space,1973,1.973,2.473,0,42,42,37,,,,,,,,,,,,,,,,,,,,,,,,,136.66931189998286,137.17002319998574,137.15331640001386,139.1392204000149,space,1,0.29016800003591925,136.66931189998286,136.66931189998286,,,,,,,11008,001,2024_Jan_01_1541,gonogo_T,2021.2.3,60.116782855808154,
go,triangle.png,space,1052,1.052,1.552,0,43,43,89,,,,,,,,,,,,,,,,,,,,,,,,,139.155727400037,139.6562839000253,139.6407307999907,140.69180790003156,space,1,0.3006533000152558,139.155727400037,139.155727400037,,,,,,,11008,001,2024_Jan_01_1541,gonogo_T,2021.2.3,60.116782855808154,
go,triangle.png,space,1074,1.074,1.574,0,44,44,41,,,,,,,,,,,,,,,,,,,,,,,,,140.70835140004056,141.20944760000566,141.19234609999694,142.27756180003053,space,1,0.3792408999870531,140.70835140004056,140.70835140004056,,,,,,,11008,001,2024_Jan_01_1541,gonogo_T,2021.2.3,60.116782855808154,
go,triangle.png,space,1388,1.388,1.888,0,45,45,9,,,,,,,,,,,,,,,,,,,,,,,,,142.2936315999832,142.7943518999964,142.77885659999447,144.18033910001395,space,1,0.3150883999769576,142.2936315999832,142.2936315999832,,,,,,,11008,001,2024_Jan_01_1541,gonogo_T,2021.2.3,60.116782855808154,
go,triangle.png,space,1630,1.63,2.13,0,46,46,79,,,,,,,,,,,,,,,,,,,,,,,,,144.19782709999708,144.69775290001417,144.68127599998843,146.3164359999937,space,1,0.31390020000981167,144.19782709999708,144.19782709999708,,,,,,,11008,001,2024_Jan_01_1541,gonogo_T,2021.2.3,60.116782855808154,
go,triangle.png,space,1320,1.32,1.82,0,47,47,54,,,,,,,,,,,,,,,,,,,,,,,,,146.33295990002807,146.83368550002342,146.81687340000644,148.13572050002404,space,1,0.3066086000180803,146.33295990002807,146.33295990002807,,,,,,,11008,001,2024_Jan_01_1541,gonogo_T,2021.2.3,60.116782855808154,
go,triangle.png,space,1246,1.246,1.746,0,48,48,87,,,,,,,,,,,,,,,,,,,,,,,,,148.15278220002074,148.65496950002853,148.6365712999832,149.8883575000218,space,1,0.3511238999781199,148.15278220002074,148.15278220002074,,,,,,,11008,001,2024_Jan_01_1541,gonogo_T,2021.2.3,60.116782855808154,
nogo,square.png,None,1233,1.233,1.733,0,49,49,44,,,,,,,,,,,,,,,,,,,,,,,,,149.90598799998406,150.4056680999929,150.3918144000345,151.62411590002012,None,1,,149.90598799998406,149.90598799998406,,,,,,,11008,001,2024_Jan_01_1541,gonogo_T,2021.2.3,60.116782855808154,
go,triangle.png,space,1590,1.59,2.09,0,50,50,19,,,,,,,,,,,,,,,,,,,,,,,,,151.640843900037,152.1414990000194,152.1260869000107,153.72922390000895,space,1,0.294967700028792,151.640843900037,151.640843900037,,,,,,,11008,001,2024_Jan_01_1541,gonogo_T,2021.2.3,60.116782855808154,
nogo,square.png,None,1698,1.698,2.198,0,51,51,32,,,,,,,,,,,,,,,,,,,,,,,,,153.74372080003377,154.24553110002307,154.22872399998596,155.9305229000165,space,0,0.28785220003919676,153.74372080003377,153.74372080003377,,,,,,,11008,001,2024_Jan_01_1541,gonogo_T,2021.2.3,60.116782855808154,
go,triangle.png,space,1233,1.233,1.733,0,52,52,46,,,,,,,,,,,,,,,,,,,,,,,,,155.94784909998998,156.4479590000119,156.43142229999648,157.6669377000071,space,1,0.3962168000289239,155.94784909998998,155.94784909998998,,,,,,,11008,001,2024_Jan_01_1541,gonogo_T,2021.2.3,60.116782855808154,
nogo,square.png,None,1783,1.783,2.283,0,53,53,60,,,,,,,,,,,,,,,,,,,,,,,,,157.68371399998432,158.1844059000141,158.16721500002313,159.95314890000736,None,1,,157.68371399998432,157.68371399998432,,,,,,,11008,001,2024_Jan_01_1541,gonogo_T,2021.2.3,60.116782855808154,
nogo,square.png,None,1139,1.139,1.639,0,54,54,48,,,,,,,,,,,,,,,,,,,,,,,,,159.96975859999657,160.4716291000368,160.45462229999248,161.60562950000167,None,1,,159.96975859999657,159.96975859999657,,,,,,,11008,001,2024_Jan_01_1541,gonogo_T,2021.2.3,60.116782855808154,
go,triangle.png,space,1532,1.532,2.032,0,55,55,2,,,,,,,,,,,,,,,,,,,,,,,,,161.6220328999916,162.1239708000212,162.10629660001723,163.64239659998566,space,1,0.545669499959331,161.6220328999916,161.6220328999916,,,,,,,11008,001,2024_Jan_01_1541,gonogo_T,2021.2.3,60.116782855808154,
go,triangle.png,space,1761,1.761,2.261,0,56,56,95,,,,,,,,,,,,,,,,,,,,,,,,,163.65874300000723,164.1594083000091,164.1426392000285,165.91238420002628,space,1,0.3495848999591544,163.65874300000723,163.65874300000723,,,,,,,11008,001,2024_Jan_01_1541,gonogo_T,2021.2.3,60.116782855808154,
go,triangle.png,space,1448,1.448,1.948,0,57,57,43,,,,,,,,,,,,,,,,,,,,,,,,,165.92863340000622,166.4293682000134,166.41264480003156,167.86573359998874,space,1,0.3589359999750741,165.92863340000622,165.92863340000622,,,,,,,11008,001,2024_Jan_01_1541,gonogo_T,2021.2.3,60.116782855808154,
go,triangle.png,space,1280,1.28,1.78,0,58,58,18,,,,,,,,,,,,,,,,,,,,,,,,,167.8815581999952,168.3829856000375,168.3656380000175,169.65181380003924,space,1,0.3180904000182636,167.8815581999952,167.8815581999952,,,,,,,11008,001,2024_Jan_01_1541,gonogo_T,2021.2.3,60.116782855808154,
go,triangle.png,space,1095,1.095,1.595,0,59,59,63,,,,,,,,,,,,,,,,,,,,,,,,,169.66784419998294,170.16857270000037,170.15296929999022,171.25563800003147,space,1,0.3399126000003889,169.66784419998294,169.66784419998294,,,,,,,11008,001,2024_Jan_01_1541,gonogo_T,2021.2.3,60.116782855808154,
go,triangle.png,space,1447,1.447,1.947,0,60,60,7,,,,,,,,,,,,,,,,,,,,,,,,,171.2701768000261,171.7724104000372,171.75390150002204,173.20635709998896,space,1,0.2983370000147261,171.2701768000261,171.2701768000261,,,,,,,11008,001,2024_Jan_01_1541,gonogo_T,2021.2.3,60.116782855808154,
go,triangle.png,space,1457,1.457,1.957,0,61,61,66,,,,,,,,,,,,,,,,,,,,,,,,,173.22286550002173,173.7237654000055,173.70736280002166,175.1756009000237,space,1,0.304926400014665,173.22286550002173,173.22286550002173,,,,,,,11008,001,2024_Jan_01_1541,gonogo_T,2021.2.3,60.116782855808154,
nogo,square.png,None,1453,1.453,1.953,0,62,62,12,,,,,,,,,,,,,,,,,,,,,,,,,175.1922668000334,175.69402779999655,175.67698089999612,None,None,1,,175.1922668000334,175.1922668000334,,,,,,,11008,001,2024_Jan_01_1541,gonogo_T,2021.2.3,60.116782855808154,
go,triangle.png,space,1074,1.074,1.574,0,63,63,6,,,,,,,,,,,,,,,,,,,,,,,,,177.14577970001847,177.64593940001214,177.629276200023,178.71451479999814,space,1,0.3577138999826275,177.14577970001847,177.14577970001847,,,,,,,11008,001,2024_Jan_01_1541,gonogo_T,2021.2.3,60.116782855808154,
go,triangle.png,space,1822,1.822,2.322,0,64,64,26,,,,,,,,,,,,,,,,,,,,,,,,,178.73086740000872,179.23151110002073,179.21502370003145,181.05143230000976,space,1,0.2927814000286162,178.73086740000872,178.73086740000872,,,,,,,11008,001,2024_Jan_01_1541,gonogo_T,2021.2.3,60.116782855808154,
go,triangle.png,space,1105,1.105,1.605,0,65,65,57,,,,,,,,,,,,,,,,,,,,,,,,,181.06768570002168,181.5690409000381,181.5525900000357,182.67114250001032,space,1,0.32395120000001043,181.06768570002168,181.06768570002168,,,,,,,11008,001,2024_Jan_01_1541,gonogo_T,2021.2.3,60.116782855808154,
go,triangle.png,space,1589,1.589,2.089,0,66,66,39,,,,,,,,,,,,,,,,,,,,,,,,,182.6877186000347,183.1880449000164,183.170929600019,184.77371780003887,space,1,0.35172350000357255,182.6877186000347,182.6877186000347,,,,,,,11008,001,2024_Jan_01_1541,gonogo_T,2021.2.3,60.116782855808154,
go,triangle.png,space,1437,1.437,1.937,0,67,67,45,,,,,,,,,,,,,,,,,,,,,,,,,184.7898366000154,185.29123640002217,185.27476629999,None,space,1,0.2738050000043586,184.7898366000154,184.7898366000154,,,,,,,11008,001,2024_Jan_01_1541,gonogo_T,2021.2.3,60.116782855808154,
go,triangle.png,space,1674,1.674,2.174,0,68,68,47,,,,,,,,,,,,,,,,,,,,,,,,,186.72615770000266,187.22685830004048,187.2118182000122,188.8960624000174,space,1,0.30539949994999915,186.72615770000266,186.72615770000266,,,,,,,11008,001,2024_Jan_01_1541,gonogo_T,2021.2.3,60.116782855808154,
go,triangle.png,space,1329,1.329,1.829,0,69,69,27,,,,,,,,,,,,,,,,,,,,,,,,,188.913523300027,189.4135738000041,189.396973600029,190.73204209998948,space,1,0.3020031999913044,188.913523300027,188.913523300027,,,,,,,11008,001,2024_Jan_01_1541,gonogo_T,2021.2.3,60.116782855808154,
nogo,square.png,None,1154,1.154,1.654,0,70,70,40,,,,,,,,,,,,,,,,,,,,,,,,,190.7492818000028,191.24996320001082,191.2331758000073,192.40229759999784,None,1,,190.7492818000028,190.7492818000028,,,,,,,11008,001,2024_Jan_01_1541,gonogo_T,2021.2.3,60.116782855808154,
go,triangle.png,space,1991,1.991,2.491,0,71,71,82,,,,,,,,,,,,,,,,,,,,,,,,,192.41791230003582,192.91868579998845,192.90232789999573,194.90513339999598,space,1,0.4058725999784656,192.41791230003582,192.41791230003582,,,,,,,11008,001,2024_Jan_01_1541,gonogo_T,2021.2.3,60.116782855808154,
go,triangle.png,space,1003,1.003,1.503,0,72,72,15,,,,,,,,,,,,,,,,,,,,,,,,,194.92153950000647,195.42284700000891,195.40547920000972,None,space,1,0.37402509996900335,194.92153950000647,194.92153950000647,,,,,,,11008,001,2024_Jan_01_1541,gonogo_T,2021.2.3,60.116782855808154,
nogo,square.png,None,1131,1.131,1.631,0,73,73,52,,,,,,,,,,,,,,,,,,,,,,,,,196.42388499999652,196.92540060001193,196.9084639000357,198.04471380001632,None,1,,196.42388499999652,196.42388499999652,,,,,,,11008,001,2024_Jan_01_1541,gonogo_T,2021.2.3,60.116782855808154,
nogo,square.png,None,1102,1.102,1.602,0,74,74,80,,,,,,,,,,,,,,,,,,,,,,,,,198.06015840003965,198.5609936999972,198.54413550003665,199.64550620003138,None,1,,198.06015840003965,198.06015840003965,,,,,,,11008,001,2024_Jan_01_1541,gonogo_T,2021.2.3,60.116782855808154,
nogo,square.png,None,1467,1.467,1.967,0,75,75,72,,,,,,,,,,,,,,,,,,,,,,,,,199.66183290001936,200.16310920001706,200.14697870000964,201.61511320003774,None,1,,199.66183290001936,199.66183290001936,,,,,,,11008,001,2024_Jan_01_1541,gonogo_T,2021.2.3,60.116782855808154,
go,triangle.png,space,1217,1.217,1.717,0,76,76,1,,,,,,,,,,,,,,,,,,,,,,,,,201.63192770001478,202.1332385999849,202.1163447999861,203.3346140999929,space,1,0.3356727999635041,201.63192770001478,201.63192770001478,,,,,,,11008,001,2024_Jan_01_1541,gonogo_T,2021.2.3,60.116782855808154,
go,triangle.png,space,1180,1.18,1.68,0,77,77,81,,,,,,,,,,,,,,,,,,,,,,,,,203.3507571000373,203.85138990002451,203.8354696999886,205.0202293000184,space,1,0.3692072000121698,203.3507571000373,203.3507571000373,,,,,,,11008,001,2024_Jan_01_1541,gonogo_T,2021.2.3,60.116782855808154,
go,triangle.png,space,1796,1.796,2.296,0,78,78,58,,,,,,,,,,,,,,,,,,,,,,,,,205.036592199991,205.5374038000009,205.52076520002447,207.32535180001287,space,1,0.3554285999853164,205.036592199991,205.036592199991,,,,,,,11008,001,2024_Jan_01_1541,gonogo_T,2021.2.3,60.116782855808154,
go,triangle.png,space,1651,1.651,2.151,0,79,79,30,,,,,,,,,,,,,,,,,,,,,,,,,207.34004099998856,207.84098610002548,207.82523590000346,209.47811840003124,space,1,0.3318565000081435,207.34004099998856,207.34004099998856,,,,,,,11008,001,2024_Jan_01_1541,gonogo_T,2021.2.3,60.116782855808154,
go,triangle.png,space,1825,1.825,2.325,0,80,80,10,,,,,,,,,,,,,,,,,,,,,,,,,209.49312320002355,209.99463229998946,209.97735579998698,211.81337610003538,space,1,0.25848450005287305,209.49312320002355,209.49312320002355,,,,,,,11008,001,2024_Jan_01_1541,gonogo_T,2021.2.3,60.116782855808154,
nogo,square.png,None,1413,1.413,1.913,0,81,81,16,,,,,,,,,,,,,,,,,,,,,,,,,211.83011480001733,212.33138580003288,212.314228800009,213.73277210001834,None,1,,211.83011480001733,211.83011480001733,,,,,,,11008,001,2024_Jan_01_1541,gonogo_T,2021.2.3,60.116782855808154,
go,triangle.png,space,1767,1.767,2.267,0,82,82,77,,,,,,,,,,,,,,,,,,,,,,,,,213.74969690002035,214.2503280999954,214.23391880001873,216.00293900002725,space,1,0.30599100003018975,213.74969690002035,213.74969690002035,,,,,,,11008,001,2024_Jan_01_1541,gonogo_T,2021.2.3,60.116782855808154,
go,triangle.png,space,1493,1.493,1.993,0,83,83,69,,,,,,,,,,,,,,,,,,,,,,,,,216.0195134000387,216.5204518000246,216.50366480002413,218.0073859000113,space,1,0.29221440001856536,216.0195134000387,216.0195134000387,,,,,,,11008,001,2024_Jan_01_1541,gonogo_T,2021.2.3,60.116782855808154,
go,triangle.png,space,1370,1.37,1.87,0,84,84,13,,,,,,,,,,,,,,,,,,,,,,,,,218.0225550000323,218.52318700001342,218.5065222000121,None,space,1,0.2890029000118375,218.0225550000323,218.0225550000323,,,,,,,11008,001,2024_Jan_01_1541,gonogo_T,2021.2.3,60.116782855808154,
go,triangle.png,space,1869,1.869,2.369,0,85,85,59,,,,,,,,,,,,,,,,,,,,,,,,,219.89201419998426,220.39321060001384,220.3762133999844,222.2453736999887,space,1,0.30763689999002963,219.89201419998426,219.89201419998426,,,,,,,11008,001,2024_Jan_01_1541,gonogo_T,2021.2.3,60.116782855808154,
go,triangle.png,space,1566,1.566,2.066,0,86,86,25,,,,,,,,,,,,,,,,,,,,,,,,,222.26276880002115,222.76296130003175,222.7473191000172,224.31564710004022,space,1,0.32086960005108267,222.26276880002115,222.26276880002115,,,,,,,11008,001,2024_Jan_01_1541,gonogo_T,2021.2.3,60.116782855808154,
go,triangle.png,space,1357,1.357,1.857,0,87,87,29,,,,,,,,,,,,,,,,,,,,,,,,,224.33223990001716,224.83324589999393,224.8158143000328,226.1849671000382,space,1,0.28361230000155047,224.33223990001716,224.33223990001716,,,,,,,11008,001,2024_Jan_01_1541,gonogo_T,2021.2.3,60.116782855808154,
go,triangle.png,space,1806,1.806,2.306,0,88,88,85,,,,,,,,,,,,,,,,,,,,,,,,,226.20112590002827,226.70272529998329,226.68615550000686,228.50481040001614,space,1,0.27924990002065897,226.20112590002827,226.20112590002827,,,,,,,11008,001,2024_Jan_01_1541,gonogo_T,2021.2.3,60.116782855808154,
go,triangle.png,space,1979,1.979,2.479,0,89,89,93,,,,,,,,,,,,,,,,,,,,,,,,,228.52149740001187,229.02252009999938,229.00565619999543,230.99180620000698,space,1,0.3741559000336565,228.52149740001187,228.52149740001187,,,,,,,11008,001,2024_Jan_01_1541,gonogo_T,2021.2.3,60.116782855808154,
go,triangle.png,space,1806,1.806,2.306,0,90,90,73,,,,,,,,,,,,,,,,,,,,,,,,,231.00831669999752,231.50895200000377,231.49256069998955,233.31213949999074,space,1,0.27952909999294207,231.00831669999752,231.00831669999752,,,,,,,11008,001,2024_Jan_01_1541,gonogo_T,2021.2.3,60.116782855808154,
go,triangle.png,space,1739,1.739,2.239,0,91,91,17,,,,,,,,,,,,,,,,,,,,,,,,,233.32885039999383,233.82924440002535,233.8128868000349,235.56566120003117,space,1,0.30274249997455627,233.32885039999383,233.32885039999383,,,,,,,11008,001,2024_Jan_01_1541,gonogo_T,2021.2.3,60.116782855808154,
go,triangle.png,space,1002,1.002,1.502,0,92,92,34,,,,,,,,,,,,,,,,,,,,,,,,,235.58224409999093,236.08323879999807,236.06591300002765,237.06739260000177,space,1,0.3142546000308357,235.58224409999093,235.58224409999093,,,,,,,11008,001,2024_Jan_01_1541,gonogo_T,2021.2.3,60.116782855808154,
go,triangle.png,space,1087,1.087,1.587,0,93,93,50,,,,,,,,,,,,,,,,,,,,,,,,,237.08480010001222,237.58480030001374,237.56895970000187,238.67072590003954,space,1,0.37163629999849945,237.08480010001222,237.08480010001222,,,,,,,11008,001,2024_Jan_01_1541,gonogo_T,2021.2.3,60.116782855808154,
go,triangle.png,space,1575,1.575,2.075,0,94,94,33,,,,,,,,,,,,,,,,,,,,,,,,,238.6869344000006,239.18745820003096,239.17056930001127,240.75693110004067,space,1,0.2969601000077091,238.6869344000006,238.6869344000006,,,,,,,11008,001,2024_Jan_01_1541,gonogo_T,2021.2.3,60.116782855808154,
nogo,square.png,None,1267,1.267,1.767,0,95,95,20,,,,,,,,,,,,,,,,,,,,,,,,,240.77278769999975,241.27443160000257,241.2571537999902,242.52537009998923,None,1,,240.77278769999975,240.77278769999975,,,,,,,11008,001,2024_Jan_01_1541,gonogo_T,2021.2.3,60.116782855808154,
,,,,,,,,,,,,,,,,,,,,,,,,,,,,,,,,,,,,,,,,,,,242.5421597000095,None,space,3.233775600034278,242.5421597000095,None,11008,001,2024_Jan_01_1541,gonogo_T,2021.2.3,60.116782855808154,
