TrialType,Path,Correct,ms,s,ks,trials_4.thisRepN,trials_4.thisTrialN,trials_4.thisN,trials_4.thisIndex,welcome.started,welcome.stopped,space.started,space.stopped,key_resp.keys,key_resp.rt,key_resp.started,key_resp.stopped,Fixwarn.started,Fixwarn.stopped,table.started,table.stopped,key_resp__0.keys,key_resp__0.rt,key_resp__0.started,key_resp__0.stopped,type.started,type.stopped,space_3.started,space_3.stopped,key_resp_6.keys,key_resp_6.rt,key_resp_6.started,key_resp_6.stopped,stim_2.started,stim_2.stopped,text_2.started,text_2.stopped,key_resp_9.keys,key_resp_9.corr,key_resp_9.rt,key_resp_9.started,key_resp_9.stopped,END.started,END.stopped,key_resp_2.keys,key_resp_2.rt,key_resp_2.started,key_resp_2.stopped,participant,session,date,expName,psychopyVersion,frameRate,
,,,,,,,,,,7.5977158000459895,None,7.5977158000459895,None,space,1.8562371999723837,7.5977158000459895,None,,,,,,,,,,,,,,,,,,,,,,,,,,,,,,,,11018,001,2024_Jan_05_0831,gonogo_S,2021.2.3,59.70220541153473,
,,,,,,,,,,,,,,,,,,9.483608199981973,None,9.483608199981973,None,space,2.1537549000931904,9.483608199981973,None,,,,,,,,,,,,,,,,,,,,,,,,11018,001,2024_Jan_05_0831,gonogo_S,2021.2.3,59.70220541153473,
,,,,,,,,,,,,,,,,,,,,,,,,,,11.670824800035916,None,11.670824800035916,None,space,3.7825024999910966,11.670824800035916,None,,,,,,,,,,,,,,,,11018,001,2024_Jan_05_0831,gonogo_S,2021.2.3,59.70220541153473,
go,square.png,space,1900,1.9,2.4,0,0,0,52,,,,,,,,,,,,,,,,,,,,,,,,,15.559412400005385,16.06099270004779,16.043094500084408,17.946456099976785,space,1,0.42180430004373193,15.559412400005385,None,,,,,,,11018,001,2024_Jan_05_0831,gonogo_S,2021.2.3,59.70220541153473,
go,square.png,space,1520,1.52,2.02,0,1,1,32,,,,,,,,,,,,,,,,,,,,,,,,,17.96263429999817,18.463562500081025,18.44678770005703,19.965693500009365,space,1,0.38645770004950464,17.96263429999817,17.96263429999817,,,,,,,11018,001,2024_Jan_05_0831,gonogo_S,2021.2.3,59.70220541153473,
go,square.png,space,1513,1.513,2.013,0,2,2,8,,,,,,,,,,,,,,,,,,,,,,,,,19.98271560005378,20.485897200065665,20.46649120002985,21.985480200033635,space,1,0.5351325999945402,19.98271560005378,19.98271560005378,,,,,,,11018,001,2024_Jan_05_0831,gonogo_S,2021.2.3,59.70220541153473,
go,square.png,space,1899,1.899,2.399,0,3,3,55,,,,,,,,,,,,,,,,,,,,,,,,,22.003166200011037,22.503278600052,22.486312699969858,24.389051800011657,space,1,0.4346213999669999,22.003166200011037,22.003166200011037,,,,,,,11018,001,2024_Jan_05_0831,gonogo_S,2021.2.3,59.70220541153473,
go,square.png,space,1387,1.387,1.887,0,4,4,66,,,,,,,,,,,,,,,,,,,,,,,,,24.406058500055224,24.90804060001392,24.89015760004986,None,space,1,0.34314430004451424,24.406058500055224,24.406058500055224,,,,,,,11018,001,2024_Jan_05_0831,gonogo_S,2021.2.3,59.70220541153473,
go,square.png,space,1069,1.069,1.569,0,5,5,20,,,,,,,,,,,,,,,,,,,,,,,,,26.292045400012285,26.792519300011918,26.775903100031428,27.84493849996943,space,1,0.35308659996371716,26.292045400012285,26.292045400012285,,,,,,,11018,001,2024_Jan_05_0831,gonogo_S,2021.2.3,59.70220541153473,
go,square.png,space,1331,1.331,1.831,0,6,6,27,,,,,,,,,,,,,,,,,,,,,,,,,27.86094490007963,28.362971600028686,28.344782500062138,29.68155870004557,space,1,0.40034739999100566,27.86094490007963,27.86094490007963,,,,,,,11018,001,2024_Jan_05_0831,gonogo_S,2021.2.3,59.70220541153473,
go,square.png,space,1865,1.865,2.365,0,7,7,75,,,,,,,,,,,,,,,,,,,,,,,,,29.697142300079577,30.197715200018138,30.18099180003628,32.05125690007117,space,1,0.3883198000257835,29.697142300079577,29.697142300079577,,,,,,,11018,001,2024_Jan_05_0831,gonogo_S,2021.2.3,59.70220541153473,
go,square.png,space,1692,1.692,2.192,0,8,8,30,,,,,,,,,,,,,,,,,,,,,,,,,32.067096700076945,32.56821860000491,32.551099900039844,34.25376910006162,space,1,0.36997530004009604,32.067096700076945,32.067096700076945,,,,,,,11018,001,2024_Jan_05_0831,gonogo_S,2021.2.3,59.70220541153473,
go,square.png,space,1822,1.822,2.322,0,9,9,60,,,,,,,,,,,,,,,,,,,,,,,,,34.27115260006394,34.77114640001673,34.75513900001533,36.59024689998478,space,1,0.2858422000426799,34.27115260006394,34.27115260006394,,,,,,,11018,001,2024_Jan_05_0831,gonogo_S,2021.2.3,59.70220541153473,
go,square.png,space,1890,1.89,2.3899999999999997,0,10,10,12,,,,,,,,,,,,,,,,,,,,,,,,,36.60713300004136,37.11035149998497,37.09126140002627,38.99551929999143,space,1,0.2859399999724701,36.60713300004136,36.60713300004136,,,,,,,11018,001,2024_Jan_05_0831,gonogo_S,2021.2.3,59.70220541153473,
go,square.png,space,1503,1.503,2.003,0,11,11,79,,,,,,,,,,,,,,,,,,,,,,,,,39.01090120000299,39.512474499992095,39.49476230004802,40.996823900029995,space,1,0.27430239995010197,39.01090120000299,39.01090120000299,,,,,,,11018,001,2024_Jan_05_0831,gonogo_S,2021.2.3,59.70220541153473,
go,square.png,space,1745,1.745,2.245,0,12,12,38,,,,,,,,,,,,,,,,,,,,,,,,,41.01356290001422,41.51507359999232,41.497800200013444,43.2504150000168,space,1,0.2634371001040563,41.01356290001422,41.01356290001422,,,,,,,11018,001,2024_Jan_05_0831,gonogo_S,2021.2.3,59.70220541153473,
go,square.png,space,1084,1.084,1.584,0,13,13,95,,,,,,,,,,,,,,,,,,,,,,,,,43.26700900006108,43.76826090004761,43.75084730004892,44.83586960006505,space,1,0.28268439997918904,43.26700900006108,43.26700900006108,,,,,,,11018,001,2024_Jan_05_0831,gonogo_S,2021.2.3,59.70220541153473,
nogo,triangle.png,None,1771,1.771,2.271,0,14,14,1,,,,,,,,,,,,,,,,,,,,,,,,,44.85251760005485,45.35398320003878,45.33683180005755,None,None,1,,44.85251760005485,44.85251760005485,,,,,,,11018,001,2024_Jan_05_0831,gonogo_S,2021.2.3,59.70220541153473,
go,square.png,space,1125,1.125,1.625,0,15,15,90,,,,,,,,,,,,,,,,,,,,,,,,,47.123360399971716,47.62345830001868,47.608597000013106,48.74179870006628,space,1,0.2819660999812186,47.123360399971716,47.123360399971716,,,,,,,11018,001,2024_Jan_05_0831,gonogo_S,2021.2.3,59.70220541153473,
nogo,triangle.png,None,1450,1.45,1.95,0,16,16,37,,,,,,,,,,,,,,,,,,,,,,,,,48.75862149999011,49.25914850004483,49.242595500079915,50.69509779999498,None,1,,48.75862149999011,48.75862149999011,,,,,,,11018,001,2024_Jan_05_0831,gonogo_S,2021.2.3,59.70220541153473,
go,square.png,space,1513,1.513,2.013,0,17,17,31,,,,,,,,,,,,,,,,,,,,,,,,,50.71126880007796,51.21262190002017,51.19543040008284,52.715056300046854,space,1,0.4144712999695912,50.71126880007796,50.71126880007796,,,,,,,11018,001,2024_Jan_05_0831,gonogo_S,2021.2.3,59.70220541153473,
nogo,triangle.png,None,1325,1.325,1.825,0,18,18,17,,,,,,,,,,,,,,,,,,,,,,,,,52.73093129997142,53.23169170005713,53.21506070008036,54.55037319997791,None,1,,52.73093129997142,52.73093129997142,,,,,,,11018,001,2024_Jan_05_0831,gonogo_S,2021.2.3,59.70220541153473,
go,square.png,space,1057,1.057,1.557,0,19,19,40,,,,,,,,,,,,,,,,,,,,,,,,,54.5670140000293,55.06822820007801,55.051829700008966,56.11976220004726,space,1,0.29413369996473193,54.5670140000293,54.5670140000293,,,,,,,11018,001,2024_Jan_05_0831,gonogo_S,2021.2.3,59.70220541153473,
go,square.png,space,1806,1.806,2.306,0,20,20,63,,,,,,,,,,,,,,,,,,,,,,,,,56.13624100002926,56.63780760008376,56.62124810006935,58.44033390004188,space,1,0.47731230000499636,56.13624100002926,56.13624100002926,,,,,,,11018,001,2024_Jan_05_0831,gonogo_S,2021.2.3,59.70220541153473,
go,square.png,space,1821,1.821,2.3209999999999997,0,21,21,58,,,,,,,,,,,,,,,,,,,,,,,,,58.4563009000849,58.95694539998658,58.941196299972944,None,space,1,0.34877249994315207,58.4563009000849,58.4563009000849,,,,,,,11018,001,2024_Jan_05_0831,gonogo_S,2021.2.3,59.70220541153473,
nogo,triangle.png,None,1909,1.909,2.409,0,22,22,9,,,,,,,,,,,,,,,,,,,,,,,,,60.77630839997437,61.27717020001728,61.2607461999869,63.1800795000745,None,1,,60.77630839997437,60.77630839997437,,,,,,,11018,001,2024_Jan_05_0831,gonogo_S,2021.2.3,59.70220541153473,
go,square.png,space,1967,1.967,2.467,0,23,23,54,,,,,,,,,,,,,,,,,,,,,,,,,63.19671340007335,63.69826480001211,63.681115100043826,65.65005230007228,space,1,0.30463110003620386,63.19671340007335,63.19671340007335,,,,,,,11018,001,2024_Jan_05_0831,gonogo_S,2021.2.3,59.70220541153473,
go,square.png,space,1044,1.044,1.544,0,24,24,92,,,,,,,,,,,,,,,,,,,,,,,,,65.66741860006005,66.16858920000959,66.15086330007762,67.20244760008063,space,1,0.33813170006033033,65.66741860006005,65.66741860006005,,,,,,,11018,001,2024_Jan_05_0831,gonogo_S,2021.2.3,59.70220541153473,
go,square.png,space,1766,1.766,2.266,0,25,25,23,,,,,,,,,,,,,,,,,,,,,,,,,67.21907960006502,67.72007729997858,67.70328300003894,69.47278970002662,space,1,0.3620096000377089,67.21907960006502,67.21907960006502,,,,,,,11018,001,2024_Jan_05_0831,gonogo_S,2021.2.3,59.70220541153473,
go,square.png,space,1552,1.552,2.052,0,26,26,59,,,,,,,,,,,,,,,,,,,,,,,,,69.48915470007341,69.99002829997335,69.97382339998148,71.52578660007566,space,1,0.332446499960497,69.48915470007341,69.48915470007341,,,,,,,11018,001,2024_Jan_05_0831,gonogo_S,2021.2.3,59.70220541153473,
go,square.png,space,1843,1.843,2.343,0,27,27,64,,,,,,,,,,,,,,,,,,,,,,,,,71.54230239999015,72.04358340008184,72.02634980005678,73.87884820008185,space,1,0.3678949000313878,71.54230239999015,71.54230239999015,,,,,,,11018,001,2024_Jan_05_0831,gonogo_S,2021.2.3,59.70220541153473,
go,square.png,space,1731,1.731,2.231,0,28,28,42,,,,,,,,,,,,,,,,,,,,,,,,,73.89600800001062,74.39741390000563,74.3803801999893,76.11612640006933,space,1,0.33342089992947876,73.89600800001062,73.89600800001062,,,,,,,11018,001,2024_Jan_05_0831,gonogo_S,2021.2.3,59.70220541153473,
go,square.png,space,1564,1.564,2.064,0,29,29,82,,,,,,,,,,,,,,,,,,,,,,,,,76.13241910003126,76.63302140007727,76.6168214000063,78.18630880001001,space,1,0.3608380000805482,76.13241910003126,76.13241910003126,,,,,,,11018,001,2024_Jan_05_0831,gonogo_S,2021.2.3,59.70220541153473,
go,square.png,space,1160,1.16,1.66,0,30,30,48,,,,,,,,,,,,,,,,,,,,,,,,,78.20249870000407,78.70372730004601,78.68678350001574,79.85736380005255,space,1,0.35458269994705915,78.20249870000407,78.20249870000407,,,,,,,11018,001,2024_Jan_05_0831,gonogo_S,2021.2.3,59.70220541153473,
nogo,triangle.png,None,1569,1.569,2.069,0,31,31,45,,,,,,,,,,,,,,,,,,,,,,,,,79.8711569000734,80.37282499996945,80.35610440000892,81.92525610001758,None,1,,79.8711569000734,79.8711569000734,,,,,,,11018,001,2024_Jan_05_0831,gonogo_S,2021.2.3,59.70220541153473,
go,square.png,space,1060,1.06,1.56,0,32,32,51,,,,,,,,,,,,,,,,,,,,,,,,,81.9410742999753,82.44219059997704,82.42559750005603,83.49336219998077,space,1,0.2971197000006214,81.9410742999753,81.9410742999753,,,,,,,11018,001,2024_Jan_05_0831,gonogo_S,2021.2.3,59.70220541153473,
nogo,triangle.png,None,1577,1.577,2.077,0,33,33,89,,,,,,,,,,,,,,,,,,,,,,,,,83.51025759999175,84.01080940000247,83.99407999997493,85.58052169997245,None,1,,83.51025759999175,83.51025759999175,,,,,,,11018,001,2024_Jan_05_0831,gonogo_S,2021.2.3,59.70220541153473,
go,square.png,space,1445,1.445,1.945,0,34,34,74,,,,,,,,,,,,,,,,,,,,,,,,,85.5965841000434,86.09714510000776,86.08069189998787,87.53260010003578,space,1,0.36062240006867796,85.5965841000434,85.5965841000434,,,,,,,11018,001,2024_Jan_05_0831,gonogo_S,2021.2.3,59.70220541153473,
go,square.png,space,1536,1.536,2.036,0,35,35,3,,,,,,,,,,,,,,,,,,,,,,,,,87.54941269999836,88.05001520004589,88.03396480006631,89.5691265000496,space,1,0.3035371999721974,87.54941269999836,87.54941269999836,,,,,,,11018,001,2024_Jan_05_0831,gonogo_S,2021.2.3,59.70220541153473,
go,square.png,space,1297,1.297,1.797,0,36,36,56,,,,,,,,,,,,,,,,,,,,,,,,,89.58575410000049,90.08680829999503,90.07014189998154,91.37158899998758,space,1,0.42740729998331517,89.58575410000049,89.58575410000049,,,,,,,11018,001,2024_Jan_05_0831,gonogo_S,2021.2.3,59.70220541153473,
go,square.png,space,1776,1.776,2.276,0,37,37,14,,,,,,,,,,,,,,,,,,,,,,,,,91.38841790007427,91.88903239998035,91.87224910000805,93.6593607000541,space,1,0.304910899954848,91.38841790007427,91.38841790007427,,,,,,,11018,001,2024_Jan_05_0831,gonogo_S,2021.2.3,59.70220541153473,
go,square.png,space,1249,1.249,1.749,0,38,38,71,,,,,,,,,,,,,,,,,,,,,,,,,93.675670000026,94.17631400004029,94.1596881999867,95.41165800008457,space,1,0.3057912999065593,93.675670000026,93.675670000026,,,,,,,11018,001,2024_Jan_05_0831,gonogo_S,2021.2.3,59.70220541153473,
nogo,triangle.png,None,1144,1.144,1.644,0,39,39,41,,,,,,,,,,,,,,,,,,,,,,,,,95.42858760000672,95.92846339999232,95.91172079998069,97.06400920008309,space,0,0.32840479991864413,95.42858760000672,95.42858760000672,,,,,,,11018,001,2024_Jan_05_0831,gonogo_S,2021.2.3,59.70220541153473,
nogo,triangle.png,None,1218,1.218,1.718,0,40,40,25,,,,,,,,,,,,,,,,,,,,,,,,,97.08091710007284,97.5814887000015,97.56475330004469,98.78266809997149,None,1,,97.08091710007284,97.08091710007284,,,,,,,11018,001,2024_Jan_05_0831,gonogo_S,2021.2.3,59.70220541153473,
go,square.png,space,1136,1.136,1.636,0,41,41,43,,,,,,,,,,,,,,,,,,,,,,,,,98.79925170005299,99.30122989998199,99.28342270001303,None,space,1,0.3258983000414446,98.79925170005299,98.79925170005299,,,,,,,11018,001,2024_Jan_05_0831,gonogo_S,2021.2.3,59.70220541153473,
nogo,triangle.png,None,1190,1.19,1.69,0,42,42,53,,,,,,,,,,,,,,,,,,,,,,,,,100.43517199996859,100.93745610001497,100.91917700006161,102.12214900006074,None,1,,100.43517199996859,100.43517199996859,,,,,,,11018,001,2024_Jan_05_0831,gonogo_S,2021.2.3,59.70220541153473,
nogo,triangle.png,None,1939,1.939,2.439,0,43,43,65,,,,,,,,,,,,,,,,,,,,,,,,,102.13754600007087,102.63821900007315,102.62211230001412,None,None,1,,102.13754600007087,102.13754600007087,,,,,,,11018,001,2024_Jan_05_0831,gonogo_S,2021.2.3,59.70220541153473,
go,square.png,space,1428,1.428,1.928,0,44,44,62,,,,,,,,,,,,,,,,,,,,,,,,,104.57562540005893,105.07545770006254,105.05871480004862,106.49393760005478,space,1,0.3414782000472769,104.57562540005893,104.57562540005893,,,,,,,11018,001,2024_Jan_05_0831,gonogo_S,2021.2.3,59.70220541153473,
go,square.png,space,1663,1.663,2.1630000000000003,0,45,45,7,,,,,,,,,,,,,,,,,,,,,,,,,106.51061420002952,107.01226800004952,106.99592450005002,108.6646382000763,space,1,0.44642739999108016,106.51061420002952,106.51061420002952,,,,,,,11018,001,2024_Jan_05_0831,gonogo_S,2021.2.3,59.70220541153473,
go,square.png,space,1230,1.23,1.73,0,46,46,35,,,,,,,,,,,,,,,,,,,,,,,,,108.6806012999732,109.18171949998941,109.16469080001116,110.39989060000516,space,1,0.38862570002675056,108.6806012999732,108.6806012999732,,,,,,,11018,001,2024_Jan_05_0831,gonogo_S,2021.2.3,59.70220541153473,
go,square.png,space,1111,1.111,1.611,0,47,47,24,,,,,,,,,,,,,,,,,,,,,,,,,110.41656410007272,110.91722780000418,110.90091419999953,112.0191318000434,space,1,0.5087849999545142,110.41656410007272,110.41656410007272,,,,,,,11018,001,2024_Jan_05_0831,gonogo_S,2021.2.3,59.70220541153473,
go,square.png,space,1420,1.42,1.92,0,48,48,6,,,,,,,,,,,,,,,,,,,,,,,,,112.03569330007304,112.53699469997082,112.52033820003271,None,space,1,0.4574371000053361,112.03569330007304,112.03569330007304,,,,,,,11018,001,2024_Jan_05_0831,gonogo_S,2021.2.3,59.70220541153473,
go,square.png,space,1054,1.054,1.554,0,49,49,39,,,,,,,,,,,,,,,,,,,,,,,,,113.95644039998297,114.45654170005582,114.4399256000761,115.5075618000701,space,1,0.40098929998930544,113.95644039998297,113.95644039998297,,,,,,,11018,001,2024_Jan_05_0831,gonogo_S,2021.2.3,59.70220541153473,
go,square.png,space,1655,1.655,2.1550000000000002,0,50,50,36,,,,,,,,,,,,,,,,,,,,,,,,,115.5244441999821,116.02466760005336,116.00795490003657,117.67806539998855,space,1,0.48086479993071407,115.5244441999821,115.5244441999821,,,,,,,11018,001,2024_Jan_05_0831,gonogo_S,2021.2.3,59.70220541153473,
go,square.png,space,1857,1.857,2.357,0,51,51,2,,,,,,,,,,,,,,,,,,,,,,,,,117.69410030008294,118.19555230007973,118.17889039998408,120.04831109999213,space,1,0.30300489999353886,117.69410030008294,117.69410030008294,,,,,,,11018,001,2024_Jan_05_0831,gonogo_S,2021.2.3,59.70220541153473,
go,square.png,space,1975,1.975,2.475,0,52,52,87,,,,,,,,,,,,,,,,,,,,,,,,,120.0643067000201,120.56476690003183,120.54884300008416,122.535045000026,space,1,0.4292905000038445,120.0643067000201,120.0643067000201,,,,,,,11018,001,2024_Jan_05_0831,gonogo_S,2021.2.3,59.70220541153473,
nogo,triangle.png,None,1273,1.273,1.773,0,53,53,5,,,,,,,,,,,,,,,,,,,,,,,,,122.5513176000677,123.05202020006254,123.03547990007792,124.32053460006136,None,1,,122.5513176000677,122.5513176000677,,,,,,,11018,001,2024_Jan_05_0831,gonogo_S,2021.2.3,59.70220541153473,
go,square.png,space,1150,1.15,1.65,0,54,54,19,,,,,,,,,,,,,,,,,,,,,,,,,124.33716090000235,124.83773470006417,124.82113569998182,125.97308899997734,space,1,0.33253470005001873,124.33716090000235,124.33716090000235,,,,,,,11018,001,2024_Jan_05_0831,gonogo_S,2021.2.3,59.70220541153473,
go,square.png,space,1991,1.991,2.491,0,55,55,88,,,,,,,,,,,,,,,,,,,,,,,,,125.98965190001763,126.49163740000222,126.47393139998894,128.4766445000423,space,1,0.35956860007718205,125.98965190001763,125.98965190001763,,,,,,,11018,001,2024_Jan_05_0831,gonogo_S,2021.2.3,59.70220541153473,
go,square.png,space,1889,1.889,2.3890000000000002,0,56,56,15,,,,,,,,,,,,,,,,,,,,,,,,,128.4931130000623,128.99499090004247,128.97742960008327,130.88109110004734,space,1,0.39227289997506887,128.4931130000623,128.4931130000623,,,,,,,11018,001,2024_Jan_05_0831,gonogo_S,2021.2.3,59.70220541153473,
go,square.png,space,1110,1.11,1.61,0,57,57,76,,,,,,,,,,,,,,,,,,,,,,,,,130.89676580007654,131.39757200004533,131.38149579998571,132.49917590001132,space,1,0.40438319998793304,130.89676580007654,130.89676580007654,,,,,,,11018,001,2024_Jan_05_0831,gonogo_S,2021.2.3,59.70220541153473,
nogo,triangle.png,None,1317,1.317,1.817,0,58,58,85,,,,,,,,,,,,,,,,,,,,,,,,,132.51696180005092,133.01734800008126,133.00003350002225,134.3192713999888,None,1,,132.51696180005092,132.51696180005092,,,,,,,11018,001,2024_Jan_05_0831,gonogo_S,2021.2.3,59.70220541153473,
go,square.png,space,1670,1.67,2.17,0,59,59,94,,,,,,,,,,,,,,,,,,,,,,,,,134.33548870007508,134.8380310999928,134.81939570000395,136.4891419999767,space,1,0.32566930004395545,134.33548870007508,134.33548870007508,,,,,,,11018,001,2024_Jan_05_0831,gonogo_S,2021.2.3,59.70220541153473,
nogo,triangle.png,None,1366,1.366,1.866,0,60,60,57,,,,,,,,,,,,,,,,,,,,,,,,,136.50594900001306,137.00595730007626,136.98936330003198,138.35806580004282,None,1,,136.50594900001306,136.50594900001306,,,,,,,11018,001,2024_Jan_05_0831,gonogo_S,2021.2.3,59.70220541153473,
go,square.png,space,1155,1.155,1.655,0,61,61,0,,,,,,,,,,,,,,,,,,,,,,,,,138.37475229997654,138.87554080004338,138.8595863999799,140.02746050001588,space,1,0.3676319000078365,138.37475229997654,138.37475229997654,,,,,,,11018,001,2024_Jan_05_0831,gonogo_S,2021.2.3,59.70220541153473,
go,square.png,space,1148,1.148,1.648,0,62,62,4,,,,,,,,,,,,,,,,,,,,,,,,,140.04363480000757,140.54507990006823,140.52799269999377,141.6798632000573,space,1,0.3459437000565231,140.04363480000757,140.04363480000757,,,,,,,11018,001,2024_Jan_05_0831,gonogo_S,2021.2.3,59.70220541153473,
go,square.png,space,1320,1.32,1.82,0,63,63,83,,,,,,,,,,,,,,,,,,,,,,,,,141.69619330007117,142.19772110006306,142.1806504999986,None,space,1,0.3250030999770388,141.69619330007117,141.69619330007117,,,,,,,11018,001,2024_Jan_05_0831,gonogo_S,2021.2.3,59.70220541153473,
go,square.png,space,1973,1.973,2.473,0,64,64,44,,,,,,,,,,,,,,,,,,,,,,,,,143.51619360002223,144.01650590007193,144.0003194999881,145.98616970004514,space,1,0.3370309000601992,143.51619360002223,143.51619360002223,,,,,,,11018,001,2024_Jan_05_0831,gonogo_S,2021.2.3,59.70220541153473,
go,square.png,space,1210,1.21,1.71,0,65,65,80,,,,,,,,,,,,,,,,,,,,,,,,,146.00262340006884,146.5039100999711,146.48673350003082,147.70526680001058,space,1,0.3866875999374315,146.00262340006884,146.00262340006884,,,,,,,11018,001,2024_Jan_05_0831,gonogo_S,2021.2.3,59.70220541153473,
nogo,triangle.png,None,1790,1.79,2.29,0,66,66,93,,,,,,,,,,,,,,,,,,,,,,,,,147.72176540002692,148.22273540007882,148.20589029998519,150.00921310007107,None,1,,147.72176540002692,147.72176540002692,,,,,,,11018,001,2024_Jan_05_0831,gonogo_S,2021.2.3,59.70220541153473,
nogo,triangle.png,None,1659,1.659,2.159,0,67,67,49,,,,,,,,,,,,,,,,,,,,,,,,,150.02585289999843,150.52651640004478,150.5091279000044,152.1791126000462,None,1,,150.02585289999843,150.02585289999843,,,,,,,11018,001,2024_Jan_05_0831,gonogo_S,2021.2.3,59.70220541153473,
go,square.png,space,1899,1.899,2.399,0,68,68,28,,,,,,,,,,,,,,,,,,,,,,,,,152.19548400002532,152.69650139997248,152.6791830000002,154.58210230001714,space,1,0.40188740007579327,152.19548400002532,152.19548400002532,,,,,,,11018,001,2024_Jan_05_0831,gonogo_S,2021.2.3,59.70220541153473,
go,square.png,space,1503,1.503,2.003,0,69,69,78,,,,,,,,,,,,,,,,,,,,,,,,,154.5994172000792,155.10158700007014,155.08257109997794,156.58488800004125,space,1,0.37379530002363026,154.5994172000792,154.5994172000792,,,,,,,11018,001,2024_Jan_05_0831,gonogo_S,2021.2.3,59.70220541153473,
go,square.png,space,1672,1.672,2.1719999999999997,0,70,70,84,,,,,,,,,,,,,,,,,,,,,,,,,156.60168109997176,157.10240430000704,157.08629710006062,None,space,1,0.31625279993750155,156.60168109997176,156.60168109997176,,,,,,,11018,001,2024_Jan_05_0831,gonogo_S,2021.2.3,59.70220541153473,
go,square.png,space,1240,1.24,1.74,0,71,71,86,,,,,,,,,,,,,,,,,,,,,,,,,158.77200330002233,159.27302269998472,159.25631149997935,160.50753030006308,space,1,0.49021150008775294,158.77200330002233,158.77200330002233,,,,,,,11018,001,2024_Jan_05_0831,gonogo_S,2021.2.3,59.70220541153473,
nogo,triangle.png,None,1683,1.683,2.183,0,72,72,29,,,,,,,,,,,,,,,,,,,,,,,,,160.52423740003724,161.02547720004804,161.00868870003615,162.6945195000153,None,1,,160.52423740003724,160.52423740003724,,,,,,,11018,001,2024_Jan_05_0831,gonogo_S,2021.2.3,59.70220541153473,
go,square.png,space,1189,1.189,1.689,0,73,73,11,,,,,,,,,,,,,,,,,,,,,,,,,162.71136369998567,163.21147470001597,163.1947927000001,164.3965594000183,space,1,0.35044889990240335,162.71136369998567,162.71136369998567,,,,,,,11018,001,2024_Jan_05_0831,gonogo_S,2021.2.3,59.70220541153473,
go,square.png,space,1940,1.94,2.44,0,74,74,47,,,,,,,,,,,,,,,,,,,,,,,,,164.41321430006064,164.91439789999276,164.89797829999588,166.85009910003282,space,1,0.48798490001354367,164.41321430006064,164.41321430006064,,,,,,,11018,001,2024_Jan_05_0831,gonogo_S,2021.2.3,59.70220541153473,
nogo,triangle.png,None,1559,1.559,2.059,0,75,75,61,,,,,,,,,,,,,,,,,,,,,,,,,166.86688470002264,167.36835010000505,167.350995899993,168.92052330006845,None,1,,166.86688470002264,166.86688470002264,,,,,,,11018,001,2024_Jan_05_0831,gonogo_S,2021.2.3,59.70220541153473,
go,square.png,space,1437,1.437,1.937,0,76,76,50,,,,,,,,,,,,,,,,,,,,,,,,,168.93713370000478,169.43727770005353,169.42051039997023,170.87273240007926,space,1,0.3490858000004664,168.93713370000478,168.93713370000478,,,,,,,11018,001,2024_Jan_05_0831,gonogo_S,2021.2.3,59.70220541153473,
go,square.png,space,1361,1.361,1.861,0,77,77,67,,,,,,,,,,,,,,,,,,,,,,,,,170.89017710008193,171.39019409997854,171.37351449998096,172.7442787999753,space,1,0.38692199997603893,170.89017710008193,170.89017710008193,,,,,,,11018,001,2024_Jan_05_0831,gonogo_S,2021.2.3,59.70220541153473,
go,square.png,space,1562,1.562,2.0620000000000003,0,78,78,46,,,,,,,,,,,,,,,,,,,,,,,,,172.75878580007702,173.26122190000024,173.24283760006074,174.81251229997724,space,1,0.3751184999709949,172.75878580007702,172.75878580007702,,,,,,,11018,001,2024_Jan_05_0831,gonogo_S,2021.2.3,59.70220541153473,
go,square.png,space,1780,1.78,2.2800000000000002,0,79,79,18,,,,,,,,,,,,,,,,,,,,,,,,,174.82880050002132,175.33005340001546,175.3125220000511,177.09852590004448,space,1,0.3527630000608042,174.82880050002132,174.82880050002132,,,,,,,11018,001,2024_Jan_05_0831,gonogo_S,2021.2.3,59.70220541153473,
nogo,triangle.png,None,1629,1.629,2.129,0,80,80,73,,,,,,,,,,,,,,,,,,,,,,,,,177.11626320006326,177.61634489998687,177.60018690000288,179.23598310002126,None,1,,177.11626320006326,177.11626320006326,,,,,,,11018,001,2024_Jan_05_0831,gonogo_S,2021.2.3,59.70220541153473,
go,square.png,space,1546,1.546,2.0460000000000003,0,81,81,68,,,,,,,,,,,,,,,,,,,,,,,,,179.25193949998356,179.752645200002,179.73602299997583,181.2888558000559,space,1,0.38579159998334944,179.25193949998356,179.25193949998356,,,,,,,11018,001,2024_Jan_05_0831,gonogo_S,2021.2.3,59.70220541153473,
go,square.png,space,1121,1.121,1.621,0,82,82,22,,,,,,,,,,,,,,,,,,,,,,,,,181.30516079999506,181.80606350000016,181.7889166000532,182.92570020002313,space,1,0.5169056999729946,181.30516079999506,181.30516079999506,,,,,,,11018,001,2024_Jan_05_0831,gonogo_S,2021.2.3,59.70220541153473,
go,square.png,space,1462,1.462,1.962,0,83,83,72,,,,,,,,,,,,,,,,,,,,,,,,,182.9413724000333,183.44217679998837,183.42537830001675,184.89467930002138,space,1,0.5197972001042217,182.9413724000333,182.9413724000333,,,,,,,11018,001,2024_Jan_05_0831,gonogo_S,2021.2.3,59.70220541153473,
go,square.png,space,1194,1.194,1.694,0,84,84,26,,,,,,,,,,,,,,,,,,,,,,,,,184.91039780003484,185.41160690004472,185.3944671000354,186.59723160008434,space,1,0.37481940002180636,184.91039780003484,184.91039780003484,,,,,,,11018,001,2024_Jan_05_0831,gonogo_S,2021.2.3,59.70220541153473,
nogo,triangle.png,None,1924,1.924,2.424,0,85,85,13,,,,,,,,,,,,,,,,,,,,,,,,,186.61282610008493,187.1138542999979,187.09679089998826,189.03384539997205,None,1,,186.61282610008493,186.61282610008493,,,,,,,11018,001,2024_Jan_05_0831,gonogo_S,2021.2.3,59.70220541153473,
go,square.png,space,1190,1.19,1.69,0,86,86,16,,,,,,,,,,,,,,,,,,,,,,,,,189.04976690001786,189.55122200003825,189.53388480003923,190.73620619997382,space,1,0.2914843000471592,189.04976690001786,189.04976690001786,,,,,,,11018,001,2024_Jan_05_0831,gonogo_S,2021.2.3,59.70220541153473,
go,square.png,space,1303,1.303,1.803,0,87,87,70,,,,,,,,,,,,,,,,,,,,,,,,,190.7522478000028,191.25309590005782,191.23787680000532,None,space,1,0.34125999989919364,190.7522478000028,190.7522478000028,,,,,,,11018,001,2024_Jan_05_0831,gonogo_S,2021.2.3,59.70220541153473,
nogo,triangle.png,None,1118,1.118,1.618,0,88,88,69,,,,,,,,,,,,,,,,,,,,,,,,,192.55480979999993,193.05613440007437,193.03991430008318,194.15871610003524,None,1,,192.55480979999993,192.55480979999993,,,,,,,11018,001,2024_Jan_05_0831,gonogo_S,2021.2.3,59.70220541153473,
nogo,triangle.png,None,1542,1.542,2.042,0,89,89,21,,,,,,,,,,,,,,,,,,,,,,,,,194.17487690004054,194.67529829998966,194.65898299997207,196.2120412000222,None,1,,194.17487690004054,194.17487690004054,,,,,,,11018,001,2024_Jan_05_0831,gonogo_S,2021.2.3,59.70220541153473,
go,square.png,space,1849,1.849,2.349,0,90,90,91,,,,,,,,,,,,,,,,,,,,,,,,,196.22704869997688,196.72841720003635,196.71153610001784,198.56489570008125,space,1,0.40215390000957996,196.22704869997688,196.22704869997688,,,,,,,11018,001,2024_Jan_05_0831,gonogo_S,2021.2.3,59.70220541153473,
go,square.png,space,1209,1.209,1.709,0,91,91,10,,,,,,,,,,,,,,,,,,,,,,,,,198.58072139997967,199.08131430007052,199.06482550001238,200.2830425000284,space,1,0.46464799996465445,198.58072139997967,198.58072139997967,,,,,,,11018,001,2024_Jan_05_0831,gonogo_S,2021.2.3,59.70220541153473,
nogo,triangle.png,None,1384,1.384,1.884,0,92,92,77,,,,,,,,,,,,,,,,,,,,,,,,,200.2996672000736,200.80089980002958,200.7837586000096,202.16989260003902,None,1,,200.2996672000736,200.2996672000736,,,,,,,11018,001,2024_Jan_05_0831,gonogo_S,2021.2.3,59.70220541153473,
nogo,triangle.png,None,1436,1.436,1.936,0,93,93,81,,,,,,,,,,,,,,,,,,,,,,,,,202.1865870000329,202.68737130006775,202.6707330000354,None,None,1,,202.1865870000329,202.1865870000329,,,,,,,11018,001,2024_Jan_05_0831,gonogo_S,2021.2.3,59.70220541153473,
nogo,triangle.png,None,1867,1.867,2.367,0,94,94,33,,,,,,,,,,,,,,,,,,,,,,,,,204.12214510003105,204.62375999998767,204.60604400001466,206.47625349997543,None,1,,204.12214510003105,204.12214510003105,,,,,,,11018,001,2024_Jan_05_0831,gonogo_S,2021.2.3,59.70220541153473,
go,square.png,space,1227,1.227,1.727,0,95,95,34,,,,,,,,,,,,,,,,,,,,,,,,,206.49235820001923,206.99510770000052,206.97671509999782,208.21186639997177,space,1,0.3769823000766337,206.49235820001923,206.49235820001923,,,,,,,11018,001,2024_Jan_05_0831,gonogo_S,2021.2.3,59.70220541153473,
,,,,,,,,,,,,,,,,,,,,,,,,,,,,,,,,,,,,,,,,,,,208.228300100076,None,space,4.097001599962823,208.228300100076,None,11018,001,2024_Jan_05_0831,gonogo_S,2021.2.3,59.70220541153473,
