TrialType,Path,Correct,ms,s,ks,trials_4.thisRepN,trials_4.thisTrialN,trials_4.thisN,trials_4.thisIndex,welcome.started,welcome.stopped,space.started,space.stopped,key_resp.keys,key_resp.rt,key_resp.started,key_resp.stopped,Fixwarn.started,Fixwarn.stopped,table.started,table.stopped,key_resp__0.keys,key_resp__0.rt,key_resp__0.started,key_resp__0.stopped,type.started,type.stopped,space_3.started,space_3.stopped,key_resp_6.keys,key_resp_6.rt,key_resp_6.started,key_resp_6.stopped,stim_2.started,stim_2.stopped,text_2.started,text_2.stopped,key_resp_9.keys,key_resp_9.corr,key_resp_9.started,key_resp_9.stopped,key_resp_9.rt,END.started,END.stopped,key_resp_2.keys,key_resp_2.rt,key_resp_2.started,key_resp_2.stopped,participant,session,date,expName,psychopyVersion,frameRate,
,,,,,,,,,,11.993094300036319,None,11.993094300036319,None,space,4.590974000049755,11.993094300036319,None,,,,,,,,,,,,,,,,,,,,,,,,,,,,,,,,11019,001,2024_Jan_05_0947,gonogo_S,2021.2.3,60.12972387406447,
,,,,,,,,,,,,,,,,,,16.60065390006639,None,16.60065390006639,None,space,8.71920599997975,16.60065390006639,None,,,,,,,,,,,,,,,,,,,,,,,,11019,001,2024_Jan_05_0947,gonogo_S,2021.2.3,60.12972387406447,
,,,,,,,,,,,,,,,,,,,,,,,,,,25.36417519999668,None,25.36417519999668,None,space,10.219799200072885,25.36417519999668,None,,,,,,,,,,,,,,,,11019,001,2024_Jan_05_0947,gonogo_S,2021.2.3,60.12972387406447,
go,square.png,space,1150,1.15,1.65,0,0,0,19,,,,,,,,,,,,,,,,,,,,,,,,,35.678922899998724,36.18038879998494,36.16386109997984,37.31486879999284,None,0,35.678922899998724,None,,,,,,,,11019,001,2024_Jan_05_0947,gonogo_S,2021.2.3,60.12972387406447,
go,square.png,space,1692,1.692,2.192,0,1,1,30,,,,,,,,,,,,,,,,,,,,,,,,,37.33145290007815,37.83269609999843,37.81539890007116,39.51842590002343,space,1,37.33145290007815,37.33145290007815,0.08452429994940758,,,,,,,11019,001,2024_Jan_05_0947,gonogo_S,2021.2.3,60.12972387406447,
go,square.png,space,1975,1.975,2.475,0,2,2,87,,,,,,,,,,,,,,,,,,,,,,,,,39.534697200055234,40.035619999980554,40.018800700083375,42.004871100070886,space,1,39.534697200055234,39.534697200055234,0.4499292999971658,,,,,,,11019,001,2024_Jan_05_0947,gonogo_S,2021.2.3,60.12972387406447,
go,square.png,space,1210,1.21,1.71,0,3,3,80,,,,,,,,,,,,,,,,,,,,,,,,,42.02177410002332,42.52276780002285,42.50578340003267,43.72469679999631,space,1,42.02177410002332,42.02177410002332,0.3869353999616578,,,,,,,11019,001,2024_Jan_05_0947,gonogo_S,2021.2.3,60.12972387406447,
go,square.png,space,1766,1.766,2.266,0,4,4,23,,,,,,,,,,,,,,,,,,,,,,,,,43.7409939999925,44.2423213000875,44.22564780001994,45.994896900025196,space,1,43.7409939999925,43.7409939999925,0.2750414999900386,,,,,,,11019,001,2024_Jan_05_0947,gonogo_S,2021.2.3,60.12972387406447,
go,square.png,space,1536,1.536,2.036,0,5,5,3,,,,,,,,,,,,,,,,,,,,,,,,,46.01091680000536,46.511751800077036,46.49529510003049,48.03294240008108,space,1,46.01091680000536,46.01091680000536,0.26895989989861846,,,,,,,11019,001,2024_Jan_05_0947,gonogo_S,2021.2.3,60.12972387406447,
go,square.png,space,1303,1.303,1.803,0,6,6,70,,,,,,,,,,,,,,,,,,,,,,,,,48.04817970003933,48.54866930004209,48.53218930005096,None,space,1,48.04817970003933,48.04817970003933,0.3121046000160277,,,,,,,11019,001,2024_Jan_05_0947,gonogo_S,2021.2.3,60.12972387406447,
go,square.png,space,1890,1.89,2.3899999999999997,0,7,7,12,,,,,,,,,,,,,,,,,,,,,,,,,49.850269000045955,50.351283400086686,50.33406670007389,52.237398000084795,space,1,49.850269000045955,49.850269000045955,0.28589090006425977,,,,,,,11019,001,2024_Jan_05_0947,gonogo_S,2021.2.3,60.12972387406447,
go,square.png,space,1655,1.655,2.1550000000000002,0,8,8,36,,,,,,,,,,,,,,,,,,,,,,,,,52.25369000004139,52.75492239999585,52.73790830001235,54.40727790002711,space,1,52.25369000004139,52.25369000004139,0.33068780007306486,,,,,,,11019,001,2024_Jan_05_0947,gonogo_S,2021.2.3,60.12972387406447,
go,square.png,space,1437,1.437,1.937,0,9,9,50,,,,,,,,,,,,,,,,,,,,,,,,,54.42437850008719,54.92449610005133,54.90789560007397,56.3600415000692,space,1,54.42437850008719,54.42437850008719,0.23967579996678978,,,,,,,11019,001,2024_Jan_05_0947,gonogo_S,2021.2.3,60.12972387406447,
go,square.png,space,1060,1.06,1.56,0,10,10,51,,,,,,,,,,,,,,,,,,,,,,,,,56.376345700002275,56.87822180008516,56.8603900000453,57.92873090005014,space,1,56.376345700002275,56.376345700002275,0.27201950002927333,,,,,,,11019,001,2024_Jan_05_0947,gonogo_S,2021.2.3,60.12972387406447,
go,square.png,space,1320,1.32,1.82,0,11,11,83,,,,,,,,,,,,,,,,,,,,,,,,,57.94626040000003,58.446620500064455,58.42995660007,59.765015200013295,space,1,57.94626040000003,57.94626040000003,0.35040190001018345,,,,,,,11019,001,2024_Jan_05_0947,gonogo_S,2021.2.3,60.12972387406447,
go,square.png,space,1445,1.445,1.945,0,12,12,74,,,,,,,,,,,,,,,,,,,,,,,,,59.781224100035615,60.2826355000725,60.26614810002502,61.71753180003725,space,1,59.781224100035615,59.781224100035615,0.25878869998268783,,,,,,,11019,001,2024_Jan_05_0947,gonogo_S,2021.2.3,60.12972387406447,
go,square.png,space,1564,1.564,2.064,0,13,13,82,,,,,,,,,,,,,,,,,,,,,,,,,61.734524300089106,62.23493859998416,62.21762800007127,63.78779820003547,space,1,61.734524300089106,61.734524300089106,0.27359009999781847,,,,,,,11019,001,2024_Jan_05_0947,gonogo_S,2021.2.3,60.12972387406447,
nogo,triangle.png,None,1436,1.436,1.936,0,14,14,81,,,,,,,,,,,,,,,,,,,,,,,,,63.80389790004119,64.30533150001429,64.28811229998246,65.72514810005669,space,0,63.80389790004119,63.80389790004119,0.24418879998847842,,,,,,,11019,001,2024_Jan_05_0947,gonogo_S,2021.2.3,60.12972387406447,
nogo,triangle.png,None,1450,1.45,1.95,0,15,15,37,,,,,,,,,,,,,,,,,,,,,,,,,65.74016669997945,66.24079250008799,66.22415090003051,67.677852599998,None,1,65.74016669997945,65.74016669997945,,,,,,,,11019,001,2024_Jan_05_0947,gonogo_S,2021.2.3,60.12972387406447,
go,square.png,space,1155,1.155,1.655,0,16,16,0,,,,,,,,,,,,,,,,,,,,,,,,,67.69310210004915,68.19418200000655,68.17777609999757,69.3465312999906,space,1,67.69310210004915,67.69310210004915,0.4749454000266269,,,,,,,11019,001,2024_Jan_05_0947,gonogo_S,2021.2.3,60.12972387406447,
nogo,triangle.png,None,1366,1.366,1.866,0,17,17,57,,,,,,,,,,,,,,,,,,,,,,,,,69.36246850003954,69.86370760004502,69.84714000008535,71.2163348000031,None,1,69.36246850003954,69.36246850003954,,,,,,,,11019,001,2024_Jan_05_0947,gonogo_S,2021.2.3,60.12972387406447,
nogo,triangle.png,None,1771,1.771,2.271,0,18,18,1,,,,,,,,,,,,,,,,,,,,,,,,,71.23175450006966,71.73245380003937,71.71586670004763,73.5018662000075,None,1,71.23175450006966,71.23175450006966,,,,,,,,11019,001,2024_Jan_05_0947,gonogo_S,2021.2.3,60.12972387406447,
go,square.png,space,1900,1.9,2.4,0,19,19,52,,,,,,,,,,,,,,,,,,,,,,,,,73.51827140001114,74.01919240003917,74.00260630005505,75.90624669997487,space,1,73.51827140001114,73.51827140001114,0.36217010009568185,,,,,,,11019,001,2024_Jan_05_0947,gonogo_S,2021.2.3,60.12972387406447,
go,square.png,space,1663,1.663,2.1630000000000003,0,20,20,7,,,,,,,,,,,,,,,,,,,,,,,,,75.92239730001893,76.42277350008953,76.40611950005405,78.07515210006386,space,1,75.92239730001893,75.92239730001893,0.5016548000276089,,,,,,,11019,001,2024_Jan_05_0947,gonogo_S,2021.2.3,60.12972387406447,
go,square.png,space,1227,1.227,1.727,0,21,21,34,,,,,,,,,,,,,,,,,,,,,,,,,78.09204410004895,78.59255850000773,78.57578289997764,79.8113280000398,space,1,78.09204410004895,78.09204410004895,0.4680190000217408,,,,,,,11019,001,2024_Jan_05_0947,gonogo_S,2021.2.3,60.12972387406447,
go,square.png,space,1857,1.857,2.357,0,22,22,2,,,,,,,,,,,,,,,,,,,,,,,,,79.8276804999914,80.3289805999957,80.31298779998906,82.18220040004235,space,1,79.8276804999914,79.8276804999914,0.33237540000118315,,,,,,,11019,001,2024_Jan_05_0947,gonogo_S,2021.2.3,60.12972387406447,
nogo,triangle.png,None,1569,1.569,2.069,0,23,23,45,,,,,,,,,,,,,,,,,,,,,,,,,82.19913490000181,82.69845660007559,82.6818797000451,84.25160600000527,None,1,82.19913490000181,82.19913490000181,,,,,,,,11019,001,2024_Jan_05_0947,gonogo_S,2021.2.3,60.12972387406447,
nogo,triangle.png,None,1939,1.939,2.439,0,24,24,65,,,,,,,,,,,,,,,,,,,,,,,,,84.26761189999525,84.76834910002071,84.75237730005756,86.70485440001357,None,1,84.26761189999525,84.26761189999525,,,,,,,,11019,001,2024_Jan_05_0947,gonogo_S,2021.2.3,60.12972387406447,
go,square.png,space,1125,1.125,1.625,0,25,25,90,,,,,,,,,,,,,,,,,,,,,,,,,86.72195600008126,87.22197180008516,87.20535020006355,88.34037089999765,space,1,86.72195600008126,86.72195600008126,0.39010229997802526,,,,,,,11019,001,2024_Jan_05_0947,gonogo_S,2021.2.3,60.12972387406447,
go,square.png,space,1513,1.513,2.013,0,26,26,8,,,,,,,,,,,,,,,,,,,,,,,,,88.35804580000695,88.85815470002126,88.84104640001897,90.3607785999775,space,1,88.35804580000695,88.35804580000695,0.43474409996997565,,,,,,,11019,001,2024_Jan_05_0947,gonogo_S,2021.2.3,60.12972387406447,
go,square.png,space,1084,1.084,1.584,0,27,27,95,,,,,,,,,,,,,,,,,,,,,,,,,90.37684819998685,90.8780680000782,90.86145920003764,91.94596220005769,space,1,90.37684819998685,90.37684819998685,0.2633934000041336,,,,,,,11019,001,2024_Jan_05_0947,gonogo_S,2021.2.3,60.12972387406447,
nogo,triangle.png,None,1577,1.577,2.077,0,28,28,89,,,,,,,,,,,,,,,,,,,,,,,,,91.96228820004035,92.46368950000033,92.44639360008296,94.03221810003743,space,0,91.96228820004035,91.96228820004035,0.2777248000493273,,,,,,,11019,001,2024_Jan_05_0947,gonogo_S,2021.2.3,60.12972387406447,
go,square.png,space,1054,1.054,1.554,0,29,29,39,,,,,,,,,,,,,,,,,,,,,,,,,94.0488051000284,94.54965830000583,94.53282000008039,None,space,1,94.0488051000284,94.0488051000284,0.4312252000672743,,,,,,,11019,001,2024_Jan_05_0947,gonogo_S,2021.2.3,60.12972387406447,
go,square.png,space,1044,1.044,1.544,0,30,30,92,,,,,,,,,,,,,,,,,,,,,,,,,95.60096210008487,96.10161750006955,96.08492220006883,97.13727509998716,space,1,95.60096210008487,95.60096210008487,0.5350578000070527,,,,,,,11019,001,2024_Jan_05_0947,gonogo_S,2021.2.3,60.12972387406447,
nogo,triangle.png,None,1867,1.867,2.367,0,31,31,33,,,,,,,,,,,,,,,,,,,,,,,,,97.15405310003553,97.65544760006014,97.6375322000822,99.50763870007358,None,1,97.15405310003553,97.15405310003553,,,,,,,,11019,001,2024_Jan_05_0947,gonogo_S,2021.2.3,60.12972387406447,
go,square.png,space,1160,1.16,1.66,0,32,32,48,,,,,,,,,,,,,,,,,,,,,,,,,99.52379180002026,100.02424749999773,100.00865390000399,101.17599080002401,space,1,99.52379180002026,99.52379180002026,0.35619140008930117,,,,,,,11019,001,2024_Jan_05_0947,gonogo_S,2021.2.3,60.12972387406447,
go,square.png,space,1503,1.503,2.003,0,33,33,79,,,,,,,,,,,,,,,,,,,,,,,,,101.19275659997948,101.693477599998,101.6774538999889,None,space,1,101.19275659997948,101.19275659997948,0.37539709999691695,,,,,,,11019,001,2024_Jan_05_0947,gonogo_S,2021.2.3,60.12972387406447,
go,square.png,space,1230,1.23,1.73,0,34,34,35,,,,,,,,,,,,,,,,,,,,,,,,,103.19578080007341,103.69648909999523,103.67992170003708,104.91503290005494,space,1,103.19578080007341,103.19578080007341,0.4045719000278041,,,,,,,11019,001,2024_Jan_05_0947,gonogo_S,2021.2.3,60.12972387406447,
go,square.png,space,1462,1.462,1.962,0,35,35,72,,,,,,,,,,,,,,,,,,,,,,,,,104.93147860001773,105.4332362000132,105.41561490006279,106.88549870008137,space,1,104.93147860001773,104.93147860001773,0.2686152000678703,,,,,,,11019,001,2024_Jan_05_0947,gonogo_S,2021.2.3,60.12972387406447,
go,square.png,space,1121,1.121,1.621,0,36,36,22,,,,,,,,,,,,,,,,,,,,,,,,,106.90087850007694,107.40203910006676,107.3851752000628,108.52085570001509,space,1,106.90087850007694,106.90087850007694,0.38725719996728003,,,,,,,11019,001,2024_Jan_05_0947,gonogo_S,2021.2.3,60.12972387406447,
go,square.png,space,1821,1.821,2.3209999999999997,0,37,37,58,,,,,,,,,,,,,,,,,,,,,,,,,108.53683710005134,109.03801120002754,109.02135310007725,110.85691650002263,space,1,108.53683710005134,108.53683710005134,0.36744579998776317,,,,,,,11019,001,2024_Jan_05_0947,gonogo_S,2021.2.3,60.12972387406447,
nogo,triangle.png,None,1273,1.273,1.773,0,38,38,5,,,,,,,,,,,,,,,,,,,,,,,,,110.87373210000806,111.37577600008808,111.35776450007688,112.64308449998498,space,0,110.87373210000806,110.87373210000806,0.28649830003269017,,,,,,,11019,001,2024_Jan_05_0947,gonogo_S,2021.2.3,60.12972387406447,
nogo,triangle.png,None,1542,1.542,2.042,0,39,39,21,,,,,,,,,,,,,,,,,,,,,,,,,112.66037390008569,113.1611314000329,113.14385660004336,114.696343800053,None,1,112.66037390008569,112.66037390008569,,,,,,,,11019,001,2024_Jan_05_0947,gonogo_S,2021.2.3,60.12972387406447,
nogo,triangle.png,None,1683,1.683,2.183,0,40,40,29,,,,,,,,,,,,,,,,,,,,,,,,,114.71310579997953,115.21332280000206,115.19669870007783,116.88264620001428,None,1,114.71310579997953,114.71310579997953,,,,,,,,11019,001,2024_Jan_05_0947,gonogo_S,2021.2.3,60.12972387406447,
go,square.png,space,1849,1.849,2.349,0,41,41,91,,,,,,,,,,,,,,,,,,,,,,,,,116.89927000005264,117.40004640002735,117.38328200008254,119.23706509999465,space,1,116.89927000005264,116.89927000005264,0.42921480000950396,,,,,,,11019,001,2024_Jan_05_0947,gonogo_S,2021.2.3,60.12972387406447,
nogo,triangle.png,None,1790,1.79,2.29,0,42,42,93,,,,,,,,,,,,,,,,,,,,,,,,,119.25306390004698,119.75347540003713,119.73710859997664,121.54024140001275,None,1,119.25306390004698,119.25306390004698,,,,,,,,11019,001,2024_Jan_05_0947,gonogo_S,2021.2.3,60.12972387406447,
go,square.png,space,1209,1.209,1.709,0,43,43,10,,,,,,,,,,,,,,,,,,,,,,,,,121.55718840006739,122.05714330007322,122.04030800005421,123.2598399000708,space,1,121.55718840006739,121.55718840006739,0.4670180999673903,,,,,,,11019,001,2024_Jan_05_0947,gonogo_S,2021.2.3,60.12972387406447,
nogo,triangle.png,None,1559,1.559,2.059,0,44,44,61,,,,,,,,,,,,,,,,,,,,,,,,,123.2754108000081,123.77604230004363,123.75963830004912,125.32841020007618,None,1,123.2754108000081,123.2754108000081,,,,,,,,11019,001,2024_Jan_05_0947,gonogo_S,2021.2.3,60.12972387406447,
go,square.png,space,1520,1.52,2.02,0,45,45,32,,,,,,,,,,,,,,,,,,,,,,,,,125.34520270000212,125.84622920001857,125.82945740001742,None,space,1,125.34520270000212,125.34520270000212,0.29488479997962713,,,,,,,11019,001,2024_Jan_05_0947,gonogo_S,2021.2.3,60.12972387406447,
go,square.png,space,1865,1.865,2.365,0,46,46,75,,,,,,,,,,,,,,,,,,,,,,,,,127.36535320000257,127.86807870003395,127.8488996999804,129.71914390008897,space,1,127.36535320000257,127.36535320000257,0.379484299919568,,,,,,,11019,001,2024_Jan_05_0947,gonogo_S,2021.2.3,60.12972387406447,
go,square.png,space,1194,1.194,1.694,0,47,47,26,,,,,,,,,,,,,,,,,,,,,,,,,129.73523690004367,130.2363654000219,130.2189754000865,131.42146740003955,space,1,129.73523690004367,129.73523690004367,0.32086810003966093,,,,,,,11019,001,2024_Jan_05_0947,gonogo_S,2021.2.3,60.12972387406447,
go,square.png,space,1899,1.899,2.399,0,48,48,55,,,,,,,,,,,,,,,,,,,,,,,,,131.43857080000453,131.93835940002464,131.9215683999937,133.8247577000875,space,1,131.43857080000453,131.43857080000453,0.329683699994348,,,,,,,11019,001,2024_Jan_05_0947,gonogo_S,2021.2.3,60.12972387406447,
go,square.png,space,1240,1.24,1.74,0,49,49,86,,,,,,,,,,,,,,,,,,,,,,,,,133.8411462000804,134.34192700008862,134.3278808000032,135.57879130006768,space,1,133.8411462000804,133.8411462000804,0.37498790002427995,,,,,,,11019,001,2024_Jan_05_0947,gonogo_S,2021.2.3,60.12972387406447,
nogo,triangle.png,None,1190,1.19,1.69,0,50,50,53,,,,,,,,,,,,,,,,,,,,,,,,,135.593667200068,136.0953350000782,136.07816969999112,137.2795308000641,None,1,135.593667200068,135.593667200068,,,,,,,,11019,001,2024_Jan_05_0947,gonogo_S,2021.2.3,60.12972387406447,
nogo,triangle.png,None,1218,1.218,1.718,0,51,51,25,,,,,,,,,,,,,,,,,,,,,,,,,137.2963162000524,137.7975147999823,137.78122280002572,138.99895670008846,None,1,137.2963162000524,137.2963162000524,,,,,,,,11019,001,2024_Jan_05_0947,gonogo_S,2021.2.3,60.12972387406447,
nogo,triangle.png,None,1317,1.317,1.817,0,52,52,85,,,,,,,,,,,,,,,,,,,,,,,,,139.01568479998969,139.51651079999283,139.50019270007033,140.81901019997895,None,1,139.01568479998969,139.01568479998969,,,,,,,,11019,001,2024_Jan_05_0947,gonogo_S,2021.2.3,60.12972387406447,
go,square.png,space,1297,1.297,1.797,0,53,53,56,,,,,,,,,,,,,,,,,,,,,,,,,140.83479330001865,141.3361030999804,141.31934749998618,142.6216167000821,space,1,140.83479330001865,140.83479330001865,0.34938930009957403,,,,,,,11019,001,2024_Jan_05_0947,gonogo_S,2021.2.3,60.12972387406447,
go,square.png,space,1503,1.503,2.003,0,54,54,78,,,,,,,,,,,,,,,,,,,,,,,,,142.63757430005353,143.13827080000192,143.12233550008386,None,space,1,142.63757430005353,142.63757430005353,0.3946828000480309,,,,,,,11019,001,2024_Jan_05_0947,gonogo_S,2021.2.3,60.12972387406447,
go,square.png,space,1361,1.361,1.861,0,55,55,67,,,,,,,,,,,,,,,,,,,,,,,,,144.6410092000151,145.14116660004947,145.12440690002404,146.49329550005496,space,1,144.6410092000151,144.6410092000151,0.3192966999486089,,,,,,,11019,001,2024_Jan_05_0947,gonogo_S,2021.2.3,60.12972387406447,
go,square.png,space,1822,1.822,2.322,0,56,56,60,,,,,,,,,,,,,,,,,,,,,,,,,146.5104647000553,147.01061290001962,146.9939492000267,148.830555499997,space,1,146.5104647000553,146.5104647000553,0.3701227999990806,,,,,,,11019,001,2024_Jan_05_0947,gonogo_S,2021.2.3,60.12972387406447,
nogo,triangle.png,None,1325,1.325,1.825,0,57,57,17,,,,,,,,,,,,,,,,,,,,,,,,,148.8471978000598,149.34856900002342,149.33082500007004,150.66640420001931,None,1,148.8471978000598,148.8471978000598,,,,,,,,11019,001,2024_Jan_05_0947,gonogo_S,2021.2.3,60.12972387406447,
nogo,triangle.png,None,1629,1.629,2.129,0,58,58,73,,,,,,,,,,,,,,,,,,,,,,,,,150.6831133000087,151.18343660002574,151.16684530000202,152.80278859997634,None,1,150.6831133000087,150.6831133000087,,,,,,,,11019,001,2024_Jan_05_0947,gonogo_S,2021.2.3,60.12972387406447,
go,square.png,space,1057,1.057,1.557,0,59,59,40,,,,,,,,,,,,,,,,,,,,,,,,,152.81915950006805,153.32044819998555,153.30358579999302,154.3742691000225,space,1,152.81915950006805,152.81915950006805,0.47700700000859797,,,,,,,11019,001,2024_Jan_05_0947,gonogo_S,2021.2.3,60.12972387406447,
go,square.png,space,1745,1.745,2.245,0,60,60,38,,,,,,,,,,,,,,,,,,,,,,,,,154.3884178000735,154.88949039997533,154.87224599998444,156.62700830004178,space,1,154.3884178000735,154.3884178000735,0.507617500028573,,,,,,,11019,001,2024_Jan_05_0947,gonogo_S,2021.2.3,60.12972387406447,
nogo,triangle.png,None,1909,1.909,2.409,0,61,61,9,,,,,,,,,,,,,,,,,,,,,,,,,156.64147540007252,157.14251620008145,157.1262600000482,159.04503849998582,None,1,156.64147540007252,156.64147540007252,,,,,,,,11019,001,2024_Jan_05_0947,gonogo_S,2021.2.3,60.12972387406447,
go,square.png,space,1940,1.94,2.44,0,62,62,47,,,,,,,,,,,,,,,,,,,,,,,,,159.06281889998354,159.56320259999484,159.54589379997924,161.4988369999919,space,1,159.06281889998354,159.06281889998354,0.42540129995904863,,,,,,,11019,001,2024_Jan_05_0947,gonogo_S,2021.2.3,60.12972387406447,
go,square.png,space,1136,1.136,1.636,0,63,63,43,,,,,,,,,,,,,,,,,,,,,,,,,161.51546120003331,162.0163484000368,161.9995201000711,None,space,1,161.51546120003331,161.51546120003331,0.3651466000592336,,,,,,,11019,001,2024_Jan_05_0947,gonogo_S,2021.2.3,60.12972387406447,
go,square.png,space,1780,1.78,2.2800000000000002,0,64,64,18,,,,,,,,,,,,,,,,,,,,,,,,,163.15190360008273,163.6517968000844,163.63593600003514,165.42113760008942,space,1,163.15190360008273,163.15190360008273,0.4012796999886632,,,,,,,11019,001,2024_Jan_05_0947,gonogo_S,2021.2.3,60.12972387406447,
go,square.png,space,1889,1.889,2.3890000000000002,0,65,65,15,,,,,,,,,,,,,,,,,,,,,,,,,165.43792749999557,165.9387429000344,165.92202900000848,167.82586650003213,space,1,165.43792749999557,165.43792749999557,0.3304820000194013,,,,,,,11019,001,2024_Jan_05_0947,gonogo_S,2021.2.3,60.12972387406447,
nogo,triangle.png,None,1384,1.384,1.884,0,66,66,77,,,,,,,,,,,,,,,,,,,,,,,,,167.84160280006472,168.34253880009055,168.32613010006025,169.7122459000675,None,1,167.84160280006472,167.84160280006472,,,,,,,,11019,001,2024_Jan_05_0947,gonogo_S,2021.2.3,60.12972387406447,
go,square.png,space,1387,1.387,1.887,0,67,67,66,,,,,,,,,,,,,,,,,,,,,,,,,169.72756889997981,170.22878430003766,170.21269379998557,None,space,1,169.72756889997981,169.72756889997981,0.32054410001728684,,,,,,,11019,001,2024_Jan_05_0947,gonogo_S,2021.2.3,60.12972387406447,
go,square.png,space,1991,1.991,2.491,0,68,68,88,,,,,,,,,,,,,,,,,,,,,,,,,171.6138259000145,172.11504699999932,172.09795980004128,174.10072860005312,space,1,171.6138259000145,171.6138259000145,0.38653070002328604,,,,,,,11019,001,2024_Jan_05_0947,gonogo_S,2021.2.3,60.12972387406447,
go,square.png,space,1967,1.967,2.467,0,69,69,54,,,,,,,,,,,,,,,,,,,,,,,,,174.1178307000082,174.61855420004576,174.60142860002816,176.571295700036,space,1,174.1178307000082,174.1178307000082,0.3544904999434948,,,,,,,11019,001,2024_Jan_05_0947,gonogo_S,2021.2.3,60.12972387406447,
go,square.png,space,1513,1.513,2.013,0,70,70,31,,,,,,,,,,,,,,,,,,,,,,,,,176.58781850000378,177.0890548999887,177.07228169997688,178.5908691000659,space,1,176.58781850000378,176.58781850000378,0.3167596999555826,,,,,,,11019,001,2024_Jan_05_0947,gonogo_S,2021.2.3,60.12972387406447,
go,square.png,space,1806,1.806,2.306,0,71,71,63,,,,,,,,,,,,,,,,,,,,,,,,,178.6074084000429,179.1082247000886,179.09219060000032,180.91143370000646,space,1,178.6074084000429,178.6074084000429,0.321766100008972,,,,,,,11019,001,2024_Jan_05_0947,gonogo_S,2021.2.3,60.12972387406447,
go,square.png,space,1562,1.562,2.0620000000000003,0,72,72,46,,,,,,,,,,,,,,,,,,,,,,,,,180.92751180008054,181.42940880008973,181.41157400002703,182.98148000007495,space,1,180.92751180008054,180.92751180008054,0.329169699922204,,,,,,,11019,001,2024_Jan_05_0947,gonogo_S,2021.2.3,60.12972387406447,
go,square.png,space,1249,1.249,1.749,0,73,73,71,,,,,,,,,,,,,,,,,,,,,,,,,182.99792590003926,183.49863520008512,183.48121970007196,184.73430240002926,space,1,182.99792590003926,182.99792590003926,0.3707101000472903,,,,,,,11019,001,2024_Jan_05_0947,gonogo_S,2021.2.3,60.12972387406447,
go,square.png,space,1420,1.42,1.92,0,74,74,6,,,,,,,,,,,,,,,,,,,,,,,,,184.7501560000237,185.25182110001333,185.2361159999855,None,space,1,184.7501560000237,184.7501560000237,0.8422256000339985,,,,,,,11019,001,2024_Jan_05_0947,gonogo_S,2021.2.3,60.12972387406447,
go,square.png,space,1670,1.67,2.17,0,75,75,94,,,,,,,,,,,,,,,,,,,,,,,,,186.66945350007154,187.17026929999702,187.15389800001867,186.66945350007154,space,1,186.66945350007154,186.66945350007154,0.43488499999511987,,,,,,,11019,001,2024_Jan_05_0947,gonogo_S,2021.2.3,60.12972387406447,
nogo,triangle.png,None,1924,1.924,2.424,0,76,76,13,,,,,,,,,,,,,,,,,,,,,,,,,188.83988240000326,189.34002560004592,189.3245307999896,191.25950490008108,None,1,188.83988240000326,188.83988240000326,,,,,,,,11019,001,2024_Jan_05_0947,gonogo_S,2021.2.3,60.12972387406447,
go,square.png,space,1110,1.11,1.61,0,77,77,76,,,,,,,,,,,,,,,,,,,,,,,,,191.27613410004415,191.77709009998944,191.7604303000262,192.87902170000598,space,1,191.27613410004415,191.27613410004415,0.40438690001610667,,,,,,,11019,001,2024_Jan_05_0947,gonogo_S,2021.2.3,60.12972387406447,
nogo,triangle.png,None,1144,1.144,1.644,0,78,78,41,,,,,,,,,,,,,,,,,,,,,,,,,192.89591630001087,193.39676110004075,193.3796594000887,194.53130140004214,None,1,192.89591630001087,192.89591630001087,,,,,,,,11019,001,2024_Jan_05_0947,gonogo_S,2021.2.3,60.12972387406447,
go,square.png,space,1776,1.776,2.276,0,79,79,14,,,,,,,,,,,,,,,,,,,,,,,,,194.54861170006916,195.04861940001138,195.0318439999828,196.8186471000081,space,1,194.54861170006916,194.54861170006916,0.2852572000119835,,,,,,,11019,001,2024_Jan_05_0947,gonogo_S,2021.2.3,60.12972387406447,
go,square.png,space,1672,1.672,2.1719999999999997,0,80,80,84,,,,,,,,,,,,,,,,,,,,,,,,,196.83525950007606,197.3350387000246,197.31922310008667,199.00633350003045,space,1,196.83525950007606,196.83525950007606,0.30097440001554787,,,,,,,11019,001,2024_Jan_05_0947,gonogo_S,2021.2.3,60.12972387406447,
go,square.png,space,1111,1.111,1.611,0,81,81,24,,,,,,,,,,,,,,,,,,,,,,,,,199.02099730004556,199.52178519999143,199.50576810003258,200.62337759998627,space,1,199.02099730004556,199.02099730004556,0.3799671999877319,,,,,,,11019,001,2024_Jan_05_0947,gonogo_S,2021.2.3,60.12972387406447,
nogo,triangle.png,None,1659,1.659,2.159,0,82,82,49,,,,,,,,,,,,,,,,,,,,,,,,,200.64034080004785,201.14148860005662,201.1247683999827,202.79326379997656,space,0,200.64034080004785,200.64034080004785,0.34416029998101294,,,,,,,11019,001,2024_Jan_05_0947,gonogo_S,2021.2.3,60.12972387406447,
go,square.png,space,1731,1.731,2.231,0,83,83,42,,,,,,,,,,,,,,,,,,,,,,,,,202.81093969999347,203.31138430000283,203.29482240008656,205.0298436000012,space,1,202.81093969999347,202.81093969999347,0.5254879000131041,,,,,,,11019,001,2024_Jan_05_0947,gonogo_S,2021.2.3,60.12972387406447,
nogo,triangle.png,None,1118,1.118,1.618,0,84,84,69,,,,,,,,,,,,,,,,,,,,,,,,,205.04644120007288,205.5474357000785,205.53074489999563,206.6490393000422,None,1,205.04644120007288,205.04644120007288,,,,,,,,11019,001,2024_Jan_05_0947,gonogo_S,2021.2.3,60.12972387406447,
go,square.png,space,1069,1.069,1.569,0,85,85,20,,,,,,,,,,,,,,,,,,,,,,,,,206.6655802000314,207.16676270007156,207.14970870001707,208.2181067999918,space,1,206.6655802000314,206.6655802000314,0.4065829000901431,,,,,,,11019,001,2024_Jan_05_0947,gonogo_S,2021.2.3,60.12972387406447,
go,square.png,space,1190,1.19,1.69,0,86,86,16,,,,,,,,,,,,,,,,,,,,,,,,,208.23490420007147,208.73542869999073,208.71946779999416,209.92058959999122,space,1,208.23490420007147,208.23490420007147,0.4693437999812886,,,,,,,11019,001,2024_Jan_05_0947,gonogo_S,2021.2.3,60.12972387406447,
go,square.png,space,1331,1.331,1.831,0,87,87,27,,,,,,,,,,,,,,,,,,,,,,,,,209.93727200001013,210.43861610000022,210.42194300005212,211.75669010006823,space,1,209.93727200001013,209.93727200001013,0.4149794999975711,,,,,,,11019,001,2024_Jan_05_0947,gonogo_S,2021.2.3,60.12972387406447,
go,square.png,space,1546,1.546,2.0460000000000003,0,88,88,68,,,,,,,,,,,,,,,,,,,,,,,,,211.77333590004127,212.27455680002458,212.25732880004216,213.81036750006024,space,1,211.77333590004127,211.77333590004127,0.36324510001577437,,,,,,,11019,001,2024_Jan_05_0947,gonogo_S,2021.2.3,60.12972387406447,
go,square.png,space,1148,1.148,1.648,0,89,89,4,,,,,,,,,,,,,,,,,,,,,,,,,213.82697280007415,214.3271411000751,214.31089120008983,215.4627763000317,space,1,213.82697280007415,213.82697280007415,0.35719800007063895,,,,,,,11019,001,2024_Jan_05_0947,gonogo_S,2021.2.3,60.12972387406447,
go,square.png,space,1973,1.973,2.473,0,90,90,44,,,,,,,,,,,,,,,,,,,,,,,,,215.478768400033,215.97956290002912,215.9643901999807,None,space,1,215.478768400033,215.478768400033,0.2974875000072643,,,,,,,11019,001,2024_Jan_05_0947,gonogo_S,2021.2.3,60.12972387406447,
go,square.png,space,1843,1.843,2.343,0,91,91,64,,,,,,,,,,,,,,,,,,,,,,,,,217.94984260003548,218.44981840008404,218.43356200004928,220.28575380006805,space,1,217.94984260003548,217.94984260003548,0.25831940001808107,,,,,,,11019,001,2024_Jan_05_0947,gonogo_S,2021.2.3,60.12972387406447,
go,square.png,space,1552,1.552,2.052,0,92,92,59,,,,,,,,,,,,,,,,,,,,,,,,,220.30245359998662,220.80357270000968,220.78636909998022,222.33895240002312,space,1,220.30245359998662,220.30245359998662,0.37775270000565797,,,,,,,11019,001,2024_Jan_05_0947,gonogo_S,2021.2.3,60.12972387406447,
go,square.png,space,1189,1.189,1.689,0,93,93,11,,,,,,,,,,,,,,,,,,,,,,,,,222.35560300003272,222.85620360006578,222.83943220006768,224.04143700003624,space,1,222.35560300003272,222.35560300003272,0.3086929999990389,,,,,,,11019,001,2024_Jan_05_0947,gonogo_S,2021.2.3,60.12972387406447,
go,square.png,space,1428,1.428,1.928,0,94,94,62,,,,,,,,,,,,,,,,,,,,,,,,,224.05815430008806,224.55962259997614,224.5422490000492,225.9792639000807,space,1,224.05815430008806,224.05815430008806,0.3344047999707982,,,,,,,11019,001,2024_Jan_05_0947,gonogo_S,2021.2.3,60.12972387406447,
go,square.png,space,1899,1.899,2.399,0,95,95,28,,,,,,,,,,,,,,,,,,,,,,,,,225.99416440003552,226.49508650007192,226.4783970999997,228.38345690001734,space,1,225.99416440003552,225.99416440003552,0.38235770002938807,,,,,,,11019,001,2024_Jan_05_0947,gonogo_S,2021.2.3,60.12972387406447,
,,,,,,,,,,,,,,,,,,,,,,,,,,,,,,,,,,,,,,,,,,,228.39888320001774,None,space,2.2503885999321938,228.39888320001774,None,11019,001,2024_Jan_05_0947,gonogo_S,2021.2.3,60.12972387406447,
