TrialType,Path,Correct,ms,s,ks,trials_4.thisRepN,trials_4.thisTrialN,trials_4.thisN,trials_4.thisIndex,welcome.started,welcome.stopped,space.started,space.stopped,key_resp.keys,key_resp.rt,key_resp.started,key_resp.stopped,Fixwarn.started,Fixwarn.stopped,table.started,table.stopped,key_resp__0.keys,key_resp__0.rt,key_resp__0.started,key_resp__0.stopped,type.started,type.stopped,space_3.started,space_3.stopped,key_resp_6.keys,key_resp_6.rt,key_resp_6.started,key_resp_6.stopped,stim_2.started,stim_2.stopped,text_2.started,text_2.stopped,key_resp_9.keys,key_resp_9.corr,key_resp_9.rt,key_resp_9.started,key_resp_9.stopped,END.started,END.stopped,key_resp_2.keys,key_resp_2.rt,key_resp_2.started,key_resp_2.stopped,participant,session,date,expName,psychopyVersion,frameRate,
,,,,,,,,,,9.263603999977931,None,9.263603999977931,None,space,22.896985200000927,9.263603999977931,None,,,,,,,,,,,,,,,,,,,,,,,,,,,,,,,,11024,001,2024_Jan_07_1130,gonogo_S,2021.2.3,60.137787684179614,
,,,,,,,,,,,,,,,,,,32.18071859993506,None,32.18071859993506,None,space,1.9077943000011146,32.18071859993506,None,,,,,,,,,,,,,,,,,,,,,,,,11024,001,2024_Jan_07_1130,gonogo_S,2021.2.3,60.137787684179614,
,,,,,,,,,,,,,,,,,,,,,,,,,,34.13426309998613,None,34.13426309998613,None,space,2.5229801000095904,34.13426309998613,None,,,,,,,,,,,,,,,,11024,001,2024_Jan_07_1130,gonogo_S,2021.2.3,60.137787684179614,
go,square.png,space,1821,1.821,2.3209999999999997,0,0,0,58,,,,,,,,,,,,,,,,,,,,,,,,,36.75428869994357,37.255417899927124,37.23881259991322,None,space,1,0.7743077001068741,36.75428869994357,None,,,,,,,11024,001,2024_Jan_07_1130,gonogo_S,2021.2.3,60.137787684179614,
go,square.png,space,1564,1.564,2.064,0,1,1,82,,,,,,,,,,,,,,,,,,,,,,,,,39.07435729994904,39.57669829996303,39.55939980002586,41.128196500008926,space,1,0.42214520007837564,39.07435729994904,39.07435729994904,,,,,,,11024,001,2024_Jan_07_1130,gonogo_S,2021.2.3,60.137787684179614,
nogo,triangle.png,None,1924,1.924,2.424,0,2,2,13,,,,,,,,,,,,,,,,,,,,,,,,,41.14419739996083,41.64562909991946,41.629022100009024,43.56509339995682,None,1,,41.14419739996083,41.14419739996083,,,,,,,11024,001,2024_Jan_07_1130,gonogo_S,2021.2.3,60.137787684179614,
nogo,triangle.png,None,1577,1.577,2.077,0,3,3,89,,,,,,,,,,,,,,,,,,,,,,,,,43.581606399966404,44.0819072999293,44.06513310002629,45.651004799990915,None,1,,43.581606399966404,43.581606399966404,,,,,,,11024,001,2024_Jan_07_1130,gonogo_S,2021.2.3,60.137787684179614,
go,square.png,space,1865,1.865,2.365,0,4,4,75,,,,,,,,,,,,,,,,,,,,,,,,,45.66753650002647,46.168879200005904,46.152212999993935,48.022854699986055,space,1,0.3567994999466464,45.66753650002647,45.66753650002647,,,,,,,11024,001,2024_Jan_07_1130,gonogo_S,2021.2.3,60.137787684179614,
go,square.png,space,1899,1.899,2.399,0,5,5,55,,,,,,,,,,,,,,,,,,,,,,,,,48.0375518000219,48.539051199913956,48.52258230000734,50.425622900016606,space,1,0.32300089998170733,48.0375518000219,48.0375518000219,,,,,,,11024,001,2024_Jan_07_1130,gonogo_S,2021.2.3,60.137787684179614,
go,square.png,space,1420,1.42,1.92,0,6,6,6,,,,,,,,,,,,,,,,,,,,,,,,,50.44126479991246,50.94270429993048,50.92589459998999,52.34424130001571,space,1,0.41563409997615963,50.44126479991246,50.44126479991246,,,,,,,11024,001,2024_Jan_07_1130,gonogo_S,2021.2.3,60.137787684179614,
go,square.png,space,1843,1.843,2.343,0,7,7,64,,,,,,,,,,,,,,,,,,,,,,,,,52.36114029993769,52.86148989992216,52.84471879992634,54.69831110001542,space,1,0.36805339995771646,52.36114029993769,52.36114029993769,,,,,,,11024,001,2024_Jan_07_1130,gonogo_S,2021.2.3,60.137787684179614,
go,square.png,space,1190,1.19,1.69,0,8,8,16,,,,,,,,,,,,,,,,,,,,,,,,,54.7147642999189,55.21563029999379,55.198957999935374,56.40088739991188,space,1,0.4462656000396237,54.7147642999189,54.7147642999189,,,,,,,11024,001,2024_Jan_07_1130,gonogo_S,2021.2.3,60.137787684179614,
go,square.png,space,1428,1.428,1.928,0,9,9,62,,,,,,,,,,,,,,,,,,,,,,,,,56.41758759994991,56.91828159999568,56.901364899938926,58.337326299981214,space,1,0.38360089994966984,56.41758759994991,56.41758759994991,,,,,,,11024,001,2024_Jan_07_1130,gonogo_S,2021.2.3,60.137787684179614,
go,square.png,space,1513,1.513,2.013,0,10,10,31,,,,,,,,,,,,,,,,,,,,,,,,,58.35335539991502,58.8546059000073,58.83693959994707,60.35636919992976,space,1,0.3838493999792263,58.35335539991502,58.35335539991502,,,,,,,11024,001,2024_Jan_07_1130,gonogo_S,2021.2.3,60.137787684179614,
go,square.png,space,1889,1.889,2.3890000000000002,0,11,11,15,,,,,,,,,,,,,,,,,,,,,,,,,60.373053499963135,60.873273200006224,60.857237400021404,62.76108029996976,space,1,0.35578750004060566,60.373053499963135,60.373053499963135,,,,,,,11024,001,2024_Jan_07_1130,gonogo_S,2021.2.3,60.137787684179614,
go,square.png,space,1057,1.057,1.557,0,12,12,40,,,,,,,,,,,,,,,,,,,,,,,,,62.77618759998586,63.27790530002676,63.26129489997402,64.32842629996594,space,1,0.3920993000501767,62.77618759998586,62.77618759998586,,,,,,,11024,001,2024_Jan_07_1130,gonogo_S,2021.2.3,60.137787684179614,
go,square.png,space,1209,1.209,1.709,0,13,13,10,,,,,,,,,,,,,,,,,,,,,,,,,64.34529189998284,64.84668329998385,64.83000409998931,66.04891589994077,space,1,0.36732990003656596,64.34529189998284,64.34529189998284,,,,,,,11024,001,2024_Jan_07_1130,gonogo_S,2021.2.3,60.137787684179614,
nogo,triangle.png,None,1450,1.45,1.95,0,14,14,37,,,,,,,,,,,,,,,,,,,,,,,,,66.064451299957,66.56565809994936,66.54909480002243,68.00139460002538,None,1,,66.064451299957,66.064451299957,,,,,,,11024,001,2024_Jan_07_1130,gonogo_S,2021.2.3,60.137787684179614,
nogo,triangle.png,None,1384,1.384,1.884,0,15,15,77,,,,,,,,,,,,,,,,,,,,,,,,,68.0172520999331,68.51888579991646,68.50221379997674,69.88797449995764,None,1,,68.0172520999331,68.0172520999331,,,,,,,11024,001,2024_Jan_07_1130,gonogo_S,2021.2.3,60.137787684179614,
go,square.png,space,1069,1.069,1.569,0,16,16,20,,,,,,,,,,,,,,,,,,,,,,,,,69.90347599994857,70.40471199993044,70.38860790000763,None,space,1,0.31336649996228516,69.90347599994857,69.90347599994857,,,,,,,11024,001,2024_Jan_07_1130,gonogo_S,2021.2.3,60.137787684179614,
nogo,triangle.png,None,1939,1.939,2.439,0,17,17,65,,,,,,,,,,,,,,,,,,,,,,,,,71.47250089992303,71.97415599995293,71.95709619997069,73.910279899952,None,1,,71.47250089992303,71.47250089992303,,,,,,,11024,001,2024_Jan_07_1130,gonogo_S,2021.2.3,60.137787684179614,
go,square.png,space,1991,1.991,2.491,0,18,18,88,,,,,,,,,,,,,,,,,,,,,,,,,73.92605799995363,74.42752109991852,74.41098359995522,76.4138122999575,space,1,0.36344790004659444,73.92605799995363,73.92605799995363,,,,,,,11024,001,2024_Jan_07_1130,gonogo_S,2021.2.3,60.137787684179614,
go,square.png,space,1513,1.513,2.013,0,19,19,8,,,,,,,,,,,,,,,,,,,,,,,,,76.43047109991312,76.93095049995463,76.91403270000592,78.43336869997438,space,1,0.3619216999504715,76.43047109991312,76.43047109991312,,,,,,,11024,001,2024_Jan_07_1130,gonogo_S,2021.2.3,60.137787684179614,
go,square.png,space,1900,1.9,2.4,0,20,20,52,,,,,,,,,,,,,,,,,,,,,,,,,78.45005729992408,78.95096469996497,78.93338019994553,80.83703289995901,space,1,0.42252499994356185,78.45005729992408,78.45005729992408,,,,,,,11024,001,2024_Jan_07_1130,gonogo_S,2021.2.3,60.137787684179614,
nogo,triangle.png,None,1273,1.273,1.773,0,21,21,5,,,,,,,,,,,,,,,,,,,,,,,,,80.85373520001303,81.35387440002523,81.3369855999481,82.62305139994714,None,1,,80.85373520001303,80.85373520001303,,,,,,,11024,001,2024_Jan_07_1130,gonogo_S,2021.2.3,60.137787684179614,
nogo,triangle.png,None,1325,1.325,1.825,0,22,22,17,,,,,,,,,,,,,,,,,,,,,,,,,82.63906119996682,83.1403271999443,83.12373170000501,84.45905740000308,None,1,,82.63906119996682,82.63906119996682,,,,,,,11024,001,2024_Jan_07_1130,gonogo_S,2021.2.3,60.137787684179614,
go,square.png,space,1150,1.15,1.65,0,23,23,19,,,,,,,,,,,,,,,,,,,,,,,,,84.47494769992772,84.97599289997015,84.95954640000127,86.11074689996894,space,1,0.29351699992548674,84.47494769992772,84.47494769992772,,,,,,,11024,001,2024_Jan_07_1130,gonogo_S,2021.2.3,60.137787684179614,
go,square.png,space,1437,1.437,1.937,0,24,24,50,,,,,,,,,,,,,,,,,,,,,,,,,86.12880730000325,86.62823429994751,86.61205390002578,None,space,1,0.44783219997771084,86.12880730000325,86.12880730000325,,,,,,,11024,001,2024_Jan_07_1130,gonogo_S,2021.2.3,60.137787684179614,
nogo,triangle.png,None,1366,1.366,1.866,0,25,25,57,,,,,,,,,,,,,,,,,,,,,,,,,88.06420299992897,88.56416690000333,88.55092369997874,89.91806339996401,None,1,,88.06420299992897,88.06420299992897,,,,,,,11024,001,2024_Jan_07_1130,gonogo_S,2021.2.3,60.137787684179614,
nogo,triangle.png,None,1569,1.569,2.069,0,26,26,45,,,,,,,,,,,,,,,,,,,,,,,,,89.93314380000811,90.43512439995538,90.41797319997568,91.98697410000023,None,1,,89.93314380000811,89.93314380000811,,,,,,,11024,001,2024_Jan_07_1130,gonogo_S,2021.2.3,60.137787684179614,
go,square.png,space,1155,1.155,1.655,0,27,27,0,,,,,,,,,,,,,,,,,,,,,,,,,92.00349879998248,92.5035937000066,92.48747849999927,93.65615519997664,space,1,0.34987110004294664,92.00349879998248,92.00349879998248,,,,,,,11024,001,2024_Jan_07_1130,gonogo_S,2021.2.3,60.137787684179614,
go,square.png,space,1546,1.546,2.0460000000000003,0,28,28,68,,,,,,,,,,,,,,,,,,,,,,,,,93.67304479994345,94.17274029995315,94.15674709994346,95.70960750000086,space,1,0.5115862999809906,93.67304479994345,93.67304479994345,,,,,,,11024,001,2024_Jan_07_1130,gonogo_S,2021.2.3,60.137787684179614,
go,square.png,space,1731,1.731,2.231,0,29,29,42,,,,,,,,,,,,,,,,,,,,,,,,,95.7258232999593,96.22648159996606,96.20980189996772,97.94600400002673,space,1,0.3151556000811979,95.7258232999593,95.7258232999593,,,,,,,11024,001,2024_Jan_07_1130,gonogo_S,2021.2.3,60.137787684179614,
go,square.png,space,1562,1.562,2.0620000000000003,0,30,30,46,,,,,,,,,,,,,,,,,,,,,,,,,97.96159670001362,98.46317499992438,98.44649110001046,100.01490629999898,space,1,0.33576359995640814,97.96159670001362,97.96159670001362,,,,,,,11024,001,2024_Jan_07_1130,gonogo_S,2021.2.3,60.137787684179614,
nogo,triangle.png,None,1867,1.867,2.367,0,31,31,33,,,,,,,,,,,,,,,,,,,,,,,,,100.03222209995147,100.53294549998827,100.51604999997653,102.38539870001841,None,1,,100.03222209995147,100.03222209995147,,,,,,,11024,001,2024_Jan_07_1130,gonogo_S,2021.2.3,60.137787684179614,
go,square.png,space,1670,1.67,2.17,0,32,32,94,,,,,,,,,,,,,,,,,,,,,,,,,102.40186520002317,102.9035250999732,102.88563709997106,104.55759240000043,space,1,0.5026215999387205,102.40186520002317,102.40186520002317,,,,,,,11024,001,2024_Jan_07_1130,gonogo_S,2021.2.3,60.137787684179614,
nogo,triangle.png,None,1218,1.218,1.718,0,33,33,25,,,,,,,,,,,,,,,,,,,,,,,,,104.57133529998828,105.07322589994874,105.05617080000229,106.27467139996588,None,1,,104.57133529998828,104.57133529998828,,,,,,,11024,001,2024_Jan_07_1130,gonogo_S,2021.2.3,60.137787684179614,
nogo,triangle.png,None,1144,1.144,1.644,0,34,34,41,,,,,,,,,,,,,,,,,,,,,,,,,106.29156019992661,106.79205509996973,106.77546379994601,107.92714299994987,None,1,,106.29156019992661,106.29156019992661,,,,,,,11024,001,2024_Jan_07_1130,gonogo_S,2021.2.3,60.137787684179614,
nogo,triangle.png,None,1190,1.19,1.69,0,35,35,53,,,,,,,,,,,,,,,,,,,,,,,,,107.94314410001971,108.4438648999203,108.42746629996691,109.62891319999471,space,0,0.45761789998505265,107.94314410001971,107.94314410001971,,,,,,,11024,001,2024_Jan_07_1130,gonogo_S,2021.2.3,60.137787684179614,
go,square.png,space,1445,1.445,1.945,0,36,36,74,,,,,,,,,,,,,,,,,,,,,,,,,109.64688449993264,110.14700889994856,110.1304184999317,111.58262280002236,space,1,0.40953179995995015,109.64688449993264,109.64688449993264,,,,,,,11024,001,2024_Jan_07_1130,gonogo_S,2021.2.3,60.137787684179614,
go,square.png,space,1655,1.655,2.1550000000000002,0,37,37,36,,,,,,,,,,,,,,,,,,,,,,,,,111.59859119995963,112.09980039997026,112.08378520002589,113.75227669999003,space,1,0.5220981000456959,111.59859119995963,111.59859119995963,,,,,,,11024,001,2024_Jan_07_1130,gonogo_S,2021.2.3,60.137787684179614,
nogo,triangle.png,None,1317,1.317,1.817,0,38,38,85,,,,,,,,,,,,,,,,,,,,,,,,,113.76844549993984,114.27009100001305,114.25244630000088,115.57231309998315,None,1,,113.76844549993984,113.76844549993984,,,,,,,11024,001,2024_Jan_07_1130,gonogo_S,2021.2.3,60.137787684179614,
go,square.png,space,1975,1.975,2.475,0,39,39,87,,,,,,,,,,,,,,,,,,,,,,,,,115.58779759996105,116.08910009998363,116.07260680000763,118.05879609996919,space,1,0.501336200046353,115.58779759996105,115.58779759996105,,,,,,,11024,001,2024_Jan_07_1130,gonogo_S,2021.2.3,60.137787684179614,
go,square.png,space,1967,1.967,2.467,0,40,40,54,,,,,,,,,,,,,,,,,,,,,,,,,118.07550269993953,118.57603070000187,118.5597266999539,120.53036690002773,space,1,0.49318629992194474,118.07550269993953,118.07550269993953,,,,,,,11024,001,2024_Jan_07_1130,gonogo_S,2021.2.3,60.137787684179614,
nogo,triangle.png,None,1659,1.659,2.159,0,41,41,49,,,,,,,,,,,,,,,,,,,,,,,,,120.54497329995502,121.04570010001771,121.02927369996905,122.69826179998927,None,1,,120.54497329995502,120.54497329995502,,,,,,,11024,001,2024_Jan_07_1130,gonogo_S,2021.2.3,60.137787684179614,
go,square.png,space,1361,1.361,1.861,0,42,42,67,,,,,,,,,,,,,,,,,,,,,,,,,122.71616499999072,123.21645599999465,123.1997626000084,124.56917269993573,space,1,0.29259009996894747,122.71616499999072,122.71616499999072,,,,,,,11024,001,2024_Jan_07_1130,gonogo_S,2021.2.3,60.137787684179614,
go,square.png,space,1899,1.899,2.399,0,43,43,28,,,,,,,,,,,,,,,,,,,,,,,,,124.58438489993569,125.08566500002053,125.06945999991149,126.97196969995275,space,1,0.3443760999944061,124.58438489993569,124.58438489993569,,,,,,,11024,001,2024_Jan_07_1130,gonogo_S,2021.2.3,60.137787684179614,
go,square.png,space,1297,1.297,1.797,0,44,44,56,,,,,,,,,,,,,,,,,,,,,,,,,126.9886304999236,127.48875199991744,127.47301949991379,128.7741088999901,space,1,0.34004230005666614,126.9886304999236,126.9886304999236,,,,,,,11024,001,2024_Jan_07_1130,gonogo_S,2021.2.3,60.137787684179614,
go,square.png,space,1849,1.849,2.349,0,45,45,91,,,,,,,,,,,,,,,,,,,,,,,,,128.79075469996314,129.2913762999233,129.27535989996977,131.12857149995398,space,1,0.35367360000964254,128.79075469996314,128.79075469996314,,,,,,,11024,001,2024_Jan_07_1130,gonogo_S,2021.2.3,60.137787684179614,
go,square.png,space,1054,1.054,1.554,0,46,46,39,,,,,,,,,,,,,,,,,,,,,,,,,131.1450840999605,131.64490059996024,131.62826699996367,132.69860320002772,space,1,0.33533120003994554,131.1450840999605,131.1450840999605,,,,,,,11024,001,2024_Jan_07_1130,gonogo_S,2021.2.3,60.137787684179614,
go,square.png,space,1331,1.331,1.831,0,47,47,27,,,,,,,,,,,,,,,,,,,,,,,,,132.71405940002296,133.21380689996295,133.19747120002285,134.53257409995422,space,1,0.4312270999653265,132.71405940002296,132.71405940002296,,,,,,,11024,001,2024_Jan_07_1130,gonogo_S,2021.2.3,60.137787684179614,
go,square.png,space,1387,1.387,1.887,0,48,48,66,,,,,,,,,,,,,,,,,,,,,,,,,134.55015789996833,135.05058399995323,135.03384869999718,136.43589780002367,space,1,0.3706114999949932,134.55015789996833,134.55015789996833,,,,,,,11024,001,2024_Jan_07_1130,gonogo_S,2021.2.3,60.137787684179614,
go,square.png,space,1536,1.536,2.036,0,49,49,3,,,,,,,,,,,,,,,,,,,,,,,,,136.45226119994186,136.95275729999412,136.93606729991734,138.4727604999207,space,1,0.3402168999891728,136.45226119994186,136.45226119994186,,,,,,,11024,001,2024_Jan_07_1130,gonogo_S,2021.2.3,60.137787684179614,
nogo,triangle.png,None,1629,1.629,2.129,0,50,50,73,,,,,,,,,,,,,,,,,,,,,,,,,138.48952149995603,138.98929990001488,138.9729353999719,140.60978990001604,None,1,,138.48952149995603,138.48952149995603,,,,,,,11024,001,2024_Jan_07_1130,gonogo_S,2021.2.3,60.137787684179614,
go,square.png,space,1148,1.148,1.648,0,51,51,4,,,,,,,,,,,,,,,,,,,,,,,,,140.62515969993547,141.12618999998085,141.10956839995924,142.26098229992203,space,1,0.42321689997334033,140.62515969993547,140.62515969993547,,,,,,,11024,001,2024_Jan_07_1130,gonogo_S,2021.2.3,60.137787684179614,
go,square.png,space,1189,1.189,1.689,0,52,52,11,,,,,,,,,,,,,,,,,,,,,,,,,142.2773470999673,142.77812049991917,142.76138819998596,143.96295979991555,space,1,0.40316540002822876,142.2773470999673,142.2773470999673,,,,,,,11024,001,2024_Jan_07_1130,gonogo_S,2021.2.3,60.137787684179614,
go,square.png,space,1240,1.24,1.74,0,53,53,86,,,,,,,,,,,,,,,,,,,,,,,,,143.98042599996552,144.4813484000042,144.4646607999457,145.71621230000164,space,1,0.4121285000583157,143.98042599996552,143.98042599996552,,,,,,,11024,001,2024_Jan_07_1130,gonogo_S,2021.2.3,60.137787684179614,
go,square.png,space,1776,1.776,2.276,0,54,54,14,,,,,,,,,,,,,,,,,,,,,,,,,145.73299940000288,146.23386339994613,146.217139699962,148.00341989996377,space,1,0.39573039999231696,145.73299940000288,145.73299940000288,,,,,,,11024,001,2024_Jan_07_1130,gonogo_S,2021.2.3,60.137787684179614,
nogo,triangle.png,None,1436,1.436,1.936,0,55,55,81,,,,,,,,,,,,,,,,,,,,,,,,,148.02022900001612,148.5199314999627,148.50312789995223,149.939653599984,None,1,,148.02022900001612,148.02022900001612,,,,,,,11024,001,2024_Jan_07_1130,gonogo_S,2021.2.3,60.137787684179614,
go,square.png,space,1672,1.672,2.1719999999999997,0,56,56,84,,,,,,,,,,,,,,,,,,,,,,,,,149.9560363999335,150.45637259993237,150.44017840002198,152.12600519997068,space,1,0.3883987999288365,149.9560363999335,149.9560363999335,,,,,,,11024,001,2024_Jan_07_1130,gonogo_S,2021.2.3,60.137787684179614,
go,square.png,space,1940,1.94,2.44,0,57,57,47,,,,,,,,,,,,,,,,,,,,,,,,,152.14239429996815,152.64343379996717,152.6271049999632,154.57957549998537,space,1,0.4183800999308005,152.14239429996815,152.14239429996815,,,,,,,11024,001,2024_Jan_07_1130,gonogo_S,2021.2.3,60.137787684179614,
go,square.png,space,1890,1.89,2.3899999999999997,0,58,58,12,,,,,,,,,,,,,,,,,,,,,,,,,154.59616169997025,155.09718449995853,155.08046019996982,156.98319229995832,space,1,0.3649102000053972,154.59616169997025,154.59616169997025,,,,,,,11024,001,2024_Jan_07_1130,gonogo_S,2021.2.3,60.137787684179614,
go,square.png,space,1044,1.044,1.544,0,59,59,92,,,,,,,,,,,,,,,,,,,,,,,,,157.00006410002243,157.49986580002587,157.48354119993746,158.53669869992882,space,1,0.3924781000241637,157.00006410002243,157.00006410002243,,,,,,,11024,001,2024_Jan_07_1130,gonogo_S,2021.2.3,60.137787684179614,
go,square.png,space,1084,1.084,1.584,0,60,60,95,,,,,,,,,,,,,,,,,,,,,,,,,158.55248199997004,159.05295599997044,159.03627039992716,160.12143830000423,space,1,0.43294710002373904,158.55248199997004,158.55248199997004,,,,,,,11024,001,2024_Jan_07_1130,gonogo_S,2021.2.3,60.137787684179614,
go,square.png,space,1125,1.125,1.625,0,61,61,90,,,,,,,,,,,,,,,,,,,,,,,,,160.1381903999718,160.63859370001592,160.6218124999432,161.75707179994788,space,1,0.43060840002726763,160.1381903999718,160.1381903999718,,,,,,,11024,001,2024_Jan_07_1130,gonogo_S,2021.2.3,60.137787684179614,
go,square.png,space,1110,1.11,1.61,0,62,62,76,,,,,,,,,,,,,,,,,,,,,,,,,161.77394470002037,162.27354449999984,162.25735440000426,163.37603389995638,space,1,0.4108598999446258,161.77394470002037,161.77394470002037,,,,,,,11024,001,2024_Jan_07_1130,gonogo_S,2021.2.3,60.137787684179614,
go,square.png,space,1766,1.766,2.266,0,63,63,23,,,,,,,,,,,,,,,,,,,,,,,,,163.39260749996174,163.89281119999941,163.87656849995255,165.64664669998456,space,1,0.38440610002726316,163.39260749996174,163.39260749996174,,,,,,,11024,001,2024_Jan_07_1130,gonogo_S,2021.2.3,60.137787684179614,
nogo,triangle.png,None,1909,1.909,2.409,0,64,64,9,,,,,,,,,,,,,,,,,,,,,,,,,165.662050099927,166.16336759994738,166.14705079991836,168.066117499955,None,1,,165.662050099927,165.662050099927,,,,,,,11024,001,2024_Jan_07_1130,gonogo_S,2021.2.3,60.137787684179614,
go,square.png,space,1663,1.663,2.1630000000000003,0,65,65,7,,,,,,,,,,,,,,,,,,,,,,,,,168.08298479998484,168.58361869992223,168.5668664999539,170.23542629997246,space,1,0.28555360005702823,168.08298479998484,168.08298479998484,,,,,,,11024,001,2024_Jan_07_1130,gonogo_S,2021.2.3,60.137787684179614,
nogo,triangle.png,None,1542,1.542,2.042,0,66,66,21,,,,,,,,,,,,,,,,,,,,,,,,,170.25261670001782,170.75377810001373,170.73715409997385,172.28902689996175,None,1,,170.25261670001782,170.25261670001782,,,,,,,11024,001,2024_Jan_07_1130,gonogo_S,2021.2.3,60.137787684179614,
nogo,triangle.png,None,1118,1.118,1.618,0,67,67,69,,,,,,,,,,,,,,,,,,,,,,,,,172.30586750002112,172.8071801000042,172.7903784000082,173.90821699996013,None,1,,172.30586750002112,172.30586750002112,,,,,,,11024,001,2024_Jan_07_1130,gonogo_S,2021.2.3,60.137787684179614,
go,square.png,space,1806,1.806,2.306,0,68,68,63,,,,,,,,,,,,,,,,,,,,,,,,,173.92479509999976,174.4249232999282,174.40896379994228,176.22900679998565,space,1,0.3878344000549987,173.92479509999976,173.92479509999976,,,,,,,11024,001,2024_Jan_07_1130,gonogo_S,2021.2.3,60.137787684179614,
go,square.png,space,1249,1.249,1.749,0,69,69,71,,,,,,,,,,,,,,,,,,,,,,,,,176.24418009992223,176.7464447999373,176.72839730000123,177.98060679994524,space,1,0.3406803000252694,176.24418009992223,176.24418009992223,,,,,,,11024,001,2024_Jan_07_1130,gonogo_S,2021.2.3,60.137787684179614,
go,square.png,space,1503,1.503,2.003,0,70,70,79,,,,,,,,,,,,,,,,,,,,,,,,,177.9974532999331,178.49767109996174,178.4826961000217,None,space,1,0.45166410005185753,177.9974532999331,177.9974532999331,,,,,,,11024,001,2024_Jan_07_1130,gonogo_S,2021.2.3,60.137787684179614,
go,square.png,space,1973,1.973,2.473,0,71,71,44,,,,,,,,,,,,,,,,,,,,,,,,,180.0005150999641,180.50125630002003,180.48511020001024,182.47136969992425,space,1,0.41668469994328916,180.0005150999641,180.0005150999641,,,,,,,11024,001,2024_Jan_07_1130,gonogo_S,2021.2.3,60.137787684179614,
go,square.png,space,1111,1.111,1.611,0,72,72,24,,,,,,,,,,,,,,,,,,,,,,,,,182.487709500012,182.98831649997737,182.97206890000962,184.08985679992475,space,1,0.41761080001015216,182.487709500012,182.487709500012,,,,,,,11024,001,2024_Jan_07_1130,gonogo_S,2021.2.3,60.137787684179614,
go,square.png,space,1303,1.303,1.803,0,73,73,70,,,,,,,,,,,,,,,,,,,,,,,,,184.1059760999633,184.607620799914,184.5900044000009,None,space,1,0.4550953001016751,184.1059760999633,184.1059760999633,,,,,,,11024,001,2024_Jan_07_1130,gonogo_S,2021.2.3,60.137787684179614,
go,square.png,space,1745,1.745,2.245,0,74,74,38,,,,,,,,,,,,,,,,,,,,,,,,,185.90855880000163,186.4094026000239,186.39330419991165,188.1461283999961,space,1,0.4759398999158293,185.90855880000163,185.90855880000163,,,,,,,11024,001,2024_Jan_07_1130,gonogo_S,2021.2.3,60.137787684179614,
go,square.png,space,1552,1.552,2.052,0,75,75,59,,,,,,,,,,,,,,,,,,,,,,,,,188.1621468999656,188.6631982999388,188.6479215999134,190.19834080000874,space,1,0.47027400007937104,188.1621468999656,188.1621468999656,,,,,,,11024,001,2024_Jan_07_1130,gonogo_S,2021.2.3,60.137787684179614,
go,square.png,space,1462,1.462,1.962,0,76,76,72,,,,,,,,,,,,,,,,,,,,,,,,,190.21639339998364,190.71559599996544,190.69966619997285,192.1699295999715,space,1,0.40075650007929653,190.21639339998364,190.21639339998364,,,,,,,11024,001,2024_Jan_07_1130,gonogo_S,2021.2.3,60.137787684179614,
go,square.png,space,1121,1.121,1.621,0,77,77,22,,,,,,,,,,,,,,,,,,,,,,,,,192.1852979999967,192.685369099956,192.66884619998746,193.80372049997095,space,1,0.3682303000241518,192.1852979999967,192.1852979999967,,,,,,,11024,001,2024_Jan_07_1130,gonogo_S,2021.2.3,60.137787684179614,
go,square.png,space,1780,1.78,2.2800000000000002,0,78,78,18,,,,,,,,,,,,,,,,,,,,,,,,,193.8206046000123,194.3216942999279,194.30493440001737,196.09056809998583,space,1,0.4359483999432996,193.8206046000123,193.8206046000123,,,,,,,11024,001,2024_Jan_07_1130,gonogo_S,2021.2.3,60.137787684179614,
go,square.png,space,1227,1.227,1.727,0,79,79,34,,,,,,,,,,,,,,,,,,,,,,,,,196.1078267999692,196.60924179991707,196.5920009999536,197.8271089999471,space,1,0.4047240000218153,196.1078267999692,196.1078267999692,,,,,,,11024,001,2024_Jan_07_1130,gonogo_S,2021.2.3,60.137787684179614,
go,square.png,space,1210,1.21,1.71,0,80,80,80,,,,,,,,,,,,,,,,,,,,,,,,,197.84326320001855,198.34385229996406,198.3273298999993,199.5462957000127,space,1,0.42120550002437085,197.84326320001855,197.84326320001855,,,,,,,11024,001,2024_Jan_07_1130,gonogo_S,2021.2.3,60.137787684179614,
go,square.png,space,1520,1.52,2.02,0,81,81,32,,,,,,,,,,,,,,,,,,,,,,,,,199.56315679999534,200.06375700002536,200.04687099996954,None,space,1,0.5253533000359312,199.56315679999534,199.56315679999534,,,,,,,11024,001,2024_Jan_07_1130,gonogo_S,2021.2.3,60.137787684179614,
go,square.png,space,1503,1.503,2.003,0,82,82,78,,,,,,,,,,,,,,,,,,,,,,,,,201.58287659997586,202.08329939993564,202.0658452999778,203.56915400002617,space,1,0.35387530003208667,201.58287659997586,201.58287659997586,,,,,,,11024,001,2024_Jan_07_1130,gonogo_S,2021.2.3,60.137787684179614,
go,square.png,space,1822,1.822,2.322,0,83,83,60,,,,,,,,,,,,,,,,,,,,,,,,,203.58486970001832,204.08608689997345,204.06969759997446,205.90703300002497,space,1,0.35229660000186414,203.58486970001832,203.58486970001832,,,,,,,11024,001,2024_Jan_07_1130,gonogo_S,2021.2.3,60.137787684179614,
go,square.png,space,1230,1.23,1.73,0,84,84,35,,,,,,,,,,,,,,,,,,,,,,,,,205.92201139999088,206.4226658999687,206.40641589998268,207.64215490000788,space,1,0.4144586999900639,205.92201139999088,205.92201139999088,,,,,,,11024,001,2024_Jan_07_1130,gonogo_S,2021.2.3,60.137787684179614,
nogo,triangle.png,None,1559,1.559,2.059,0,85,85,61,,,,,,,,,,,,,,,,,,,,,,,,,207.65814969991334,208.15912399999797,208.14227630000096,209.71124939993024,None,1,,207.65814969991334,207.65814969991334,,,,,,,11024,001,2024_Jan_07_1130,gonogo_S,2021.2.3,60.137787684179614,
go,square.png,space,1320,1.32,1.82,0,86,86,83,,,,,,,,,,,,,,,,,,,,,,,,,209.7278687999351,210.23025879997294,210.2111565999221,211.5299573999364,space,1,0.35271919996012,209.7278687999351,209.7278687999351,,,,,,,11024,001,2024_Jan_07_1130,gonogo_S,2021.2.3,60.137787684179614,
go,square.png,space,1060,1.06,1.56,0,87,87,51,,,,,,,,,,,,,,,,,,,,,,,,,211.56370870000683,212.06409379991237,212.04860239999834,213.11559980001766,space,1,0.4447869999567047,211.56370870000683,211.56370870000683,,,,,,,11024,001,2024_Jan_07_1130,gonogo_S,2021.2.3,60.137787684179614,
go,square.png,space,1160,1.16,1.66,0,88,88,48,,,,,,,,,,,,,,,,,,,,,,,,,213.13229550002143,213.63374540000223,213.61640780000016,214.785744599998,space,1,0.3725527999922633,213.13229550002143,213.13229550002143,,,,,,,11024,001,2024_Jan_07_1130,gonogo_S,2021.2.3,60.137787684179614,
go,square.png,space,1692,1.692,2.192,0,89,89,30,,,,,,,,,,,,,,,,,,,,,,,,,214.8014388999436,215.30339319992345,215.2853383999318,216.98916070000269,space,1,0.40709269989747554,214.8014388999436,214.8014388999436,,,,,,,11024,001,2024_Jan_07_1130,gonogo_S,2021.2.3,60.137787684179614,
go,square.png,space,1857,1.857,2.357,0,90,90,2,,,,,,,,,,,,,,,,,,,,,,,,,217.00596119998954,217.50629539997317,217.4893075999571,219.35896119999234,space,1,0.36285310005769134,217.00596119998954,217.00596119998954,,,,,,,11024,001,2024_Jan_07_1130,gonogo_S,2021.2.3,60.137787684179614,
nogo,triangle.png,None,1771,1.771,2.271,0,91,91,1,,,,,,,,,,,,,,,,,,,,,,,,,219.37500399991404,219.87636130000465,219.8595905000111,None,None,1,,219.37500399991404,219.37500399991404,,,,,,,11024,001,2024_Jan_07_1130,gonogo_S,2021.2.3,60.137787684179614,
nogo,triangle.png,None,1683,1.683,2.183,0,92,92,29,,,,,,,,,,,,,,,,,,,,,,,,,221.6454946999438,222.1455267999554,222.12895599997137,223.81487419991754,None,1,,221.6454946999438,221.6454946999438,,,,,,,11024,001,2024_Jan_07_1130,gonogo_S,2021.2.3,60.137787684179614,
go,square.png,space,1136,1.136,1.636,0,93,93,43,,,,,,,,,,,,,,,,,,,,,,,,,223.83147049997933,224.3327398999827,224.31612839992158,225.45100340002682,space,1,0.3533960999920964,223.83147049997933,223.83147049997933,,,,,,,11024,001,2024_Jan_07_1130,gonogo_S,2021.2.3,60.137787684179614,
nogo,triangle.png,None,1790,1.79,2.29,0,94,94,93,,,,,,,,,,,,,,,,,,,,,,,,,225.4673235999653,225.96805989998393,225.95207809994463,227.75478600000497,None,1,,225.4673235999653,225.4673235999653,,,,,,,11024,001,2024_Jan_07_1130,gonogo_S,2021.2.3,60.137787684179614,
go,square.png,space,1194,1.194,1.694,0,95,95,26,,,,,,,,,,,,,,,,,,,,,,,,,227.77151210000739,228.2722739999881,228.2554642999312,229.45751799992286,space,1,0.2930358999874443,227.77151210000739,227.77151210000739,,,,,,,11024,001,2024_Jan_07_1130,gonogo_S,2021.2.3,60.137787684179614,
,,,,,,,,,,,,,,,,,,,,,,,,,,,,,,,,,,,,,,,,,,,229.47373859991785,None,space,3.030773699982092,229.47373859991785,None,11024,001,2024_Jan_07_1130,gonogo_S,2021.2.3,60.137787684179614,
