TrialType,Path,Correct,ms,s,ks,trials_4.thisRepN,trials_4.thisTrialN,trials_4.thisN,trials_4.thisIndex,welcome.started,welcome.stopped,space.started,space.stopped,key_resp.keys,key_resp.rt,key_resp.started,key_resp.stopped,Fixwarn.started,Fixwarn.stopped,table.started,table.stopped,key_resp__0.keys,key_resp__0.rt,key_resp__0.started,key_resp__0.stopped,type.started,type.stopped,space_3.started,space_3.stopped,key_resp_6.keys,key_resp_6.rt,key_resp_6.started,key_resp_6.stopped,stim_2.started,stim_2.stopped,text_2.started,text_2.stopped,key_resp_9.keys,key_resp_9.corr,key_resp_9.rt,key_resp_9.started,key_resp_9.stopped,END.started,END.stopped,key_resp_2.keys,key_resp_2.rt,key_resp_2.started,key_resp_2.stopped,participant,session,date,expName,psychopyVersion,frameRate,
,,,,,,,,,,8.303215399966575,None,8.303215399966575,None,space,2.2858820999972522,8.303215399966575,None,,,,,,,,,,,,,,,,,,,,,,,,,,,,,,,,11025,001,2024_Jan_08_0939,gonogo_S,2021.2.3,59.56476029695219,
,,,,,,,,,,,,,,,,,,10.607286999933422,None,10.607286999933422,None,space,1.5899951999308541,10.607286999933422,None,,,,,,,,,,,,,,,,,,,,,,,,11025,001,2024_Jan_08_0939,gonogo_S,2021.2.3,59.56476029695219,
,,,,,,,,,,,,,,,,,,,,,,,,,,12.243302899994887,None,12.243302899994887,None,space,8.665851500001736,12.243302899994887,None,,,,,,,,,,,,,,,,11025,001,2024_Jan_08_0939,gonogo_S,2021.2.3,59.56476029695219,
go,square.png,space,1890,1.89,2.3899999999999997,0,0,0,12,,,,,,,,,,,,,,,,,,,,,,,,,21.005384200019762,21.507606599945575,21.507606599945575,None,space,1,0.39177460002247244,21.005384200019762,None,,,,,,,11025,001,2024_Jan_08_0939,gonogo_S,2021.2.3,59.56476029695219,
go,square.png,space,1670,1.67,2.17,0,1,1,94,,,,,,,,,,,,,,,,,,,,,,,,,23.409117099945433,23.909898199955933,23.89441289997194,23.409117099945433,space,1,0.32387359999120235,23.409117099945433,23.409117099945433,,,,,,,11025,001,2024_Jan_08_0939,gonogo_S,2021.2.3,59.56476029695219,
nogo,triangle.png,None,1867,1.867,2.367,0,2,2,33,,,,,,,,,,,,,,,,,,,,,,,,,25.579597600037232,26.080931999953464,26.06379039993044,27.93356739997398,None,1,,25.579597600037232,25.579597600037232,,,,,,,11025,001,2024_Jan_08_0939,gonogo_S,2021.2.3,59.56476029695219,
go,square.png,space,1552,1.552,2.052,0,3,3,59,,,,,,,,,,,,,,,,,,,,,,,,,27.94930530001875,28.450509799993597,28.433278299984522,29.98649599996861,space,1,0.3122361999703571,27.94930530001875,27.94930530001875,,,,,,,11025,001,2024_Jan_08_0939,gonogo_S,2021.2.3,59.56476029695219,
go,square.png,space,1513,1.513,2.013,0,4,4,31,,,,,,,,,,,,,,,,,,,,,,,,,30.002722800010815,30.504195599933155,30.486365200020373,32.00534349994268,space,1,0.3065922000678256,30.002722800010815,30.002722800010815,,,,,,,11025,001,2024_Jan_08_0939,gonogo_S,2021.2.3,59.56476029695219,
nogo,triangle.png,None,1218,1.218,1.718,0,5,5,25,,,,,,,,,,,,,,,,,,,,,,,,,32.02220949996263,32.52321449993178,32.507515299948864,33.72481859999243,None,1,,32.02220949996263,32.02220949996263,,,,,,,11025,001,2024_Jan_08_0939,gonogo_S,2021.2.3,59.56476029695219,
go,square.png,space,1136,1.136,1.636,0,6,6,43,,,,,,,,,,,,,,,,,,,,,,,,,33.741971499985084,34.24197730002925,34.22518049995415,35.36093500000425,space,1,0.28752500005066395,33.741971499985084,33.741971499985084,,,,,,,11025,001,2024_Jan_08_0939,gonogo_S,2021.2.3,59.56476029695219,
go,square.png,space,1821,1.821,2.3209999999999997,0,7,7,58,,,,,,,,,,,,,,,,,,,,,,,,,35.37750890001189,35.87831419997383,35.86173140001483,None,space,1,0.3636285000247881,35.37750890001189,35.37750890001189,,,,,,,11025,001,2024_Jan_08_0939,gonogo_S,2021.2.3,59.56476029695219,
go,square.png,space,1692,1.692,2.192,0,8,8,30,,,,,,,,,,,,,,,,,,,,,,,,,37.69772860000376,38.198393199942075,38.18146590003744,39.88349419995211,space,1,0.3319037000183016,37.69772860000376,37.69772860000376,,,,,,,11025,001,2024_Jan_08_0939,gonogo_S,2021.2.3,59.56476029695219,
go,square.png,space,1513,1.513,2.013,0,9,9,8,,,,,,,,,,,,,,,,,,,,,,,,,39.90036379999947,40.400899500004016,40.385055999970064,41.903551499941386,space,1,0.3135940000647679,39.90036379999947,39.90036379999947,,,,,,,11025,001,2024_Jan_08_0939,gonogo_S,2021.2.3,59.56476029695219,
go,square.png,space,1057,1.057,1.557,0,10,10,40,,,,,,,,,,,,,,,,,,,,,,,,,41.91989839996677,42.420694199972786,42.40386960003525,43.472972200019285,space,1,0.32517070008907467,41.91989839996677,41.91989839996677,,,,,,,11025,001,2024_Jan_08_0939,gonogo_S,2021.2.3,59.56476029695219,
go,square.png,space,1520,1.52,2.02,0,11,11,32,,,,,,,,,,,,,,,,,,,,,,,,,43.49010029993951,43.99088519997895,43.97303829994053,45.49192729999777,space,1,0.2750600000144914,43.49010029993951,43.49010029993951,,,,,,,11025,001,2024_Jan_08_0939,gonogo_S,2021.2.3,59.56476029695219,
go,square.png,space,1194,1.194,1.694,0,12,12,26,,,,,,,,,,,,,,,,,,,,,,,,,45.52525159996003,46.02631779992953,46.00939429993741,47.211758699966595,space,1,0.3357620999449864,45.52525159996003,45.52525159996003,,,,,,,11025,001,2024_Jan_08_0939,gonogo_S,2021.2.3,59.56476029695219,
go,square.png,space,1150,1.15,1.65,0,13,13,19,,,,,,,,,,,,,,,,,,,,,,,,,47.22790239995811,47.72853510000277,47.7127160000382,48.86493989999872,space,1,0.29018569993786514,47.22790239995811,47.22790239995811,,,,,,,11025,001,2024_Jan_08_0939,gonogo_S,2021.2.3,59.56476029695219,
go,square.png,space,1125,1.125,1.625,0,14,14,90,,,,,,,,,,,,,,,,,,,,,,,,,48.880541699938476,49.38292150001507,49.36424929997884,50.499896300025284,space,1,0.28520099993329495,48.880541699938476,48.880541699938476,,,,,,,11025,001,2024_Jan_08_0939,gonogo_S,2021.2.3,59.56476029695219,
go,square.png,space,1655,1.655,2.1550000000000002,0,15,15,36,,,,,,,,,,,,,,,,,,,,,,,,,50.51600279996637,51.017537000006996,51.000934800016694,None,space,1,0.3210481000132859,50.51600279996637,50.51600279996637,,,,,,,11025,001,2024_Jan_08_0939,gonogo_S,2021.2.3,59.56476029695219,
go,square.png,space,1857,1.857,2.357,0,16,16,2,,,,,,,,,,,,,,,,,,,,,,,,,52.66917440004181,53.17083249997813,53.15431869996246,55.02349279995542,space,1,0.26430439995601773,52.66917440004181,52.66917440004181,,,,,,,11025,001,2024_Jan_08_0939,gonogo_S,2021.2.3,59.56476029695219,
go,square.png,space,1190,1.19,1.69,0,17,17,16,,,,,,,,,,,,,,,,,,,,,,,,,55.03947259997949,55.540946700028144,55.523799999966286,56.72531969996635,space,1,0.2936210000189021,55.03947259997949,55.03947259997949,,,,,,,11025,001,2024_Jan_08_0939,gonogo_S,2021.2.3,59.56476029695219,
go,square.png,space,1672,1.672,2.1719999999999997,0,18,18,84,,,,,,,,,,,,,,,,,,,,,,,,,56.74174510000739,57.24343269993551,57.22695139993448,None,space,1,0.2878884000238031,56.74174510000739,56.74174510000739,,,,,,,11025,001,2024_Jan_08_0939,gonogo_S,2021.2.3,59.56476029695219,
go,square.png,space,1865,1.865,2.365,0,19,19,75,,,,,,,,,,,,,,,,,,,,,,,,,58.91177100001369,59.41263269993942,59.395973499980755,61.265926699968986,space,1,0.31790519994683564,58.91177100001369,58.91177100001369,,,,,,,11025,001,2024_Jan_08_0939,gonogo_S,2021.2.3,59.56476029695219,
go,square.png,space,1940,1.94,2.44,0,20,20,47,,,,,,,,,,,,,,,,,,,,,,,,,61.28192019998096,61.782831399934366,61.76666059996933,63.72005330002867,space,1,0.2996023000450805,61.28192019998096,61.28192019998096,,,,,,,11025,001,2024_Jan_08_0939,gonogo_S,2021.2.3,59.56476029695219,
go,square.png,space,1967,1.967,2.467,0,21,21,54,,,,,,,,,,,,,,,,,,,,,,,,,63.73628389998339,64.23728130001109,64.22042160003912,66.19105739996303,space,1,0.35675300005823374,63.73628389998339,63.73628389998339,,,,,,,11025,001,2024_Jan_08_0939,gonogo_S,2021.2.3,59.56476029695219,
go,square.png,space,1899,1.899,2.399,0,22,22,28,,,,,,,,,,,,,,,,,,,,,,,,,66.2059331999626,66.70668549998663,66.69035900000017,68.59353479999118,space,1,0.319176199962385,66.2059331999626,66.2059331999626,,,,,,,11025,001,2024_Jan_08_0939,gonogo_S,2021.2.3,59.56476029695219,
go,square.png,space,1975,1.975,2.475,0,23,23,87,,,,,,,,,,,,,,,,,,,,,,,,,68.61025120003615,69.11026610003319,69.0937821000116,71.08012549998239,space,1,0.2749088000273332,68.61025120003615,68.61025120003615,,,,,,,11025,001,2024_Jan_08_0939,gonogo_S,2021.2.3,59.56476029695219,
go,square.png,space,1745,1.745,2.245,0,24,24,38,,,,,,,,,,,,,,,,,,,,,,,,,71.09658549993765,71.59722120000515,71.58058950002305,73.33315810002387,space,1,0.3244970999658108,71.09658549993765,71.09658549993765,,,,,,,11025,001,2024_Jan_08_0939,gonogo_S,2021.2.3,59.56476029695219,
go,square.png,space,1387,1.387,1.887,0,25,25,66,,,,,,,,,,,,,,,,,,,,,,,,,73.35059739998542,73.85102349997032,73.83492219995242,None,space,1,0.3025772999972105,73.35059739998542,73.35059739998542,,,,,,,11025,001,2024_Jan_08_0939,gonogo_S,2021.2.3,59.56476029695219,
go,square.png,space,1249,1.249,1.749,0,26,26,71,,,,,,,,,,,,,,,,,,,,,,,,,75.23676120000891,75.737165599945,75.72070910001639,76.97174680000171,space,1,0.28844649996608496,75.23676120000891,75.23676120000891,,,,,,,11025,001,2024_Jan_08_0939,gonogo_S,2021.2.3,59.56476029695219,
go,square.png,space,1776,1.776,2.276,0,27,27,14,,,,,,,,,,,,,,,,,,,,,,,,,76.98845309996977,77.4894970000023,77.47392210003454,79.2585649000248,space,1,0.31281580007635057,76.98845309996977,76.98845309996977,,,,,,,11025,001,2024_Jan_08_0939,gonogo_S,2021.2.3,59.56476029695219,
go,square.png,space,1843,1.843,2.343,0,28,28,64,,,,,,,,,,,,,,,,,,,,,,,,,79.27529749996029,79.7766743999673,79.76019159995485,81.61233100004029,space,1,0.30623450002167374,79.27529749996029,79.27529749996029,,,,,,,11025,001,2024_Jan_08_0939,gonogo_S,2021.2.3,59.56476029695219,
go,square.png,space,1822,1.822,2.322,0,29,29,60,,,,,,,,,,,,,,,,,,,,,,,,,81.62912449997384,82.12967339996248,82.11310059996322,83.949573699967,space,1,0.27220550004858524,81.62912449997384,81.62912449997384,,,,,,,11025,001,2024_Jan_08_0939,gonogo_S,2021.2.3,59.56476029695219,
go,square.png,space,1054,1.054,1.554,0,30,30,39,,,,,,,,,,,,,,,,,,,,,,,,,83.96608239994384,84.46697880001739,84.4503437000094,85.5179683000315,space,1,0.3191603999584913,83.96608239994384,83.96608239994384,,,,,,,11025,001,2024_Jan_08_0939,gonogo_S,2021.2.3,59.56476029695219,
go,square.png,space,1084,1.084,1.584,0,31,31,95,,,,,,,,,,,,,,,,,,,,,,,,,85.53463160002138,86.03611460002139,86.01919609995093,87.10387650004122,space,1,0.3426162999821827,85.53463160002138,85.53463160002138,,,,,,,11025,001,2024_Jan_08_0939,gonogo_S,2021.2.3,59.56476029695219,
go,square.png,space,1227,1.227,1.727,0,32,32,34,,,,,,,,,,,,,,,,,,,,,,,,,87.12044780002907,87.6218852000311,87.60441919998266,88.84003630001098,space,1,0.292721200035885,87.12044780002907,87.12044780002907,,,,,,,11025,001,2024_Jan_08_0939,gonogo_S,2021.2.3,59.56476029695219,
nogo,triangle.png,None,1436,1.436,1.936,0,33,33,81,,,,,,,,,,,,,,,,,,,,,,,,,88.85616309999023,89.35669569997117,89.34042899997439,90.77654140000232,None,1,,88.85616309999023,88.85616309999023,,,,,,,11025,001,2024_Jan_08_0939,gonogo_S,2021.2.3,59.56476029695219,
go,square.png,space,1121,1.121,1.621,0,34,34,22,,,,,,,,,,,,,,,,,,,,,,,,,90.7924711999949,91.29383650003001,91.27646099997219,92.41154749994166,space,1,0.41269290004856884,90.7924711999949,90.7924711999949,,,,,,,11025,001,2024_Jan_08_0939,gonogo_S,2021.2.3,59.56476029695219,
go,square.png,space,1546,1.546,2.0460000000000003,0,35,35,68,,,,,,,,,,,,,,,,,,,,,,,,,92.42824089992791,92.92973299999721,92.91266929998528,94.46453110000584,space,1,0.42500819999258965,92.42824089992791,92.42824089992791,,,,,,,11025,001,2024_Jan_08_0939,gonogo_S,2021.2.3,59.56476029695219,
nogo,triangle.png,None,1629,1.629,2.129,0,36,36,73,,,,,,,,,,,,,,,,,,,,,,,,,94.4810236999765,94.9826524000382,94.96612320002168,96.6010448000161,None,1,,94.4810236999765,94.4810236999765,,,,,,,11025,001,2024_Jan_08_0939,gonogo_S,2021.2.3,59.56476029695219,
nogo,triangle.png,None,1118,1.118,1.618,0,37,37,69,,,,,,,,,,,,,,,,,,,,,,,,,96.61763280001469,97.11832989996765,97.10184230003506,98.22277300001588,None,1,,96.61763280001469,96.61763280001469,,,,,,,11025,001,2024_Jan_08_0939,gonogo_S,2021.2.3,59.56476029695219,
nogo,triangle.png,None,1790,1.79,2.29,0,38,38,93,,,,,,,,,,,,,,,,,,,,,,,,,98.23746269999538,98.73948719992768,98.72219010000117,100.52349019993562,None,1,,98.23746269999538,98.23746269999538,,,,,,,11025,001,2024_Jan_08_0939,gonogo_S,2021.2.3,59.56476029695219,
go,square.png,space,1069,1.069,1.569,0,39,39,20,,,,,,,,,,,,,,,,,,,,,,,,,100.5401281999657,101.04172179999296,101.02482449996751,102.09254490002058,space,1,0.30517950002104044,100.5401281999657,100.5401281999657,,,,,,,11025,001,2024_Jan_08_0939,gonogo_S,2021.2.3,59.56476029695219,
nogo,triangle.png,None,1569,1.569,2.069,0,40,40,45,,,,,,,,,,,,,,,,,,,,,,,,,102.10918509995099,102.61130039999261,102.59368179994635,104.16270220000297,None,1,,102.10918509995099,102.10918509995099,,,,,,,11025,001,2024_Jan_08_0939,gonogo_S,2021.2.3,59.56476029695219,
go,square.png,space,1536,1.536,2.036,0,41,41,3,,,,,,,,,,,,,,,,,,,,,,,,,104.17945039994083,104.67999089998193,104.66341379994992,106.19856930000242,space,1,0.2981547999661416,104.17945039994083,104.17945039994083,,,,,,,11025,001,2024_Jan_08_0939,gonogo_S,2021.2.3,59.56476029695219,
go,square.png,space,1060,1.06,1.56,0,42,42,51,,,,,,,,,,,,,,,,,,,,,,,,,106.21544289996382,106.71604820003267,106.69946669996716,107.76927019993309,space,1,0.350293800001964,106.21544289996382,106.21544289996382,,,,,,,11025,001,2024_Jan_08_0939,gonogo_S,2021.2.3,59.56476029695219,
go,square.png,space,1889,1.889,2.3890000000000002,0,43,43,15,,,,,,,,,,,,,,,,,,,,,,,,,107.7848118999973,108.28500729997177,108.26831950002816,110.17174619995058,space,1,0.356578900013119,107.7848118999973,107.7848118999973,,,,,,,11025,001,2024_Jan_08_0939,gonogo_S,2021.2.3,59.56476029695219,
nogo,triangle.png,None,1659,1.659,2.159,0,44,44,49,,,,,,,,,,,,,,,,,,,,,,,,,110.18784749996848,110.6886158999987,110.67196379997768,112.3408497000346,None,1,,110.18784749996848,110.18784749996848,,,,,,,11025,001,2024_Jan_08_0939,gonogo_S,2021.2.3,59.56476029695219,
go,square.png,space,1148,1.148,1.648,0,45,45,4,,,,,,,,,,,,,,,,,,,,,,,,,112.35827319999225,112.85949059994891,112.84248959994875,113.99383259995375,space,1,0.3031517000636086,112.35827319999225,112.35827319999225,,,,,,,11025,001,2024_Jan_08_0939,gonogo_S,2021.2.3,59.56476029695219,
nogo,triangle.png,None,1577,1.577,2.077,0,46,46,89,,,,,,,,,,,,,,,,,,,,,,,,,114.0105532000307,114.51095140003599,114.49454310000874,116.08033869997598,None,1,,114.0105532000307,114.0105532000307,,,,,,,11025,001,2024_Jan_08_0939,gonogo_S,2021.2.3,59.56476029695219,
go,square.png,space,1780,1.78,2.2800000000000002,0,47,47,18,,,,,,,,,,,,,,,,,,,,,,,,,116.09655459993519,116.59785609995015,116.58069870003965,118.3668345999904,space,1,0.30865499994251877,116.09655459993519,116.09655459993519,,,,,,,11025,001,2024_Jan_08_0939,gonogo_S,2021.2.3,59.56476029695219,
go,square.png,space,1564,1.564,2.064,0,48,48,82,,,,,,,,,,,,,,,,,,,,,,,,,118.38345359999221,118.88389549998101,118.86750239995308,120.4366117999889,space,1,0.3177664000540972,118.38345359999221,118.38345359999221,,,,,,,11025,001,2024_Jan_08_0939,gonogo_S,2021.2.3,59.56476029695219,
nogo,triangle.png,None,1939,1.939,2.439,0,49,49,65,,,,,,,,,,,,,,,,,,,,,,,,,120.4529720999999,120.95406180003192,120.93812409997918,122.8909853999503,None,1,,120.4529720999999,120.4529720999999,,,,,,,11025,001,2024_Jan_08_0939,gonogo_S,2021.2.3,59.56476029695219,
go,square.png,space,1445,1.445,1.945,0,50,50,74,,,,,,,,,,,,,,,,,,,,,,,,,122.90737050003372,123.40738360001706,123.39124999998603,124.84347530000377,space,1,0.35413430002518,122.90737050003372,122.90737050003372,,,,,,,11025,001,2024_Jan_08_0939,gonogo_S,2021.2.3,59.56476029695219,
go,square.png,space,1155,1.155,1.655,0,51,51,0,,,,,,,,,,,,,,,,,,,,,,,,,124.85954480001237,125.36065859999508,125.34403179993387,126.51268089993391,space,1,0.34607289999257773,124.85954480001237,124.85954480001237,,,,,,,11025,001,2024_Jan_08_0939,gonogo_S,2021.2.3,59.56476029695219,
nogo,triangle.png,None,1683,1.683,2.183,0,52,52,29,,,,,,,,,,,,,,,,,,,,,,,,,126.52874079998583,127.02988689998165,127.0132534999866,128.69910209998488,None,1,,126.52874079998583,126.52874079998583,,,,,,,11025,001,2024_Jan_08_0939,gonogo_S,2021.2.3,59.56476029695219,
go,square.png,space,1189,1.189,1.689,0,53,53,11,,,,,,,,,,,,,,,,,,,,,,,,,128.71574739995413,129.2166048999643,129.19938190001994,130.40108819992747,space,1,0.30586909991689026,128.71574739995413,128.71574739995413,,,,,,,11025,001,2024_Jan_08_0939,gonogo_S,2021.2.3,59.56476029695219,
go,square.png,space,1766,1.766,2.266,0,54,54,23,,,,,,,,,,,,,,,,,,,,,,,,,130.41758420004044,130.9185676999623,130.90195959992707,132.672622699989,space,1,0.41968099994119257,130.41758420004044,130.41758420004044,,,,,,,11025,001,2024_Jan_08_0939,gonogo_S,2021.2.3,59.56476029695219,
go,square.png,space,1503,1.503,2.003,0,55,55,78,,,,,,,,,,,,,,,,,,,,,,,,,132.6878574999282,133.188518299954,133.1722715999931,134.67406530003063,space,1,0.27823650010395795,132.6878574999282,132.6878574999282,,,,,,,11025,001,2024_Jan_08_0939,gonogo_S,2021.2.3,59.56476029695219,
go,square.png,space,1331,1.331,1.831,0,56,56,27,,,,,,,,,,,,,,,,,,,,,,,,,134.69085040001664,135.1913125999272,135.17549409996718,136.5108201999683,space,1,0.2506458000279963,134.69085040001664,134.69085040001664,,,,,,,11025,001,2024_Jan_08_0939,gonogo_S,2021.2.3,59.56476029695219,
go,square.png,space,1297,1.297,1.797,0,57,57,56,,,,,,,,,,,,,,,,,,,,,,,,,136.52666780003347,137.0272496000398,137.01085910003167,138.31379819998983,space,1,0.2868233999470249,136.52666780003347,136.52666780003347,,,,,,,11025,001,2024_Jan_08_0939,gonogo_S,2021.2.3,59.56476029695219,
nogo,triangle.png,None,1273,1.273,1.773,0,58,58,5,,,,,,,,,,,,,,,,,,,,,,,,,138.32950420002453,138.83082669996656,138.8142451000167,140.09926479996648,None,1,,138.32950420002453,138.32950420002453,,,,,,,11025,001,2024_Jan_08_0939,gonogo_S,2021.2.3,59.56476029695219,
go,square.png,space,1462,1.462,1.962,0,59,59,72,,,,,,,,,,,,,,,,,,,,,,,,,140.1155271999305,140.61679000000004,140.60011639993172,142.07192399993073,space,1,0.31400699994992465,140.1155271999305,140.1155271999305,,,,,,,11025,001,2024_Jan_08_0939,gonogo_S,2021.2.3,59.56476029695219,
go,square.png,space,1899,1.899,2.399,0,60,60,55,,,,,,,,,,,,,,,,,,,,,,,,,142.08499310002662,142.58598169998731,142.56893209996633,144.4718642999651,space,1,0.38493480009492487,142.08499310002662,142.08499310002662,,,,,,,11025,001,2024_Jan_08_0939,gonogo_S,2021.2.3,59.56476029695219,
go,square.png,space,1806,1.806,2.306,0,61,61,63,,,,,,,,,,,,,,,,,,,,,,,,,144.48865289997775,144.98941179993562,144.97280260000844,146.7920212999452,space,1,0.3496333999792114,144.48865289997775,144.48865289997775,,,,,,,11025,001,2024_Jan_08_0939,gonogo_S,2021.2.3,59.56476029695219,
go,square.png,space,1111,1.111,1.611,0,62,62,24,,,,,,,,,,,,,,,,,,,,,,,,,146.80861659999937,147.30934109992813,147.29358439997304,148.41120650002267,space,1,0.2687740999972448,146.80861659999937,146.80861659999937,,,,,,,11025,001,2024_Jan_08_0939,gonogo_S,2021.2.3,59.56476029695219,
go,square.png,space,1663,1.663,2.1630000000000003,0,63,63,7,,,,,,,,,,,,,,,,,,,,,,,,,148.427659100038,148.9286368000321,148.91183270001784,150.58137959998567,space,1,0.29748109995853156,148.427659100038,148.427659100038,,,,,,,11025,001,2024_Jan_08_0939,gonogo_S,2021.2.3,59.56476029695219,
go,square.png,space,1303,1.303,1.803,0,64,64,70,,,,,,,,,,,,,,,,,,,,,,,,,150.5980187000241,151.0987240000395,151.0822948999703,None,space,1,0.3193143999669701,150.5980187000241,150.5980187000241,,,,,,,11025,001,2024_Jan_08_0939,gonogo_S,2021.2.3,59.56476029695219,
go,square.png,space,1731,1.731,2.231,0,65,65,42,,,,,,,,,,,,,,,,,,,,,,,,,152.40045620000456,152.90102240000851,152.88509849994443,154.62100719998125,space,1,0.29274229996372014,152.40045620000456,152.40045620000456,,,,,,,11025,001,2024_Jan_08_0939,gonogo_S,2021.2.3,59.56476029695219,
go,square.png,space,1991,1.991,2.491,0,66,66,88,,,,,,,,,,,,,,,,,,,,,,,,,154.6371536999941,155.13844949996565,155.12121320003644,157.12461349996738,space,1,0.31252839998342097,154.6371536999941,154.6371536999941,,,,,,,11025,001,2024_Jan_08_0939,gonogo_S,2021.2.3,59.56476029695219,
nogo,triangle.png,None,1771,1.771,2.271,0,67,67,1,,,,,,,,,,,,,,,,,,,,,,,,,157.1414647999918,157.6419040999608,157.62475479999557,159.41239099996164,None,1,,157.1414647999918,157.1414647999918,,,,,,,11025,001,2024_Jan_08_0939,gonogo_S,2021.2.3,59.56476029695219,
go,square.png,space,1160,1.16,1.66,0,68,68,48,,,,,,,,,,,,,,,,,,,,,,,,,159.42733660002705,159.9283557999879,159.91234899999108,161.08092490001582,space,1,0.3383785999612883,159.42733660002705,159.42733660002705,,,,,,,11025,001,2024_Jan_08_0939,gonogo_S,2021.2.3,59.56476029695219,
nogo,triangle.png,None,1559,1.559,2.059,0,69,69,61,,,,,,,,,,,,,,,,,,,,,,,,,161.0966761999298,161.59739120001905,161.5808283999795,163.15022419998422,None,1,,161.0966761999298,161.0966761999298,,,,,,,11025,001,2024_Jan_08_0939,gonogo_S,2021.2.3,59.56476029695219,
go,square.png,space,1420,1.42,1.92,0,70,70,6,,,,,,,,,,,,,,,,,,,,,,,,,163.1663103000028,163.66841309994925,163.6502503999509,165.06977529998403,space,1,0.38386639999225736,163.1663103000028,163.1663103000028,,,,,,,11025,001,2024_Jan_08_0939,gonogo_S,2021.2.3,59.56476029695219,
go,square.png,space,1209,1.209,1.709,0,71,71,10,,,,,,,,,,,,,,,,,,,,,,,,,165.08605049992912,165.58658040000591,165.57009369996376,166.7889903000323,space,1,0.3275541999610141,165.08605049992912,165.08605049992912,,,,,,,11025,001,2024_Jan_08_0939,gonogo_S,2021.2.3,59.56476029695219,
nogo,triangle.png,None,1366,1.366,1.866,0,72,72,57,,,,,,,,,,,,,,,,,,,,,,,,,166.80503819999285,167.30571660003625,167.28904860001057,168.65913179994095,None,1,,166.80503819999285,166.80503819999285,,,,,,,11025,001,2024_Jan_08_0939,gonogo_S,2021.2.3,59.56476029695219,
go,square.png,space,1361,1.361,1.861,0,73,73,67,,,,,,,,,,,,,,,,,,,,,,,,,168.675184099935,169.17625739995856,169.1600537999766,170.5281858999515,space,1,0.32197239995002747,168.675184099935,168.675184099935,,,,,,,11025,001,2024_Jan_08_0939,gonogo_S,2021.2.3,59.56476029695219,
nogo,triangle.png,None,1317,1.317,1.817,0,74,74,85,,,,,,,,,,,,,,,,,,,,,,,,,170.54420589993242,171.04534299997613,171.0287145000184,172.34734350000508,None,1,,170.54420589993242,170.54420589993242,,,,,,,11025,001,2024_Jan_08_0939,gonogo_S,2021.2.3,59.56476029695219,
nogo,triangle.png,None,1924,1.924,2.424,0,75,75,13,,,,,,,,,,,,,,,,,,,,,,,,,172.36401739995927,172.8640167999547,172.84732139995322,174.78408929996658,None,1,,172.36401739995927,172.36401739995927,,,,,,,11025,001,2024_Jan_08_0939,gonogo_S,2021.2.3,59.56476029695219,
go,square.png,space,1437,1.437,1.937,0,76,76,50,,,,,,,,,,,,,,,,,,,,,,,,,174.8009311000351,175.3010127999587,175.28430639998987,176.7210567999864,space,1,0.3884920000564307,174.8009311000351,174.8009311000351,,,,,,,11025,001,2024_Jan_08_0939,gonogo_S,2021.2.3,59.56476029695219,
nogo,triangle.png,None,1909,1.909,2.409,0,77,77,9,,,,,,,,,,,,,,,,,,,,,,,,,176.73677610000595,177.2370341999922,177.22046670003328,179.14022519998252,None,1,,176.73677610000595,176.73677610000595,,,,,,,11025,001,2024_Jan_08_0939,gonogo_S,2021.2.3,59.56476029695219,
go,square.png,space,1503,1.503,2.003,0,78,78,79,,,,,,,,,,,,,,,,,,,,,,,,,179.1572316000238,179.65811289998237,179.6407192000188,181.14354950003326,space,1,0.31998619996011257,179.1572316000238,179.1572316000238,,,,,,,11025,001,2024_Jan_08_0939,gonogo_S,2021.2.3,59.56476029695219,
go,square.png,space,1210,1.21,1.71,0,79,79,80,,,,,,,,,,,,,,,,,,,,,,,,,181.15961530001368,181.66035559994634,181.643518100027,182.86281279998366,space,1,0.35018539999146014,181.15961530001368,181.15961530001368,,,,,,,11025,001,2024_Jan_08_0939,gonogo_S,2021.2.3,59.56476029695219,
go,square.png,space,1230,1.23,1.73,0,80,80,35,,,,,,,,,,,,,,,,,,,,,,,,,182.87890689994674,183.3796559999464,183.36212149995845,184.5993499000324,space,1,0.34235709998756647,182.87890689994674,182.87890689994674,,,,,,,11025,001,2024_Jan_08_0939,gonogo_S,2021.2.3,59.56476029695219,
nogo,triangle.png,None,1450,1.45,1.95,0,81,81,37,,,,,,,,,,,,,,,,,,,,,,,,,184.61468040000182,185.11669709999114,185.0994807999814,186.5517620999599,None,1,,184.61468040000182,184.61468040000182,,,,,,,11025,001,2024_Jan_08_0939,gonogo_S,2021.2.3,59.56476029695219,
go,square.png,space,1849,1.849,2.349,0,82,82,91,,,,,,,,,,,,,,,,,,,,,,,,,186.56759709992912,187.06846720003523,187.05354689992964,188.90483030001633,space,1,0.2777328999945894,186.56759709992912,186.56759709992912,,,,,,,11025,001,2024_Jan_08_0939,gonogo_S,2021.2.3,59.56476029695219,
nogo,triangle.png,None,1542,1.542,2.042,0,83,83,21,,,,,,,,,,,,,,,,,,,,,,,,,188.92166989995167,189.42185649997555,189.40526209992822,190.95830940001179,None,1,,188.92166989995167,188.92166989995167,,,,,,,11025,001,2024_Jan_08_0939,gonogo_S,2021.2.3,59.56476029695219,
nogo,triangle.png,None,1144,1.144,1.644,0,84,84,41,,,,,,,,,,,,,,,,,,,,,,,,,190.97436809993815,191.4763496000087,191.45833609998226,192.60978840000462,None,1,,190.97436809993815,190.97436809993815,,,,,,,11025,001,2024_Jan_08_0939,gonogo_S,2021.2.3,59.56476029695219,
go,square.png,space,1110,1.11,1.61,0,85,85,76,,,,,,,,,,,,,,,,,,,,,,,,,192.62749059998896,193.12781370000448,193.1107843000209,194.22981769999024,space,1,0.3379276000196114,192.62749059998896,192.62749059998896,,,,,,,11025,001,2024_Jan_08_0939,gonogo_S,2021.2.3,59.56476029695219,
nogo,triangle.png,None,1325,1.325,1.825,0,86,86,17,,,,,,,,,,,,,,,,,,,,,,,,,194.24601779994555,194.74712249997538,194.73010639997665,196.06519380002283,None,1,,194.24601779994555,194.24601779994555,,,,,,,11025,001,2024_Jan_08_0939,gonogo_S,2021.2.3,59.56476029695219,
go,square.png,space,1900,1.9,2.4,0,87,87,52,,,,,,,,,,,,,,,,,,,,,,,,,196.08244000002742,196.5832596999826,196.56655490002595,198.46839259995613,space,1,0.3709478999953717,196.08244000002742,196.08244000002742,,,,,,,11025,001,2024_Jan_08_0939,gonogo_S,2021.2.3,59.56476029695219,
go,square.png,space,1562,1.562,2.0620000000000003,0,88,88,46,,,,,,,,,,,,,,,,,,,,,,,,,198.48627749993466,198.98740760004148,198.97022709995508,200.53958109999076,space,1,0.31159309996291995,198.48627749993466,198.48627749993466,,,,,,,11025,001,2024_Jan_08_0939,gonogo_S,2021.2.3,59.56476029695219,
nogo,triangle.png,None,1384,1.384,1.884,0,89,89,77,,,,,,,,,,,,,,,,,,,,,,,,,200.55564429995138,201.05574819992762,201.04035569995176,202.42519249999896,None,1,,200.55564429995138,200.55564429995138,,,,,,,11025,001,2024_Jan_08_0939,gonogo_S,2021.2.3,59.56476029695219,
go,square.png,space,1973,1.973,2.473,0,90,90,44,,,,,,,,,,,,,,,,,,,,,,,,,202.44125259993598,202.94288919994142,202.92561209993437,204.9116536999354,space,1,0.31676179997157305,202.44125259993598,202.44125259993598,,,,,,,11025,001,2024_Jan_08_0939,gonogo_S,2021.2.3,59.56476029695219,
go,square.png,space,1044,1.044,1.544,0,91,91,92,,,,,,,,,,,,,,,,,,,,,,,,,204.92808610002976,205.42955390003044,205.41329920000862,206.46379309997428,space,1,0.3093252999242395,204.92808610002976,204.92808610002976,,,,,,,11025,001,2024_Jan_08_0939,gonogo_S,2021.2.3,59.56476029695219,
go,square.png,space,1428,1.428,1.928,0,92,92,62,,,,,,,,,,,,,,,,,,,,,,,,,206.48047529999167,206.98121270001866,206.9648025999777,208.40083219995722,space,1,0.3013279000297189,206.48047529999167,206.48047529999167,,,,,,,11025,001,2024_Jan_08_0939,gonogo_S,2021.2.3,59.56476029695219,
go,square.png,space,1240,1.24,1.74,0,93,93,86,,,,,,,,,,,,,,,,,,,,,,,,,208.41657969995867,208.91737399995327,208.9016756999772,210.15355599997565,space,1,0.32477589999325573,208.41657969995867,208.41657969995867,,,,,,,11025,001,2024_Jan_08_0939,gonogo_S,2021.2.3,59.56476029695219,
go,square.png,space,1320,1.32,1.82,0,94,94,83,,,,,,,,,,,,,,,,,,,,,,,,,210.1693774999585,210.67006589996163,210.65340469998773,None,space,1,0.2759988000616431,210.1693774999585,210.1693774999585,,,,,,,11025,001,2024_Jan_08_0939,gonogo_S,2021.2.3,59.56476029695219,
nogo,triangle.png,None,1190,1.19,1.69,0,95,95,53,,,,,,,,,,,,,,,,,,,,,,,,,211.9886219999753,212.4896904999623,212.47302599996328,213.67448229994625,None,1,,211.9886219999753,211.9886219999753,,,,,,,11025,001,2024_Jan_08_0939,gonogo_S,2021.2.3,59.56476029695219,
,,,,,,,,,,,,,,,,,,,,,,,,,,,,,,,,,,,,,,,,,,,213.69187760003842,None,space,6.729401299962774,213.69187760003842,None,11025,001,2024_Jan_08_0939,gonogo_S,2021.2.3,59.56476029695219,
