TrialType,Path,Correct,ms,s,ks,trials_4.thisRepN,trials_4.thisTrialN,trials_4.thisN,trials_4.thisIndex,welcome.started,welcome.stopped,space.started,space.stopped,key_resp.keys,key_resp.rt,key_resp.started,key_resp.stopped,Fixwarn.started,Fixwarn.stopped,table.started,table.stopped,key_resp__0.keys,key_resp__0.rt,key_resp__0.started,key_resp__0.stopped,type.started,type.stopped,space_3.started,space_3.stopped,key_resp_6.keys,key_resp_6.rt,key_resp_6.started,key_resp_6.stopped,stim_2.started,stim_2.stopped,text_2.started,text_2.stopped,key_resp_9.keys,key_resp_9.corr,key_resp_9.started,key_resp_9.stopped,key_resp_9.rt,END.started,END.stopped,key_resp_2.keys,key_resp_2.rt,key_resp_2.started,key_resp_2.stopped,participant,session,date,expName,psychopyVersion,frameRate,
,,,,,,,,,,11.805949999950826,None,11.805949999950826,None,space,8.716712299967185,11.805949999950826,None,,,,,,,,,,,,,,,,,,,,,,,,,,,,,,,,11033,001,2024_Jan_11_1842,gonogo_S,2021.2.3,60.14726453549538,
,,,,,,,,,,,,,,,,,,20.53565780003555,None,20.53565780003555,None,space,1.314825400011614,20.53565780003555,None,,,,,,,,,,,,,,,,,,,,,,,,11033,001,2024_Jan_11_1842,gonogo_S,2021.2.3,60.14726453549538,
,,,,,,,,,,,,,,,,,,,,,,,,,,21.888695599976927,None,21.888695599976927,None,space,1.1141133001074195,21.888695599976927,None,,,,,,,,,,,,,,,,11033,001,2024_Jan_11_1842,gonogo_S,2021.2.3,60.14726453549538,
go,square.png,space,1054,1.054,1.554,0,0,0,39,,,,,,,,,,,,,,,,,,,,,,,,,23.089380300138146,23.590263500111178,23.57484839996323,None,None,0,23.089380300138146,None,,,,,,,,11033,001,2024_Jan_11_1842,gonogo_S,2021.2.3,60.14726453549538,
go,square.png,space,1110,1.11,1.61,0,1,1,76,,,,,,,,,,,,,,,,,,,,,,,,,24.64195950003341,25.14253960014321,25.12705589993857,26.24576409999281,space,1,24.64195950003341,24.64195950003341,0.3688124001491815,,,,,,,11033,001,2024_Jan_11_1842,gonogo_S,2021.2.3,60.14726453549538,
go,square.png,space,1227,1.227,1.727,0,2,2,34,,,,,,,,,,,,,,,,,,,,,,,,,26.26116900006309,26.7621480000671,26.745083699934185,27.98064920003526,space,1,26.26116900006309,26.26116900006309,0.3570489000994712,,,,,,,11033,001,2024_Jan_11_1842,gonogo_S,2021.2.3,60.14726453549538,
nogo,triangle.png,None,1436,1.436,1.936,0,3,3,81,,,,,,,,,,,,,,,,,,,,,,,,,27.996731200022623,28.49845129996538,28.481541299959645,29.917388200061396,None,1,27.996731200022623,27.996731200022623,,,,,,,,11033,001,2024_Jan_11_1842,gonogo_S,2021.2.3,60.14726453549538,
go,square.png,space,1940,1.94,2.44,0,4,4,47,,,,,,,,,,,,,,,,,,,,,,,,,29.932808000128716,30.433749499963596,30.418026000028476,32.37081729993224,space,1,29.932808000128716,29.932808000128716,0.309599099913612,,,,,,,11033,001,2024_Jan_11_1842,gonogo_S,2021.2.3,60.14726453549538,
go,square.png,space,1967,1.967,2.467,0,5,5,54,,,,,,,,,,,,,,,,,,,,,,,,,32.38633040012792,32.88811110006645,32.8718852000311,34.840261300094426,space,1,32.38633040012792,32.38633040012792,0.24006370012648404,,,,,,,11033,001,2024_Jan_11_1842,gonogo_S,2021.2.3,60.14726453549538,
go,square.png,space,1136,1.136,1.636,0,6,6,43,,,,,,,,,,,,,,,,,,,,,,,,,34.856827000156045,35.35865249997005,35.34173010010272,None,space,1,34.856827000156045,34.856827000156045,0.36938740010373294,,,,,,,11033,001,2024_Jan_11_1842,gonogo_S,2021.2.3,60.14726453549538,
go,square.png,space,1672,1.672,2.1719999999999997,0,7,7,84,,,,,,,,,,,,,,,,,,,,,,,,,36.49282669997774,36.9934942999389,36.97694690013304,38.663596800062805,space,1,36.49282669997774,36.49282669997774,0.32555830013006926,,,,,,,11033,001,2024_Jan_11_1842,gonogo_S,2021.2.3,60.14726453549538,
go,square.png,space,1057,1.057,1.557,0,8,8,40,,,,,,,,,,,,,,,,,,,,,,,,,38.67950939992443,39.181328600039706,39.163948100060225,40.232189500005916,space,1,38.67950939992443,38.67950939992443,0.3229518998414278,,,,,,,11033,001,2024_Jan_11_1842,gonogo_S,2021.2.3,60.14726453549538,
go,square.png,space,1084,1.084,1.584,0,9,9,95,,,,,,,,,,,,,,,,,,,,,,,,,40.248356600059196,40.748817400075495,40.73213120014407,41.81730350013822,space,1,40.248356600059196,40.248356600059196,0.33022779994644225,,,,,,,11033,001,2024_Jan_11_1842,gonogo_S,2021.2.3,60.14726453549538,
go,square.png,space,1462,1.462,1.962,0,10,10,72,,,,,,,,,,,,,,,,,,,,,,,,,41.834540399955586,42.3346025000792,42.31795120006427,43.78794760000892,space,1,41.834540399955586,41.834540399955586,0.2961446999106556,,,,,,,11033,001,2024_Jan_11_1842,gonogo_S,2021.2.3,60.14726453549538,
nogo,triangle.png,None,1118,1.118,1.618,0,11,11,69,,,,,,,,,,,,,,,,,,,,,,,,,43.80373309995048,44.304852900095284,44.288222200004384,45.40576470014639,space,0,43.80373309995048,43.80373309995048,0.3184734000824392,,,,,,,11033,001,2024_Jan_11_1842,gonogo_S,2021.2.3,60.14726453549538,
go,square.png,space,1361,1.361,1.861,0,12,12,67,,,,,,,,,,,,,,,,,,,,,,,,,45.42391510005109,45.92417649994604,45.90750079997815,47.27641330007464,space,1,45.42391510005109,45.42391510005109,0.27447999990545213,,,,,,,11033,001,2024_Jan_11_1842,gonogo_S,2021.2.3,60.14726453549538,
go,square.png,space,1975,1.975,2.475,0,13,13,87,,,,,,,,,,,,,,,,,,,,,,,,,47.29200050001964,47.79251229995862,47.7761196999345,49.76277310005389,space,1,47.29200050001964,47.29200050001964,0.3826820000540465,,,,,,,11033,001,2024_Jan_11_1842,gonogo_S,2021.2.3,60.14726453549538,
nogo,triangle.png,None,1577,1.577,2.077,0,14,14,89,,,,,,,,,,,,,,,,,,,,,,,,,49.77922499994747,50.2805931000039,50.26390710007399,51.849806800018996,None,1,49.77922499994747,49.77922499994747,,,,,,,,11033,001,2024_Jan_11_1842,gonogo_S,2021.2.3,60.14726453549538,
go,square.png,space,1865,1.865,2.365,0,15,15,75,,,,,,,,,,,,,,,,,,,,,,,,,51.86633360013366,52.36702669993974,52.34956820006482,54.219279600074515,space,1,51.86633360013366,51.86633360013366,0.319924000184983,,,,,,,11033,001,2024_Jan_11_1842,gonogo_S,2021.2.3,60.14726453549538,
go,square.png,space,1745,1.745,2.245,0,16,16,38,,,,,,,,,,,,,,,,,,,,,,,,,54.235487800091505,54.73705200012773,54.72035429999232,56.47350710001774,space,1,54.235487800091505,54.235487800091505,0.36740679992362857,,,,,,,11033,001,2024_Jan_11_1842,gonogo_S,2021.2.3,60.14726453549538,
go,square.png,space,1562,1.562,2.0620000000000003,0,17,17,46,,,,,,,,,,,,,,,,,,,,,,,,,56.489643400069326,56.99134650011547,56.9729243000038,58.54275249992497,space,1,56.489643400069326,56.489643400069326,0.3685113999526948,,,,,,,11033,001,2024_Jan_11_1842,gonogo_S,2021.2.3,60.14726453549538,
go,square.png,space,1655,1.655,2.1550000000000002,0,18,18,36,,,,,,,,,,,,,,,,,,,,,,,,,58.55873419996351,59.06052220007405,59.04270899994299,None,space,1,58.55873419996351,58.55873419996351,0.3156508000101894,,,,,,,11033,001,2024_Jan_11_1842,gonogo_S,2021.2.3,60.14726453549538,
go,square.png,space,1536,1.536,2.036,0,19,19,3,,,,,,,,,,,,,,,,,,,,,,,,,60.711826500017196,61.21293870010413,61.197440600022674,62.732084000017494,space,1,60.711826500017196,60.711826500017196,0.3303728001192212,,,,,,,11033,001,2024_Jan_11_1842,gonogo_S,2021.2.3,60.14726453549538,
go,square.png,space,1209,1.209,1.709,0,20,20,10,,,,,,,,,,,,,,,,,,,,,,,,,62.74878269992769,63.249589200131595,63.2328198000323,64.4533734000288,space,1,62.74878269992769,62.74878269992769,0.3337134001776576,,,,,,,11033,001,2024_Jan_11_1842,gonogo_S,2021.2.3,60.14726453549538,
go,square.png,space,1210,1.21,1.71,0,21,21,80,,,,,,,,,,,,,,,,,,,,,,,,,64.46758119994774,64.96898470004089,64.95215840009041,66.17034499999136,space,1,64.46758119994774,64.46758119994774,0.3425998000893742,,,,,,,11033,001,2024_Jan_11_1842,gonogo_S,2021.2.3,60.14726453549538,
go,square.png,space,1513,1.513,2.013,0,22,22,8,,,,,,,,,,,,,,,,,,,,,,,,,66.18659049994312,66.68797550001182,66.67069200007245,68.19157789996825,space,1,66.18659049994312,66.18659049994312,0.40089889988303185,,,,,,,11033,001,2024_Jan_11_1842,gonogo_S,2021.2.3,60.14726453549538,
go,square.png,space,1503,1.503,2.003,0,23,23,78,,,,,,,,,,,,,,,,,,,,,,,,,68.20644460013136,68.70794049999677,68.69107310008258,70.19363530003466,space,1,68.20644460013136,68.20644460013136,0.3482298001181334,,,,,,,11033,001,2024_Jan_11_1842,gonogo_S,2021.2.3,60.14726453549538,
nogo,triangle.png,None,1939,1.939,2.439,0,24,24,65,,,,,,,,,,,,,,,,,,,,,,,,,70.20928990002722,70.71021110005677,70.69403510005213,72.64615019992925,None,1,70.20928990002722,70.20928990002722,,,,,,,,11033,001,2024_Jan_11_1842,gonogo_S,2021.2.3,60.14726453549538,
go,square.png,space,1303,1.303,1.803,0,25,25,70,,,,,,,,,,,,,,,,,,,,,,,,,72.66290950006805,73.16445069992915,73.14723929995671,74.44954619999044,space,1,72.66290950006805,72.66290950006805,0.39619469991885126,,,,,,,11033,001,2024_Jan_11_1842,gonogo_S,2021.2.3,60.14726453549538,
go,square.png,space,1160,1.16,1.66,0,26,26,48,,,,,,,,,,,,,,,,,,,,,,,,,74.46621900005266,74.96698609995656,74.95036180014722,76.1179386000149,space,1,74.46621900005266,74.46621900005266,0.32001150003634393,,,,,,,11033,001,2024_Jan_11_1842,gonogo_S,2021.2.3,60.14726453549538,
nogo,triangle.png,None,1317,1.317,1.817,0,27,27,85,,,,,,,,,,,,,,,,,,,,,,,,,76.13587719993666,76.63653869996779,76.61974909994751,77.93740050005727,None,1,76.13587719993666,76.13587719993666,,,,,,,,11033,001,2024_Jan_11_1842,gonogo_S,2021.2.3,60.14726453549538,
go,square.png,space,1125,1.125,1.625,0,28,28,90,,,,,,,,,,,,,,,,,,,,,,,,,77.95519790006801,78.45581339998171,78.43888140004128,79.57432499993593,space,1,77.95519790006801,77.95519790006801,0.44787060003727674,,,,,,,11033,001,2024_Jan_11_1842,gonogo_S,2021.2.3,60.14726453549538,
go,square.png,space,1121,1.121,1.621,0,29,29,22,,,,,,,,,,,,,,,,,,,,,,,,,79.58993949997239,80.09153180010617,80.07491330010816,None,space,1,79.58993949997239,79.58993949997239,0.36529350001364946,,,,,,,11033,001,2024_Jan_11_1842,gonogo_S,2021.2.3,60.14726453549538,
go,square.png,space,1692,1.692,2.192,0,30,30,30,,,,,,,,,,,,,,,,,,,,,,,,,81.21010320005007,81.71046139998361,81.69368860009126,83.39603210007772,space,1,81.21010320005007,81.21010320005007,0.34419979993253946,,,,,,,11033,001,2024_Jan_11_1842,gonogo_S,2021.2.3,60.14726453549538,
go,square.png,space,1060,1.06,1.56,0,31,31,51,,,,,,,,,,,,,,,,,,,,,,,,,83.41213080007583,83.9128650999628,83.89641789998859,84.9645857999567,space,1,83.41213080007583,83.41213080007583,0.33463829988613725,,,,,,,11033,001,2024_Jan_11_1842,gonogo_S,2021.2.3,60.14726453549538,
nogo,triangle.png,None,1909,1.909,2.409,0,32,32,9,,,,,,,,,,,,,,,,,,,,,,,,,84.98120440007187,85.48250319994986,85.46514430013485,87.3855206000153,None,1,84.98120440007187,84.98120440007187,,,,,,,,11033,001,2024_Jan_11_1842,gonogo_S,2021.2.3,60.14726453549538,
go,square.png,space,1249,1.249,1.749,0,33,33,71,,,,,,,,,,,,,,,,,,,,,,,,,87.40220330003649,87.90306259994395,87.88619180000387,89.13803549995646,space,1,87.40220330003649,87.40220330003649,0.31271520000882447,,,,,,,11033,001,2024_Jan_11_1842,gonogo_S,2021.2.3,60.14726453549538,
go,square.png,space,1189,1.189,1.689,0,34,34,11,,,,,,,,,,,,,,,,,,,,,,,,,89.15400169999339,89.65591119998135,89.6388203999959,90.84064730000682,space,1,89.15400169999339,89.15400169999339,0.31305909994989634,,,,,,,11033,001,2024_Jan_11_1842,gonogo_S,2021.2.3,60.14726453549538,
go,square.png,space,1857,1.857,2.357,0,35,35,2,,,,,,,,,,,,,,,,,,,,,,,,,90.85668359999545,91.3579673001077,91.3412484000437,93.21066570002586,space,1,90.85668359999545,90.85668359999545,0.3056235001422465,,,,,,,11033,001,2024_Jan_11_1842,gonogo_S,2021.2.3,60.14726453549538,
go,square.png,space,1776,1.776,2.276,0,36,36,14,,,,,,,,,,,,,,,,,,,,,,,,,93.22683169995435,93.72817760007456,93.71190430014394,95.49766950006597,space,1,93.22683169995435,93.22683169995435,0.34342160006053746,,,,,,,11033,001,2024_Jan_11_1842,gonogo_S,2021.2.3,60.14726453549538,
go,square.png,space,1843,1.843,2.343,0,37,37,64,,,,,,,,,,,,,,,,,,,,,,,,,95.51441469998099,96.01627440005541,95.99730940000154,97.85025950009003,space,1,95.51441469998099,95.51441469998099,0.32802040013484657,,,,,,,11033,001,2024_Jan_11_1842,gonogo_S,2021.2.3,60.14726453549538,
go,square.png,space,1445,1.445,1.945,0,38,38,74,,,,,,,,,,,,,,,,,,,,,,,,,97.86848920001648,98.36847029998899,98.3517048000358,99.80378800001927,space,1,97.86848920001648,97.86848920001648,0.3819166000466794,,,,,,,11033,001,2024_Jan_11_1842,gonogo_S,2021.2.3,60.14726453549538,
nogo,triangle.png,None,1144,1.144,1.644,0,39,39,41,,,,,,,,,,,,,,,,,,,,,,,,,99.82005059998482,100.3211588000413,100.30399859999306,101.45619149995036,space,0,99.82005059998482,99.82005059998482,0.35065050004050136,,,,,,,11033,001,2024_Jan_11_1842,gonogo_S,2021.2.3,60.14726453549538,
go,square.png,space,1899,1.899,2.399,0,40,40,55,,,,,,,,,,,,,,,,,,,,,,,,,101.47274200012907,101.97295830002986,101.95658540003933,103.85918239993043,space,1,101.47274200012907,101.47274200012907,0.31355469999834895,,,,,,,11033,001,2024_Jan_11_1842,gonogo_S,2021.2.3,60.14726453549538,
go,square.png,space,1437,1.437,1.937,0,41,41,50,,,,,,,,,,,,,,,,,,,,,,,,,103.87594450009055,104.37725110002793,104.36044039996341,None,space,1,103.87594450009055,103.87594450009055,0.31060660001821816,,,,,,,11033,001,2024_Jan_11_1842,gonogo_S,2021.2.3,60.14726453549538,
go,square.png,space,1663,1.663,2.1630000000000003,0,42,42,7,,,,,,,,,,,,,,,,,,,,,,,,,105.81336560007185,106.3129978000652,106.29641599999741,107.96520250011235,space,1,105.81336560007185,105.81336560007185,0.340958199929446,,,,,,,11033,001,2024_Jan_11_1842,gonogo_S,2021.2.3,60.14726453549538,
go,square.png,space,1044,1.044,1.544,0,43,43,92,,,,,,,,,,,,,,,,,,,,,,,,,107.9824439000804,108.48363219993189,108.46660710009746,109.51816710014828,space,1,107.9824439000804,107.9824439000804,0.42792299995198846,,,,,,,11033,001,2024_Jan_11_1842,gonogo_S,2021.2.3,60.14726453549538,
nogo,triangle.png,None,1683,1.683,2.183,0,44,44,29,,,,,,,,,,,,,,,,,,,,,,,,,109.53483140002936,110.03578889998607,110.01941470010206,111.70487609994598,None,1,109.53483140002936,109.53483140002936,,,,,,,,11033,001,2024_Jan_11_1842,gonogo_S,2021.2.3,60.14726453549538,
nogo,triangle.png,None,1366,1.366,1.866,0,45,45,57,,,,,,,,,,,,,,,,,,,,,,,,,111.7214025000576,112.22258309996687,112.20480780000798,113.57384139997885,None,1,111.7214025000576,111.7214025000576,,,,,,,,11033,001,2024_Jan_11_1842,gonogo_S,2021.2.3,60.14726453549538,
go,square.png,space,1899,1.899,2.399,0,46,46,28,,,,,,,,,,,,,,,,,,,,,,,,,113.59093179996125,114.09173450013623,114.07497690012679,115.97899199998938,space,1,113.59093179996125,113.59093179996125,0.30731819989159703,,,,,,,11033,001,2024_Jan_11_1842,gonogo_S,2021.2.3,60.14726453549538,
go,square.png,space,1806,1.806,2.306,0,47,47,63,,,,,,,,,,,,,,,,,,,,,,,,,115.99392569996417,116.4948088999372,116.47781670000404,118.29764820006676,space,1,115.99392569996417,115.99392569996417,0.32867860002443194,,,,,,,11033,001,2024_Jan_11_1842,gonogo_S,2021.2.3,60.14726453549538,
go,square.png,space,1230,1.23,1.73,0,48,48,35,,,,,,,,,,,,,,,,,,,,,,,,,118.31527519994415,118.8156125000678,118.79881380009465,120.03326330007985,space,1,118.31527519994415,118.31527519994415,0.3350262998137623,,,,,,,11033,001,2024_Jan_11_1842,gonogo_S,2021.2.3,60.14726453549538,
go,square.png,space,1849,1.849,2.349,0,49,49,91,,,,,,,,,,,,,,,,,,,,,,,,,120.04984570015222,120.55146450013854,120.53380470001139,122.38879210012965,space,1,120.04984570015222,120.04984570015222,0.34498680010437965,,,,,,,11033,001,2024_Jan_11_1842,gonogo_S,2021.2.3,60.14726453549538,
nogo,triangle.png,None,1218,1.218,1.718,0,50,50,25,,,,,,,,,,,,,,,,,,,,,,,,,122.40435279998928,122.90482980012894,122.88805810012855,124.10561910015531,None,1,122.40435279998928,122.40435279998928,,,,,,,,11033,001,2024_Jan_11_1842,gonogo_S,2021.2.3,60.14726453549538,
go,square.png,space,1552,1.552,2.052,0,51,51,59,,,,,,,,,,,,,,,,,,,,,,,,,124.12291810009629,124.62408889993094,124.60746000008658,126.15904649998993,space,1,124.12291810009629,124.12291810009629,0.3033261999953538,,,,,,,11033,001,2024_Jan_11_1842,gonogo_S,2021.2.3,60.14726453549538,
go,square.png,space,1766,1.766,2.266,0,52,52,23,,,,,,,,,,,,,,,,,,,,,,,,,126.17550899996422,126.67695510014892,126.65985530009493,128.42955450015143,space,1,126.17550899996422,126.17550899996422,0.3475913000293076,,,,,,,11033,001,2024_Jan_11_1842,gonogo_S,2021.2.3,60.14726453549538,
go,square.png,space,1564,1.564,2.064,0,53,53,82,,,,,,,,,,,,,,,,,,,,,,,,,128.4462093000766,128.94690950005315,128.93123580003157,130.4994497001171,space,1,128.4462093000766,128.4462093000766,0.29215139988809824,,,,,,,11033,001,2024_Jan_11_1842,gonogo_S,2021.2.3,60.14726453549538,
go,square.png,space,1991,1.991,2.491,0,54,54,88,,,,,,,,,,,,,,,,,,,,,,,,,130.51613000012003,131.01721590012312,131.00017859996296,133.0031270000618,space,1,130.51613000012003,130.51613000012003,0.35041750012896955,,,,,,,11033,001,2024_Jan_11_1842,gonogo_S,2021.2.3,60.14726453549538,
nogo,triangle.png,None,1924,1.924,2.424,0,55,55,13,,,,,,,,,,,,,,,,,,,,,,,,,133.0191921000369,133.51981460000388,133.50378759996966,135.43997310008854,None,1,133.0191921000369,133.0191921000369,,,,,,,,11033,001,2024_Jan_11_1842,gonogo_S,2021.2.3,60.14726453549538,
go,square.png,space,1111,1.111,1.611,0,56,56,24,,,,,,,,,,,,,,,,,,,,,,,,,135.45673740003258,135.95711500011384,135.94262680015527,137.0583323999308,space,1,135.45673740003258,135.45673740003258,0.27351729990914464,,,,,,,11033,001,2024_Jan_11_1842,gonogo_S,2021.2.3,60.14726453549538,
go,square.png,space,1670,1.67,2.17,0,57,57,94,,,,,,,,,,,,,,,,,,,,,,,,,137.0754651001189,137.5765401001554,137.56040660012513,None,space,1,137.0754651001189,137.0754651001189,0.35080270003527403,,,,,,,11033,001,2024_Jan_11_1842,gonogo_S,2021.2.3,60.14726453549538,
go,square.png,space,1822,1.822,2.322,0,58,58,60,,,,,,,,,,,,,,,,,,,,,,,,,139.24500160012394,139.745581000112,139.72961589996703,141.56535489996895,space,1,139.24500160012394,139.24500160012394,0.3575011999346316,,,,,,,11033,001,2024_Jan_11_1842,gonogo_S,2021.2.3,60.14726453549538,
go,square.png,space,1150,1.15,1.65,0,59,59,19,,,,,,,,,,,,,,,,,,,,,,,,,141.5816657000687,142.08354140003212,142.06694980012253,143.2186575999949,space,1,141.5816657000687,141.5816657000687,0.35678069991990924,,,,,,,11033,001,2024_Jan_11_1842,gonogo_S,2021.2.3,60.14726453549538,
go,square.png,space,1320,1.32,1.82,0,60,60,83,,,,,,,,,,,,,,,,,,,,,,,,,143.2342652999796,143.73480830015615,143.71810039994307,145.03750069998205,space,1,143.2342652999796,143.2342652999796,0.34448040020652115,,,,,,,11033,001,2024_Jan_11_1842,gonogo_S,2021.2.3,60.14726453549538,
nogo,triangle.png,None,1384,1.384,1.884,0,61,61,77,,,,,,,,,,,,,,,,,,,,,,,,,145.05366279999726,145.55417410004884,145.53774569998495,146.92357350001112,None,1,145.05366279999726,145.05366279999726,,,,,,,,11033,001,2024_Jan_11_1842,gonogo_S,2021.2.3,60.14726453549538,
go,square.png,space,1890,1.89,2.3899999999999997,0,62,62,12,,,,,,,,,,,,,,,,,,,,,,,,,146.94045440014452,147.44068560004234,147.42416150006466,149.32657540007494,space,1,146.94045440014452,146.94045440014452,0.28587500005960464,,,,,,,11033,001,2024_Jan_11_1842,gonogo_S,2021.2.3,60.14726453549538,
nogo,triangle.png,None,1867,1.867,2.367,0,63,63,33,,,,,,,,,,,,,,,,,,,,,,,,,149.34405960002914,149.8447994000744,149.8285831999965,151.69740619999357,None,1,149.34405960002914,149.34405960002914,,,,,,,,11033,001,2024_Jan_11_1842,gonogo_S,2021.2.3,60.14726453549538,
go,square.png,space,1889,1.889,2.3890000000000002,0,64,64,15,,,,,,,,,,,,,,,,,,,,,,,,,151.71418240014464,152.21479550004005,152.1997446999885,154.10096570011228,space,1,151.71418240014464,151.71418240014464,0.2882520998828113,,,,,,,11033,001,2024_Jan_11_1842,gonogo_S,2021.2.3,60.14726453549538,
go,square.png,space,1821,1.821,2.3209999999999997,0,65,65,58,,,,,,,,,,,,,,,,,,,,,,,,,154.11697080009617,154.6184286000207,154.6017289001029,156.4216952000279,space,1,154.11697080009617,154.11697080009617,0.30938120000064373,,,,,,,11033,001,2024_Jan_11_1842,gonogo_S,2021.2.3,60.14726453549538,
go,square.png,space,1297,1.297,1.797,0,66,66,56,,,,,,,,,,,,,,,,,,,,,,,,,156.43735269992612,156.93779270001687,156.9212859000545,158.22385310009122,space,1,156.43735269992612,156.43735269992612,0.34990249993279576,,,,,,,11033,001,2024_Jan_11_1842,gonogo_S,2021.2.3,60.14726453549538,
go,square.png,space,1420,1.42,1.92,0,67,67,6,,,,,,,,,,,,,,,,,,,,,,,,,158.23966790013947,158.74088860000484,158.72396870004013,160.1429049000144,space,1,158.23966790013947,158.23966790013947,0.3148129000328481,,,,,,,11033,001,2024_Jan_11_1842,gonogo_S,2021.2.3,60.14726453549538,
nogo,triangle.png,None,1629,1.629,2.129,0,68,68,73,,,,,,,,,,,,,,,,,,,,,,,,,160.15978330001235,160.6598992999643,160.6439758001361,162.2800362999551,None,1,160.15978330001235,160.15978330001235,,,,,,,,11033,001,2024_Jan_11_1842,gonogo_S,2021.2.3,60.14726453549538,
nogo,triangle.png,None,1790,1.79,2.29,0,69,69,93,,,,,,,,,,,,,,,,,,,,,,,,,162.29677959997207,162.79721560003236,162.78063559997827,164.58241849998012,None,1,162.29677959997207,162.29677959997207,,,,,,,,11033,001,2024_Jan_11_1842,gonogo_S,2021.2.3,60.14726453549538,
go,square.png,space,1240,1.24,1.74,0,70,70,86,,,,,,,,,,,,,,,,,,,,,,,,,164.59921220014803,165.09996760007925,165.08395210001618,166.33623680006713,space,1,164.59921220014803,164.59921220014803,0.41937090014107525,,,,,,,11033,001,2024_Jan_11_1842,gonogo_S,2021.2.3,60.14726453549538,
nogo,triangle.png,None,1325,1.325,1.825,0,71,71,17,,,,,,,,,,,,,,,,,,,,,,,,,166.3518493999727,166.85351289995015,166.83639440010302,168.17115049995482,None,1,166.3518493999727,166.3518493999727,,,,,,,,11033,001,2024_Jan_11_1842,gonogo_S,2021.2.3,60.14726453549538,
go,square.png,space,1155,1.155,1.655,0,72,72,0,,,,,,,,,,,,,,,,,,,,,,,,,168.18770070001483,168.68966199993156,168.6724547999911,169.84168810001574,space,1,168.18770070001483,168.18770070001483,0.2949715000577271,,,,,,,11033,001,2024_Jan_11_1842,gonogo_S,2021.2.3,60.14726453549538,
nogo,triangle.png,None,1190,1.19,1.69,0,73,73,53,,,,,,,,,,,,,,,,,,,,,,,,,169.85693900007755,170.35854570008814,170.34225030010566,171.5434340001084,None,1,169.85693900007755,169.85693900007755,,,,,,,,11033,001,2024_Jan_11_1842,gonogo_S,2021.2.3,60.14726453549538,
go,square.png,space,1900,1.9,2.4,0,74,74,52,,,,,,,,,,,,,,,,,,,,,,,,,171.56000700010918,172.06067109992728,172.044098299928,173.94667199999094,space,1,171.56000700010918,171.56000700010918,0.298719699960202,,,,,,,11033,001,2024_Jan_11_1842,gonogo_S,2021.2.3,60.14726453549538,
nogo,triangle.png,None,1542,1.542,2.042,0,75,75,21,,,,,,,,,,,,,,,,,,,,,,,,,173.96318640001118,174.46441440004855,174.44762829993851,175.99978980002925,None,1,173.96318640001118,173.96318640001118,,,,,,,,11033,001,2024_Jan_11_1842,gonogo_S,2021.2.3,60.14726453549538,
go,square.png,space,1520,1.52,2.02,0,76,76,32,,,,,,,,,,,,,,,,,,,,,,,,,176.01605540001765,176.5169172999449,176.50081899994984,178.01985769998282,space,1,176.01605540001765,176.01605540001765,0.45062250015325844,,,,,,,11033,001,2024_Jan_11_1842,gonogo_S,2021.2.3,60.14726453549538,
go,square.png,space,1148,1.148,1.648,0,77,77,4,,,,,,,,,,,,,,,,,,,,,,,,,178.03567559993826,178.536621700041,178.520065800054,179.67171610007063,space,1,178.03567559993826,178.03567559993826,0.41553550004027784,,,,,,,11033,001,2024_Jan_11_1842,gonogo_S,2021.2.3,60.14726453549538,
nogo,triangle.png,None,1569,1.569,2.069,0,78,78,45,,,,,,,,,,,,,,,,,,,,,,,,,179.68809940014035,180.1896379000973,180.17223599995486,181.741617300082,None,1,179.68809940014035,179.68809940014035,,,,,,,,11033,001,2024_Jan_11_1842,gonogo_S,2021.2.3,60.14726453549538,
go,square.png,space,1546,1.546,2.0460000000000003,0,79,79,68,,,,,,,,,,,,,,,,,,,,,,,,,181.75785379996523,182.25961209996603,182.2427316000685,183.7950329000596,space,1,181.75785379996523,181.75785379996523,0.3652226000558585,,,,,,,11033,001,2024_Jan_11_1842,gonogo_S,2021.2.3,60.14726453549538,
go,square.png,space,1190,1.19,1.69,0,80,80,16,,,,,,,,,,,,,,,,,,,,,,,,,183.8110007001087,184.3131955000572,184.295042200014,185.4977937999647,space,1,183.8110007001087,183.8110007001087,0.3433546000160277,,,,,,,11033,001,2024_Jan_11_1842,gonogo_S,2021.2.3,60.14726453549538,
nogo,triangle.png,None,1771,1.771,2.271,0,81,81,1,,,,,,,,,,,,,,,,,,,,,,,,,185.51405190001242,186.0146478000097,185.99810279998928,None,None,1,185.51405190001242,185.51405190001242,,,,,,,,11033,001,2024_Jan_11_1842,gonogo_S,2021.2.3,60.14726453549538,
go,square.png,space,1731,1.731,2.231,0,82,82,42,,,,,,,,,,,,,,,,,,,,,,,,,187.78651280002668,188.30072510009632,188.2679031000007,190.004273599945,space,1,187.78651280002668,187.78651280002668,0.36944780009798706,,,,,,,11033,001,2024_Jan_11_1842,gonogo_S,2021.2.3,60.14726453549538,
nogo,triangle.png,None,1450,1.45,1.95,0,83,83,37,,,,,,,,,,,,,,,,,,,,,,,,,190.02069330005907,190.5209302001167,190.5046306999866,191.95667740004137,None,1,190.02069330005907,190.02069330005907,,,,,,,,11033,001,2024_Jan_11_1842,gonogo_S,2021.2.3,60.14726453549538,
go,square.png,space,1428,1.428,1.928,0,84,84,62,,,,,,,,,,,,,,,,,,,,,,,,,191.97412639996037,192.4747170000337,192.4572129000444,193.89325039996766,space,1,191.97412639996037,191.97412639996037,0.2922543999738991,,,,,,,11033,001,2024_Jan_11_1842,gonogo_S,2021.2.3,60.14726453549538,
nogo,triangle.png,None,1273,1.273,1.773,0,85,85,5,,,,,,,,,,,,,,,,,,,,,,,,,193.9093558001332,194.41068780003116,194.3943318000529,195.67974460008554,None,1,193.9093558001332,193.9093558001332,,,,,,,,11033,001,2024_Jan_11_1842,gonogo_S,2021.2.3,60.14726453549538,
go,square.png,space,1780,1.78,2.2800000000000002,0,86,86,18,,,,,,,,,,,,,,,,,,,,,,,,,195.6953480001539,196.1957543999888,196.17944700014777,197.96664820006117,space,1,195.6953480001539,195.6953480001539,0.2835059000644833,,,,,,,11033,001,2024_Jan_11_1842,gonogo_S,2021.2.3,60.14726453549538,
go,square.png,space,1194,1.194,1.694,0,87,87,26,,,,,,,,,,,,,,,,,,,,,,,,,197.98267109994777,198.48270970000885,198.46607580012642,199.6699866000563,space,1,197.98267109994777,197.98267109994777,0.3638513998594135,,,,,,,11033,001,2024_Jan_11_1842,gonogo_S,2021.2.3,60.14726453549538,
go,square.png,space,1069,1.069,1.569,0,88,88,20,,,,,,,,,,,,,,,,,,,,,,,,,199.68442930001765,200.18600079999305,200.16924450010993,201.2374660000205,space,1,199.68442930001765,199.68442930001765,0.35808799997903407,,,,,,,11033,001,2024_Jan_11_1842,gonogo_S,2021.2.3,60.14726453549538,
nogo,triangle.png,None,1559,1.559,2.059,0,89,89,61,,,,,,,,,,,,,,,,,,,,,,,,,201.25349529995583,201.7542077000253,201.73770670010708,203.30722160008736,None,1,201.25349529995583,201.25349529995583,,,,,,,,11033,001,2024_Jan_11_1842,gonogo_S,2021.2.3,60.14726453549538,
go,square.png,space,1973,1.973,2.473,0,90,90,44,,,,,,,,,,,,,,,,,,,,,,,,,203.32328290003352,203.8245761001017,203.80720159993507,205.7933758001309,space,1,203.32328290003352,203.32328290003352,0.39115580008365214,,,,,,,11033,001,2024_Jan_11_1842,gonogo_S,2021.2.3,60.14726453549538,
go,square.png,space,1513,1.513,2.013,0,91,91,31,,,,,,,,,,,,,,,,,,,,,,,,,205.81022510002367,206.31208820012398,206.2949995000381,207.81354260002263,space,1,205.81022510002367,205.81022510002367,0.3444173999596387,,,,,,,11033,001,2024_Jan_11_1842,gonogo_S,2021.2.3,60.14726453549538,
nogo,triangle.png,None,1659,1.659,2.159,0,92,92,49,,,,,,,,,,,,,,,,,,,,,,,,,207.82987769995816,208.33063490013592,208.31374030001462,209.98376250010915,None,1,207.82987769995816,207.82987769995816,,,,,,,,11033,001,2024_Jan_11_1842,gonogo_S,2021.2.3,60.14726453549538,
go,square.png,space,1387,1.387,1.887,0,93,93,66,,,,,,,,,,,,,,,,,,,,,,,,,210.00014659995213,210.50044260011055,210.48429809999652,211.86924239993095,space,1,210.00014659995213,210.00014659995213,0.28323489986360073,,,,,,,11033,001,2024_Jan_11_1842,gonogo_S,2021.2.3,60.14726453549538,
go,square.png,space,1331,1.331,1.831,0,94,94,27,,,,,,,,,,,,,,,,,,,,,,,,,211.9026139001362,212.4032571001444,212.38751760008745,213.72446619998664,space,1,211.9026139001362,211.9026139001362,0.34836229984648526,,,,,,,11033,001,2024_Jan_11_1842,gonogo_S,2021.2.3,60.14726453549538,
go,square.png,space,1503,1.503,2.003,0,95,95,79,,,,,,,,,,,,,,,,,,,,,,,,,213.738638299983,214.23935759998858,214.2226348000113,215.72564940014854,space,1,213.738638299983,213.738638299983,0.3692620999645442,,,,,,,11033,001,2024_Jan_11_1842,gonogo_S,2021.2.3,60.14726453549538,
,,,,,,,,,,,,,,,,,,,,,,,,,,,,,,,,,,,,,,,,,,,215.7422191000078,None,space,337.89311689999886,215.7422191000078,None,11033,001,2024_Jan_11_1842,gonogo_S,2021.2.3,60.14726453549538,
