TrialType,Path,Correct,ms,s,ks,trials_4.thisRepN,trials_4.thisTrialN,trials_4.thisN,trials_4.thisIndex,welcome.started,welcome.stopped,space.started,space.stopped,key_resp.keys,key_resp.rt,key_resp.started,key_resp.stopped,Fixwarn.started,Fixwarn.stopped,table.started,table.stopped,key_resp__0.keys,key_resp__0.rt,key_resp__0.started,key_resp__0.stopped,type.started,type.stopped,space_3.started,space_3.stopped,key_resp_6.keys,key_resp_6.rt,key_resp_6.started,key_resp_6.stopped,stim_2.started,stim_2.stopped,text_2.started,text_2.stopped,key_resp_9.keys,key_resp_9.corr,key_resp_9.rt,key_resp_9.started,key_resp_9.stopped,END.started,END.stopped,key_resp_2.keys,key_resp_2.rt,key_resp_2.started,key_resp_2.stopped,participant,session,date,expName,psychopyVersion,frameRate,
,,,,,,,,,,9.560326700098813,None,9.560326700098813,None,space,147.14894489990547,9.560326700098813,None,,,,,,,,,,,,,,,,,,,,,,,,,,,,,,,,11038,001,2024_Mar_11_1627,gonogo_S,2021.2.3,59.9243395248409,
,,,,,,,,,,,,,,,,,,156.73080440005288,None,156.73080440005288,None,space,2.5627208000514656,156.73080440005288,None,,,,,,,,,,,,,,,,,,,,,,,,11038,001,2024_Mar_11_1627,gonogo_S,2021.2.3,59.9243395248409,
,,,,,,,,,,,,,,,,,,,,,,,,,,159.33555170008913,None,159.33555170008913,None,space,4.950035500107333,159.33555170008913,None,,,,,,,,,,,,,,,,11038,001,2024_Mar_11_1627,gonogo_S,2021.2.3,59.9243395248409,
go,square.png,space,1520,1.52,2.02,0,0,0,32,,,,,,,,,,,,,,,,,,,,,,,,,164.3756727001164,164.87727670022286,164.85974540002644,None,space,1,0.5503521000500768,164.3756727001164,None,,,,,,,11038,001,2024_Mar_11_1627,gonogo_S,2021.2.3,59.9243395248409,
nogo,triangle.png,None,1924,1.924,2.424,0,1,1,13,,,,,,,,,,,,,,,,,,,,,,,,,166.39513750001788,166.89663890004158,166.87947100005113,168.81593060004525,None,1,,166.39513750001788,166.39513750001788,,,,,,,11038,001,2024_Mar_11_1627,gonogo_S,2021.2.3,59.9243395248409,
nogo,triangle.png,None,1190,1.19,1.69,0,2,2,53,,,,,,,,,,,,,,,,,,,,,,,,,168.83226660010405,169.33308730018325,169.3164081000723,170.51880800002255,None,1,,168.83226660010405,168.83226660010405,,,,,,,11038,001,2024_Mar_11_1627,gonogo_S,2021.2.3,59.9243395248409,
go,square.png,space,1297,1.297,1.797,0,3,3,56,,,,,,,,,,,,,,,,,,,,,,,,,170.5353760002181,171.03791760001332,171.01889670011587,172.32210310013033,space,1,0.30224360013380647,170.5353760002181,170.5353760002181,,,,,,,11038,001,2024_Mar_11_1627,gonogo_S,2021.2.3,59.9243395248409,
nogo,triangle.png,None,1771,1.771,2.271,0,4,4,1,,,,,,,,,,,,,,,,,,,,,,,,,172.33785130013712,172.83846030011773,172.82265860005282,None,None,1,,172.33785130013712,172.33785130013712,,,,,,,11038,001,2024_Mar_11_1627,gonogo_S,2021.2.3,59.9243395248409,
nogo,triangle.png,None,1317,1.317,1.817,0,5,5,85,,,,,,,,,,,,,,,,,,,,,,,,,174.6083487002179,175.1092501000967,175.09243190009147,176.41053750016727,None,1,,174.6083487002179,174.6083487002179,,,,,,,11038,001,2024_Mar_11_1627,gonogo_S,2021.2.3,59.9243395248409,
nogo,triangle.png,None,1450,1.45,1.95,0,6,6,37,,,,,,,,,,,,,,,,,,,,,,,,,176.4279724000953,176.92995410016738,176.91104680020362,178.36437480011955,None,1,,176.4279724000953,176.4279724000953,,,,,,,11038,001,2024_Mar_11_1627,gonogo_S,2021.2.3,59.9243395248409,
go,square.png,space,1437,1.437,1.937,0,7,7,50,,,,,,,,,,,,,,,,,,,,,,,,,178.38062130007893,178.88163930014707,178.86484500020742,None,space,1,0.26582060009241104,178.38062130007893,178.38062130007893,,,,,,,11038,001,2024_Mar_11_1627,gonogo_S,2021.2.3,59.9243395248409,
go,square.png,space,1766,1.766,2.266,0,8,8,23,,,,,,,,,,,,,,,,,,,,,,,,,180.31627170019783,180.81746220006607,180.80046500009485,182.5699702000711,space,1,0.4097583999391645,180.31627170019783,180.31627170019783,,,,,,,11038,001,2024_Mar_11_1627,gonogo_S,2021.2.3,59.9243395248409,
go,square.png,space,1209,1.209,1.709,0,9,9,10,,,,,,,,,,,,,,,,,,,,,,,,,182.58664029999636,183.08807260007598,183.07151420018636,184.2895506999921,space,1,0.3313362000044435,182.58664029999636,182.58664029999636,,,,,,,11038,001,2024_Mar_11_1627,gonogo_S,2021.2.3,59.9243395248409,
go,square.png,space,1562,1.562,2.0620000000000003,0,10,10,46,,,,,,,,,,,,,,,,,,,,,,,,,184.30566330021247,184.80661670002155,184.7897109000478,186.35952890012413,space,1,0.3574928001035005,184.30566330021247,184.30566330021247,,,,,,,11038,001,2024_Mar_11_1627,gonogo_S,2021.2.3,59.9243395248409,
go,square.png,space,1462,1.462,1.962,0,11,11,72,,,,,,,,,,,,,,,,,,,,,,,,,186.37677940004505,186.87695050006732,186.86032790015452,188.32910890015773,space,1,0.30973410001024604,186.37677940004505,186.37677940004505,,,,,,,11038,001,2024_Mar_11_1627,gonogo_S,2021.2.3,59.9243395248409,
go,square.png,space,1387,1.387,1.887,0,12,12,66,,,,,,,,,,,,,,,,,,,,,,,,,188.3451953001786,188.8459909001831,188.82936470001005,None,space,1,0.301497699925676,188.3451953001786,188.3451953001786,,,,,,,11038,001,2024_Mar_11_1627,gonogo_S,2021.2.3,59.9243395248409,
go,square.png,space,1670,1.67,2.17,0,13,13,94,,,,,,,,,,,,,,,,,,,,,,,,,190.23124880017713,190.73208900005557,190.71538590011187,192.38622350012884,space,1,0.33540050010196865,190.23124880017713,190.23124880017713,,,,,,,11038,001,2024_Mar_11_1627,gonogo_S,2021.2.3,59.9243395248409,
nogo,triangle.png,None,1559,1.559,2.059,0,14,14,61,,,,,,,,,,,,,,,,,,,,,,,,,192.4013679001946,192.90272320015356,192.88659170013852,194.45430780015886,None,1,,192.4013679001946,192.4013679001946,,,,,,,11038,001,2024_Mar_11_1627,gonogo_S,2021.2.3,59.9243395248409,
nogo,triangle.png,None,1790,1.79,2.29,0,15,15,93,,,,,,,,,,,,,,,,,,,,,,,,,194.47211540001445,194.9719270002097,194.95499190012924,196.7577719001565,None,1,,194.47211540001445,194.47211540001445,,,,,,,11038,001,2024_Mar_11_1627,gonogo_S,2021.2.3,59.9243395248409,
go,square.png,space,1967,1.967,2.467,0,16,16,54,,,,,,,,,,,,,,,,,,,,,,,,,196.77525940001942,197.27667130017653,197.25899560004473,199.2288018001709,space,1,0.2633527999278158,196.77525940001942,196.77525940001942,,,,,,,11038,001,2024_Mar_11_1627,gonogo_S,2021.2.3,59.9243395248409,
go,square.png,space,1428,1.428,1.928,0,17,17,62,,,,,,,,,,,,,,,,,,,,,,,,,199.24486710014753,199.74660620000213,199.72970720008016,201.16436020005494,space,1,0.27384000015445054,199.24486710014753,199.24486710014753,,,,,,,11038,001,2024_Mar_11_1627,gonogo_S,2021.2.3,59.9243395248409,
go,square.png,space,1843,1.843,2.343,0,18,18,64,,,,,,,,,,,,,,,,,,,,,,,,,201.1812604002189,201.68204080010764,201.66561330016702,203.51790720014833,space,1,0.26527890004217625,201.1812604002189,201.1812604002189,,,,,,,11038,001,2024_Mar_11_1627,gonogo_S,2021.2.3,59.9243395248409,
go,square.png,space,1731,1.731,2.231,0,19,19,42,,,,,,,,,,,,,,,,,,,,,,,,,203.53466350003146,204.0364815001376,204.01953400019556,205.755195800215,space,1,0.30390669987536967,203.53466350003146,203.53466350003146,,,,,,,11038,001,2024_Mar_11_1627,gonogo_S,2021.2.3,59.9243395248409,
go,square.png,space,1552,1.552,2.052,0,20,20,59,,,,,,,,,,,,,,,,,,,,,,,,,205.77187689999118,206.2733858001884,206.25773860001937,None,space,1,0.2588361999951303,205.77187689999118,205.77187689999118,,,,,,,11038,001,2024_Mar_11_1627,gonogo_S,2021.2.3,59.9243395248409,
go,square.png,space,1899,1.899,2.399,0,21,21,28,,,,,,,,,,,,,,,,,,,,,,,,,207.82537980005145,208.3253171001561,208.30859930021688,210.21271049999632,space,1,0.2531926999799907,207.82537980005145,207.82537980005145,,,,,,,11038,001,2024_Mar_11_1627,gonogo_S,2021.2.3,59.9243395248409,
go,square.png,space,1249,1.249,1.749,0,22,22,71,,,,,,,,,,,,,,,,,,,,,,,,,210.2281043000985,210.7298362001311,210.71226230007596,211.96425940003246,space,1,0.2511202001478523,210.2281043000985,210.2281043000985,,,,,,,11038,001,2024_Mar_11_1627,gonogo_S,2021.2.3,59.9243395248409,
go,square.png,space,1672,1.672,2.1719999999999997,0,23,23,84,,,,,,,,,,,,,,,,,,,,,,,,,211.9807971001137,212.4816913001705,212.4646353002172,214.15147780021653,space,1,0.29829940013587475,211.9807971001137,211.9807971001137,,,,,,,11038,001,2024_Mar_11_1627,gonogo_S,2021.2.3,59.9243395248409,
nogo,triangle.png,None,1577,1.577,2.077,0,24,24,89,,,,,,,,,,,,,,,,,,,,,,,,,214.1675587000791,214.66829659999348,214.65230260021053,216.23800850007683,None,1,,214.1675587000791,214.1675587000791,,,,,,,11038,001,2024_Mar_11_1627,gonogo_S,2021.2.3,59.9243395248409,
go,square.png,space,1084,1.084,1.584,0,25,25,95,,,,,,,,,,,,,,,,,,,,,,,,,216.25496670021676,216.75670940009877,216.73808170016855,217.82297520013526,space,1,0.30394220002926886,216.25496670021676,216.25496670021676,,,,,,,11038,001,2024_Mar_11_1627,gonogo_S,2021.2.3,59.9243395248409,
go,square.png,space,1900,1.9,2.4,0,26,26,52,,,,,,,,,,,,,,,,,,,,,,,,,217.83966440008953,218.34040580014698,218.32342960010283,220.22656120010652,space,1,0.2791847998742014,217.83966440008953,217.83966440008953,,,,,,,11038,001,2024_Mar_11_1627,gonogo_S,2021.2.3,59.9243395248409,
go,square.png,space,1513,1.513,2.013,0,27,27,8,,,,,,,,,,,,,,,,,,,,,,,,,220.24415140016936,220.74400030006655,220.72798720002174,222.24706330010667,space,1,0.3071981000248343,220.24415140016936,220.24415140016936,,,,,,,11038,001,2024_Mar_11_1627,gonogo_S,2021.2.3,59.9243395248409,
nogo,triangle.png,None,1144,1.144,1.644,0,28,28,41,,,,,,,,,,,,,,,,,,,,,,,,,222.26327740005217,222.76368730003014,222.74711460014805,223.90046950010583,None,1,,222.26327740005217,222.26327740005217,,,,,,,11038,001,2024_Mar_11_1627,gonogo_S,2021.2.3,59.9243395248409,
go,square.png,space,1110,1.11,1.61,0,29,29,76,,,,,,,,,,,,,,,,,,,,,,,,,223.91609860002063,224.41643450013362,224.4003873001784,225.51780260005035,space,1,0.2675272000487894,223.91609860002063,223.91609860002063,,,,,,,11038,001,2024_Mar_11_1627,gonogo_S,2021.2.3,59.9243395248409,
nogo,triangle.png,None,1436,1.436,1.936,0,30,30,81,,,,,,,,,,,,,,,,,,,,,,,,,225.53445430006832,226.03545290022157,226.01875540008768,227.45498750009574,None,1,,225.53445430006832,225.53445430006832,,,,,,,11038,001,2024_Mar_11_1627,gonogo_S,2021.2.3,59.9243395248409,
nogo,triangle.png,None,1659,1.659,2.159,0,31,31,49,,,,,,,,,,,,,,,,,,,,,,,,,227.47138480003923,227.9725839002058,227.95520140021108,229.6246725001838,None,1,,227.47138480003923,227.47138480003923,,,,,,,11038,001,2024_Mar_11_1627,gonogo_S,2021.2.3,59.9243395248409,
go,square.png,space,1692,1.692,2.192,0,32,32,30,,,,,,,,,,,,,,,,,,,,,,,,,229.64093570015393,230.1415425001178,230.12567300000228,231.82746830000542,space,1,0.27912340010516346,229.64093570015393,229.64093570015393,,,,,,,11038,001,2024_Mar_11_1627,gonogo_S,2021.2.3,59.9243395248409,
nogo,triangle.png,None,1118,1.118,1.618,0,33,33,69,,,,,,,,,,,,,,,,,,,,,,,,,231.84409410017543,232.34507620008662,232.32846490014344,233.44685570010915,None,1,,231.84409410017543,231.84409410017543,,,,,,,11038,001,2024_Mar_11_1627,gonogo_S,2021.2.3,59.9243395248409,
go,square.png,space,1111,1.111,1.611,0,34,34,24,,,,,,,,,,,,,,,,,,,,,,,,,233.4632399000693,233.96403680020012,233.94735810020939,235.06605770019814,space,1,0.3599618000444025,233.4632399000693,233.4632399000693,,,,,,,11038,001,2024_Mar_11_1627,gonogo_S,2021.2.3,59.9243395248409,
go,square.png,space,1513,1.513,2.013,0,35,35,31,,,,,,,,,,,,,,,,,,,,,,,,,235.08369190013036,235.5830207001418,235.5671025000047,237.08620210015215,space,1,0.4280610999558121,235.08369190013036,235.08369190013036,,,,,,,11038,001,2024_Mar_11_1627,gonogo_S,2021.2.3,59.9243395248409,
go,square.png,space,1536,1.536,2.036,0,36,36,3,,,,,,,,,,,,,,,,,,,,,,,,,237.10233630007133,237.60370090021752,237.58690560003743,None,space,1,0.28099239990115166,237.10233630007133,237.10233630007133,,,,,,,11038,001,2024_Mar_11_1627,gonogo_S,2021.2.3,59.9243395248409,
nogo,triangle.png,None,1569,1.569,2.069,0,37,37,45,,,,,,,,,,,,,,,,,,,,,,,,,239.13847250002436,239.6402965001762,239.6237499001436,241.1927285999991,None,1,,239.13847250002436,239.13847250002436,,,,,,,11038,001,2024_Mar_11_1627,gonogo_S,2021.2.3,59.9243395248409,
nogo,triangle.png,None,1683,1.683,2.183,0,38,38,29,,,,,,,,,,,,,,,,,,,,,,,,,241.20830550021492,241.70928030018695,241.69284160016105,243.37921120016836,None,1,,241.20830550021492,241.20830550021492,,,,,,,11038,001,2024_Mar_11_1627,gonogo_S,2021.2.3,59.9243395248409,
go,square.png,space,1865,1.865,2.365,0,39,39,75,,,,,,,,,,,,,,,,,,,,,,,,,243.39528120006435,243.89643690013327,243.8803880000487,245.74879550002515,space,1,0.28574760002084076,243.39528120006435,243.39528120006435,,,,,,,11038,001,2024_Mar_11_1627,gonogo_S,2021.2.3,59.9243395248409,
go,square.png,space,1303,1.303,1.803,0,40,40,70,,,,,,,,,,,,,,,,,,,,,,,,,245.76554720010608,246.26612810022198,246.25024980003946,247.55161110009067,space,1,0.2984493998810649,245.76554720010608,245.76554720010608,,,,,,,11038,001,2024_Mar_11_1627,gonogo_S,2021.2.3,59.9243395248409,
go,square.png,space,1776,1.776,2.276,0,41,41,14,,,,,,,,,,,,,,,,,,,,,,,,,247.5678319002036,248.0694613000378,248.05222770012915,249.83800410013646,space,1,0.26414910005405545,247.5678319002036,247.5678319002036,,,,,,,11038,001,2024_Mar_11_1627,gonogo_S,2021.2.3,59.9243395248409,
go,square.png,space,1503,1.503,2.003,0,42,42,79,,,,,,,,,,,,,,,,,,,,,,,,,249.8544662001077,250.3561759002041,250.33934560022317,None,space,1,0.2732424000278115,249.8544662001077,249.8544662001077,,,,,,,11038,001,2024_Mar_11_1627,gonogo_S,2021.2.3,59.9243395248409,
go,square.png,space,1821,1.821,2.3209999999999997,0,43,43,58,,,,,,,,,,,,,,,,,,,,,,,,,251.85752960015088,252.3590465001762,252.3416417001281,254.1613162001595,space,1,0.25499800010584295,251.85752960015088,251.85752960015088,,,,,,,11038,001,2024_Mar_11_1627,gonogo_S,2021.2.3,59.9243395248409,
go,square.png,space,1663,1.663,2.1630000000000003,0,44,44,7,,,,,,,,,,,,,,,,,,,,,,,,,254.17835570010357,254.67831480014138,254.66239990014583,256.3308041000273,space,1,0.293596199946478,254.17835570010357,254.17835570010357,,,,,,,11038,001,2024_Mar_11_1627,gonogo_S,2021.2.3,59.9243395248409,
go,square.png,space,1849,1.849,2.349,0,45,45,91,,,,,,,,,,,,,,,,,,,,,,,,,256.34769339999184,256.84927810006775,256.8324308001902,258.68547720019706,space,1,0.26029130001552403,256.34769339999184,256.34769339999184,,,,,,,11038,001,2024_Mar_11_1627,gonogo_S,2021.2.3,59.9243395248409,
go,square.png,space,1503,1.503,2.003,0,46,46,78,,,,,,,,,,,,,,,,,,,,,,,,,258.7013637002092,259.2020026000682,259.18553800019436,None,space,1,0.24290760001167655,258.7013637002092,258.7013637002092,,,,,,,11038,001,2024_Mar_11_1627,gonogo_S,2021.2.3,59.9243395248409,
go,square.png,space,1160,1.16,1.66,0,47,47,48,,,,,,,,,,,,,,,,,,,,,,,,,260.7052869000472,261.2061653002165,261.18836020003073,262.3584403002169,space,1,0.26298980019055307,260.7052869000472,260.7052869000472,,,,,,,11038,001,2024_Mar_11_1627,gonogo_S,2021.2.3,59.9243395248409,
go,square.png,space,1189,1.189,1.689,0,48,48,11,,,,,,,,,,,,,,,,,,,,,,,,,262.3734498000704,262.87397770001553,262.8575322001707,264.0592264002189,space,1,0.2509210000280291,262.3734498000704,262.3734498000704,,,,,,,11038,001,2024_Mar_11_1627,gonogo_S,2021.2.3,59.9243395248409,
go,square.png,space,1227,1.227,1.727,0,49,49,34,,,,,,,,,,,,,,,,,,,,,,,,,264.0759458001703,264.57691709999926,264.56102590006776,265.7959830001928,space,1,0.24432389996945858,264.0759458001703,264.0759458001703,,,,,,,11038,001,2024_Mar_11_1627,gonogo_S,2021.2.3,59.9243395248409,
go,square.png,space,1361,1.361,1.861,0,50,50,67,,,,,,,,,,,,,,,,,,,,,,,,,265.81176770012826,266.3128889000509,266.2961080002133,267.6645218001213,space,1,0.23678209981881082,265.81176770012826,265.81176770012826,,,,,,,11038,001,2024_Mar_11_1627,gonogo_S,2021.2.3,59.9243395248409,
nogo,triangle.png,None,1867,1.867,2.367,0,51,51,33,,,,,,,,,,,,,,,,,,,,,,,,,267.68121960014105,268.18424150021747,268.1656167001929,270.0356518002227,None,1,,267.68121960014105,267.68121960014105,,,,,,,11038,001,2024_Mar_11_1627,gonogo_S,2021.2.3,59.9243395248409,
nogo,triangle.png,None,1218,1.218,1.718,0,52,52,25,,,,,,,,,,,,,,,,,,,,,,,,,270.0524364002049,270.5525341001339,270.53636750020087,271.75516100018285,None,1,,270.0524364002049,270.0524364002049,,,,,,,11038,001,2024_Mar_11_1627,gonogo_S,2021.2.3,59.9243395248409,
nogo,triangle.png,None,1939,1.939,2.439,0,53,53,65,,,,,,,,,,,,,,,,,,,,,,,,,271.77095310017467,272.2726517000701,272.2550123000983,274.2088142000139,None,1,,271.77095310017467,271.77095310017467,,,,,,,11038,001,2024_Mar_11_1627,gonogo_S,2021.2.3,59.9243395248409,
go,square.png,space,1194,1.194,1.694,0,54,54,26,,,,,,,,,,,,,,,,,,,,,,,,,274.2247439001221,274.7263514001388,274.7087076001335,275.91046540020034,space,1,0.23225210001692176,274.2247439001221,274.2247439001221,,,,,,,11038,001,2024_Mar_11_1627,gonogo_S,2021.2.3,59.9243395248409,
go,square.png,space,1546,1.546,2.0460000000000003,0,55,55,68,,,,,,,,,,,,,,,,,,,,,,,,,275.9275570001919,276.4280646000989,276.4117643001955,277.96456680004485,space,1,0.25725240004248917,275.9275570001919,275.9275570001919,,,,,,,11038,001,2024_Mar_11_1627,gonogo_S,2021.2.3,59.9243395248409,
nogo,triangle.png,None,1273,1.273,1.773,0,56,56,5,,,,,,,,,,,,,,,,,,,,,,,,,277.9806198000442,278.4817805001512,278.4642652000766,279.75047650001943,None,1,,277.9806198000442,277.9806198000442,,,,,,,11038,001,2024_Mar_11_1627,gonogo_S,2021.2.3,59.9243395248409,
nogo,triangle.png,None,1629,1.629,2.129,0,57,57,73,,,,,,,,,,,,,,,,,,,,,,,,,279.7672279002145,280.26790970005095,280.2512593001593,281.8868864001706,None,1,,279.7672279002145,279.7672279002145,,,,,,,11038,001,2024_Mar_11_1627,gonogo_S,2021.2.3,59.9243395248409,
go,square.png,space,1054,1.054,1.554,0,58,58,39,,,,,,,,,,,,,,,,,,,,,,,,,281.90359560004435,282.4035578002222,282.38711790018715,283.45621750014834,space,1,0.29744140012189746,281.90359560004435,281.90359560004435,,,,,,,11038,001,2024_Mar_11_1627,gonogo_S,2021.2.3,59.9243395248409,
go,square.png,space,1060,1.06,1.56,0,59,59,51,,,,,,,,,,,,,,,,,,,,,,,,,283.47200240008533,283.97252110019326,283.9566342001781,285.0243927000556,space,1,0.24952919990755618,283.47200240008533,283.47200240008533,,,,,,,11038,001,2024_Mar_11_1627,gonogo_S,2021.2.3,59.9243395248409,
go,square.png,space,1655,1.655,2.1550000000000002,0,60,60,36,,,,,,,,,,,,,,,,,,,,,,,,,285.0418660000432,285.5424001000356,285.52564090001397,287.1942073001992,space,1,0.263497699983418,285.0418660000432,285.0418660000432,,,,,,,11038,001,2024_Mar_11_1627,gonogo_S,2021.2.3,59.9243395248409,
go,square.png,space,1069,1.069,1.569,0,61,61,20,,,,,,,,,,,,,,,,,,,,,,,,,287.21204790007323,287.7116480001714,287.69508270011283,288.78119920007885,space,1,0.3331037999596447,287.21204790007323,287.21204790007323,,,,,,,11038,001,2024_Mar_11_1627,gonogo_S,2021.2.3,59.9243395248409,
go,square.png,space,1125,1.125,1.625,0,62,62,90,,,,,,,,,,,,,,,,,,,,,,,,,288.79669490014203,289.29737060004845,289.28172329999506,290.4166174000129,space,1,0.26034620008431375,288.79669490014203,288.79669490014203,,,,,,,11038,001,2024_Mar_11_1627,gonogo_S,2021.2.3,59.9243395248409,
go,square.png,space,1210,1.21,1.71,0,63,63,80,,,,,,,,,,,,,,,,,,,,,,,,,290.43328700005077,290.93408630019985,290.9171029001009,292.1351067000069,space,1,0.27964670001529157,290.43328700005077,290.43328700005077,,,,,,,11038,001,2024_Mar_11_1627,gonogo_S,2021.2.3,59.9243395248409,
go,square.png,space,1420,1.42,1.92,0,64,64,6,,,,,,,,,,,,,,,,,,,,,,,,,292.15230230009183,292.6526235002093,292.63586900010705,294.0554541000165,space,1,0.27294890000484884,292.15230230009183,292.15230230009183,,,,,,,11038,001,2024_Mar_11_1627,gonogo_S,2021.2.3,59.9243395248409,
nogo,triangle.png,None,1366,1.366,1.866,0,65,65,57,,,,,,,,,,,,,,,,,,,,,,,,,294.07125520007685,294.57264530006796,294.5573899000883,295.92410659999587,None,1,,294.07125520007685,294.07125520007685,,,,,,,11038,001,2024_Mar_11_1627,gonogo_S,2021.2.3,59.9243395248409,
nogo,triangle.png,None,1325,1.325,1.825,0,66,66,17,,,,,,,,,,,,,,,,,,,,,,,,,295.94072100007907,296.44240800011903,296.42561140004545,297.7600254002027,None,1,,295.94072100007907,295.94072100007907,,,,,,,11038,001,2024_Mar_11_1627,gonogo_S,2021.2.3,59.9243395248409,
go,square.png,space,1150,1.15,1.65,0,67,67,19,,,,,,,,,,,,,,,,,,,,,,,,,297.7769964002073,298.2785016000271,298.2618321001064,299.41354960016906,space,1,0.28842070000246167,297.7769964002073,297.7769964002073,,,,,,,11038,001,2024_Mar_11_1627,gonogo_S,2021.2.3,59.9243395248409,
go,square.png,space,1121,1.121,1.621,0,68,68,22,,,,,,,,,,,,,,,,,,,,,,,,,299.42943360004574,299.9302238000091,299.9142568001989,301.04829140007496,space,1,0.30125340004451573,299.42943360004574,299.42943360004574,,,,,,,11038,001,2024_Mar_11_1627,gonogo_S,2021.2.3,59.9243395248409,
go,square.png,space,1890,1.89,2.3899999999999997,0,69,69,12,,,,,,,,,,,,,,,,,,,,,,,,,301.0652630000841,301.5665592001751,301.5492825000547,303.4542228002101,space,1,0.24875800008885562,301.0652630000841,301.0652630000841,,,,,,,11038,001,2024_Mar_11_1627,gonogo_S,2021.2.3,59.9243395248409,
go,square.png,space,1940,1.94,2.44,0,70,70,47,,,,,,,,,,,,,,,,,,,,,,,,,303.46895220014267,303.9699229001999,303.9528862000443,305.9063072002027,None,0,,303.46895220014267,303.46895220014267,,,,,,,11038,001,2024_Mar_11_1627,gonogo_S,2021.2.3,59.9243395248409,
nogo,triangle.png,None,1384,1.384,1.884,0,71,71,77,,,,,,,,,,,,,,,,,,,,,,,,,305.9230284001678,306.4238582001999,306.4075618002098,307.79205410019495,None,1,,305.9230284001678,305.9230284001678,,,,,,,11038,001,2024_Mar_11_1627,gonogo_S,2021.2.3,59.9243395248409,
go,square.png,space,1973,1.973,2.473,0,72,72,44,,,,,,,,,,,,,,,,,,,,,,,,,307.8086841001641,308.30936110019684,308.2926033001859,310.2790842000395,space,1,0.26496120006777346,307.8086841001641,307.8086841001641,,,,,,,11038,001,2024_Mar_11_1627,gonogo_S,2021.2.3,59.9243395248409,
go,square.png,space,1899,1.899,2.399,0,73,73,55,,,,,,,,,,,,,,,,,,,,,,,,,310.29568710015155,310.7965829002205,310.7798421001062,312.68357660016045,space,1,0.2500599001068622,310.29568710015155,310.29568710015155,,,,,,,11038,001,2024_Mar_11_1627,gonogo_S,2021.2.3,59.9243395248409,
go,square.png,space,1044,1.044,1.544,0,74,74,92,,,,,,,,,,,,,,,,,,,,,,,,,312.70031630015,313.2002607001923,313.1842029001564,314.2356660000514,space,1,0.28615969978272915,312.70031630015,312.70031630015,,,,,,,11038,001,2024_Mar_11_1627,gonogo_S,2021.2.3,59.9243395248409,
go,square.png,space,1975,1.975,2.475,0,75,75,87,,,,,,,,,,,,,,,,,,,,,,,,,314.2526041001547,314.75257840007544,314.736711300211,316.72297730017453,space,1,0.3330123000778258,314.2526041001547,314.2526041001547,,,,,,,11038,001,2024_Mar_11_1627,gonogo_S,2021.2.3,59.9243395248409,
go,square.png,space,1780,1.78,2.2800000000000002,0,76,76,18,,,,,,,,,,,,,,,,,,,,,,,,,316.73936420003884,317.2402143999934,317.2239988001529,319.0097646000795,space,1,0.27028590021654963,316.73936420003884,316.73936420003884,,,,,,,11038,001,2024_Mar_11_1627,gonogo_S,2021.2.3,59.9243395248409,
go,square.png,space,1057,1.057,1.557,0,77,77,40,,,,,,,,,,,,,,,,,,,,,,,,,319.02644430007786,319.52772760018706,319.5097372001037,320.57795550022274,space,1,0.33538100006990135,319.02644430007786,319.02644430007786,,,,,,,11038,001,2024_Mar_11_1627,gonogo_S,2021.2.3,59.9243395248409,
go,square.png,space,1445,1.445,1.945,0,78,78,74,,,,,,,,,,,,,,,,,,,,,,,,,320.59456330002286,321.0953450000379,321.08035250008106,322.5326337001752,space,1,0.3356812000274658,320.59456330002286,320.59456330002286,,,,,,,11038,001,2024_Mar_11_1627,gonogo_S,2021.2.3,59.9243395248409,
go,square.png,space,1806,1.806,2.306,0,79,79,63,,,,,,,,,,,,,,,,,,,,,,,,,322.54752740007825,323.0497137000784,323.0317506000865,324.85186510020867,space,1,0.3103215000592172,322.54752740007825,322.54752740007825,,,,,,,11038,001,2024_Mar_11_1627,gonogo_S,2021.2.3,59.9243395248409,
nogo,triangle.png,None,1909,1.909,2.409,0,80,80,9,,,,,,,,,,,,,,,,,,,,,,,,,324.86774550005794,325.36846160003915,325.3518236000091,327.27177920006216,None,1,,324.86774550005794,324.86774550005794,,,,,,,11038,001,2024_Mar_11_1627,gonogo_S,2021.2.3,59.9243395248409,
go,square.png,space,1857,1.857,2.357,0,81,81,2,,,,,,,,,,,,,,,,,,,,,,,,,327.2880788000766,327.7894277002197,327.77221210021526,329.6433342001401,space,1,0.2577738999389112,327.2880788000766,327.2880788000766,,,,,,,11038,001,2024_Mar_11_1627,gonogo_S,2021.2.3,59.9243395248409,
go,square.png,space,1148,1.148,1.648,0,82,82,4,,,,,,,,,,,,,,,,,,,,,,,,,329.6580974000972,330.15971969999373,330.1429720001761,331.29472750006244,space,1,0.24875719984993339,329.6580974000972,329.6580974000972,,,,,,,11038,001,2024_Mar_11_1627,gonogo_S,2021.2.3,59.9243395248409,
go,square.png,space,1320,1.32,1.82,0,83,83,83,,,,,,,,,,,,,,,,,,,,,,,,,331.31156460009515,331.81149160000496,331.7948236002121,None,space,1,0.3546463998500258,331.31156460009515,331.31156460009515,,,,,,,11038,001,2024_Mar_11_1627,gonogo_S,2021.2.3,59.9243395248409,
go,square.png,space,1745,1.745,2.245,0,84,84,38,,,,,,,,,,,,,,,,,,,,,,,,,333.13042460009456,333.6317528001964,333.6147433000151,335.36777470004745,space,1,0.2960010999813676,333.13042460009456,333.13042460009456,,,,,,,11038,001,2024_Mar_11_1627,gonogo_S,2021.2.3,59.9243395248409,
nogo,triangle.png,None,1542,1.542,2.042,0,85,85,21,,,,,,,,,,,,,,,,,,,,,,,,,335.3837429000996,335.8854263999965,335.86849080002867,337.41988280019723,None,1,,335.3837429000996,335.3837429000996,,,,,,,11038,001,2024_Mar_11_1627,gonogo_S,2021.2.3,59.9243395248409,
go,square.png,space,1991,1.991,2.491,0,86,86,88,,,,,,,,,,,,,,,,,,,,,,,,,337.4364530001767,337.9386835000478,337.9216541000642,339.92442749999464,space,1,0.2623352000955492,337.4364530001767,337.4364530001767,,,,,,,11038,001,2024_Mar_11_1627,gonogo_S,2021.2.3,59.9243395248409,
go,square.png,space,1889,1.889,2.3890000000000002,0,87,87,15,,,,,,,,,,,,,,,,,,,,,,,,,339.9414089000784,340.442182400031,340.4245523000136,342.32754850015044,space,1,0.24498089984990656,339.9414089000784,339.9414089000784,,,,,,,11038,001,2024_Mar_11_1627,gonogo_S,2021.2.3,59.9243395248409,
go,square.png,space,1564,1.564,2.064,0,88,88,82,,,,,,,,,,,,,,,,,,,,,,,,,342.34496260015294,342.8468679001089,342.82820250000805,344.3990325999912,space,1,0.23369259992614388,342.34496260015294,342.34496260015294,,,,,,,11038,001,2024_Mar_11_1627,gonogo_S,2021.2.3,59.9243395248409,
go,square.png,space,1155,1.155,1.655,0,89,89,0,,,,,,,,,,,,,,,,,,,,,,,,,344.4138623001054,344.91503600007854,344.8986831000075,346.06694789999165,space,1,0.26047390000894666,344.4138623001054,344.4138623001054,,,,,,,11038,001,2024_Mar_11_1627,gonogo_S,2021.2.3,59.9243395248409,
go,square.png,space,1230,1.23,1.73,0,90,90,35,,,,,,,,,,,,,,,,,,,,,,,,,346.0838215001859,346.5838623000309,346.56703360006213,347.80319480015896,space,1,0.2792656999081373,346.0838215001859,346.0838215001859,,,,,,,11038,001,2024_Mar_11_1627,gonogo_S,2021.2.3,59.9243395248409,
go,square.png,space,1331,1.331,1.831,0,91,91,27,,,,,,,,,,,,,,,,,,,,,,,,,347.81933650001884,348.32075950014405,348.30412099999376,349.6387868002057,space,1,0.25531419995240867,347.81933650001884,347.81933650001884,,,,,,,11038,001,2024_Mar_11_1627,gonogo_S,2021.2.3,59.9243395248409,
go,square.png,space,1240,1.24,1.74,0,92,92,86,,,,,,,,,,,,,,,,,,,,,,,,,349.655847000191,350.156513400143,350.14014940010384,351.3911391000729,space,1,0.27458890015259385,349.655847000191,349.655847000191,,,,,,,11038,001,2024_Mar_11_1627,gonogo_S,2021.2.3,59.9243395248409,
go,square.png,space,1190,1.19,1.69,0,93,93,16,,,,,,,,,,,,,,,,,,,,,,,,,351.4077579001896,351.9097223000135,351.89215960004367,353.0935751001816,space,1,0.28355569997802377,351.4077579001896,351.4077579001896,,,,,,,11038,001,2024_Mar_11_1627,gonogo_S,2021.2.3,59.9243395248409,
go,square.png,space,1136,1.136,1.636,0,94,94,43,,,,,,,,,,,,,,,,,,,,,,,,,353.110479200026,353.611163900001,353.594958800124,None,space,1,0.28469910006970167,353.110479200026,353.110479200026,,,,,,,11038,001,2024_Mar_11_1627,gonogo_S,2021.2.3,59.9243395248409,
go,square.png,space,1822,1.822,2.322,0,95,95,60,,,,,,,,,,,,,,,,,,,,,,,,,354.74624320003204,355.24764730012976,355.2300325999968,357.0664801001549,space,1,0.37633299990557134,354.74624320003204,354.74624320003204,,,,,,,11038,001,2024_Mar_11_1627,gonogo_S,2021.2.3,59.9243395248409,
,,,,,,,,,,,,,,,,,,,,,,,,,,,,,,,,,,,,,,,,,,,357.083384900121,None,space,3.2074797998648137,357.083384900121,None,11038,001,2024_Mar_11_1627,gonogo_S,2021.2.3,59.9243395248409,
