TrialType,Path,Correct,ms,s,ks,trials_4.thisRepN,trials_4.thisTrialN,trials_4.thisN,trials_4.thisIndex,welcome.started,welcome.stopped,space.started,space.stopped,key_resp.keys,key_resp.rt,key_resp.started,key_resp.stopped,Fixwarn.started,Fixwarn.stopped,table.started,table.stopped,key_resp__0.keys,key_resp__0.rt,key_resp__0.started,key_resp__0.stopped,type.started,type.stopped,space_3.started,space_3.stopped,key_resp_6.keys,key_resp_6.rt,key_resp_6.started,key_resp_6.stopped,stim_2.started,stim_2.stopped,text_2.started,text_2.stopped,key_resp_9.keys,key_resp_9.corr,key_resp_9.rt,key_resp_9.started,key_resp_9.stopped,END.started,END.stopped,key_resp_2.keys,key_resp_2.rt,key_resp_2.started,key_resp_2.stopped,participant,session,date,expName,psychopyVersion,frameRate,
,,,,,,,,,,14.710973500041291,None,14.710973500041291,None,space,2.5209556999616325,14.710973500041291,None,,,,,,,,,,,,,,,,,,,,,,,,,,,,,,,,11032,001,2024_Jan_11_1603,gonogo_S,2021.2.3,59.73836979073259,
,,,,,,,,,,,,,,,,,,17.247704500099644,None,17.247704500099644,None,space,2.304285499965772,17.247704500099644,None,,,,,,,,,,,,,,,,,,,,,,,,11032,001,2024_Jan_11_1603,gonogo_S,2021.2.3,59.73836979073259,
,,,,,,,,,,,,,,,,,,,,,,,,,,19.584538199938834,None,19.584538199938834,None,space,20.43980890000239,19.584538199938834,None,,,,,,,,,,,,,,,,11032,001,2024_Jan_11_1603,gonogo_S,2021.2.3,59.73836979073259,
go,square.png,space,1331,1.331,1.831,0,0,0,27,,,,,,,,,,,,,,,,,,,,,,,,,40.132309400010854,40.632611100096256,40.615769000025466,41.95277710002847,space,1,0.7323208001907915,40.132309400010854,None,,,,,,,11032,001,2024_Jan_11_1603,gonogo_S,2021.2.3,59.73836979073259,
go,square.png,space,1125,1.125,1.625,0,1,1,90,,,,,,,,,,,,,,,,,,,,,,,,,41.96762609994039,42.468452600063756,42.45199440000579,43.58710090001114,space,1,0.584452899871394,41.96762609994039,41.96762609994039,,,,,,,11032,001,2024_Jan_11_1603,gonogo_S,2021.2.3,59.73836979073259,
go,square.png,space,1766,1.766,2.266,0,2,2,23,,,,,,,,,,,,,,,,,,,,,,,,,43.60468370001763,44.10434839990921,44.08847289998084,45.859038500115275,space,1,0.5953534999862313,43.60468370001763,43.60468370001763,,,,,,,11032,001,2024_Jan_11_1603,gonogo_S,2021.2.3,59.73836979073259,
nogo,triangle.png,None,1771,1.771,2.271,0,3,3,1,,,,,,,,,,,,,,,,,,,,,,,,,45.873536200029776,46.3748365000356,46.358247000025585,None,None,1,,45.873536200029776,45.873536200029776,,,,,,,11032,001,2024_Jan_11_1603,gonogo_S,2021.2.3,59.73836979073259,
go,square.png,space,1822,1.822,2.322,0,4,4,60,,,,,,,,,,,,,,,,,,,,,,,,,48.14347409992479,48.64462939999066,48.62812469992787,50.46579060005024,space,1,0.424547600094229,48.14347409992479,48.14347409992479,,,,,,,11032,001,2024_Jan_11_1603,gonogo_S,2021.2.3,59.73836979073259,
go,square.png,space,1692,1.692,2.192,0,5,5,30,,,,,,,,,,,,,,,,,,,,,,,,,50.48040729993954,50.98152979998849,50.96512409998104,52.66739830002189,space,1,0.4644375001080334,50.48040729993954,50.48040729993954,,,,,,,11032,001,2024_Jan_11_1603,gonogo_S,2021.2.3,59.73836979073259,
go,square.png,space,1155,1.155,1.655,0,6,6,0,,,,,,,,,,,,,,,,,,,,,,,,,52.68442800012417,53.184474100125954,53.16765350010246,54.335850700037554,space,1,0.4596666998695582,52.68442800012417,52.68442800012417,,,,,,,11032,001,2024_Jan_11_1603,gonogo_S,2021.2.3,59.73836979073259,
go,square.png,space,1973,1.973,2.473,0,7,7,44,,,,,,,,,,,,,,,,,,,,,,,,,54.35192920011468,54.85331659996882,54.83682360011153,None,space,1,0.6645572998095304,54.35192920011468,54.35192920011468,,,,,,,11032,001,2024_Jan_11_1603,gonogo_S,2021.2.3,59.73836979073259,
nogo,triangle.png,None,1218,1.218,1.718,0,8,8,25,,,,,,,,,,,,,,,,,,,,,,,,,56.82307959999889,57.324154699919745,57.30797590012662,58.52657729992643,None,1,,56.82307959999889,56.82307959999889,,,,,,,11032,001,2024_Jan_11_1603,gonogo_S,2021.2.3,59.73836979073259,
nogo,triangle.png,None,1273,1.273,1.773,0,9,9,5,,,,,,,,,,,,,,,,,,,,,,,,,58.542062300024554,59.04285280010663,59.02622330002487,60.31145750009455,None,1,,58.542062300024554,58.542062300024554,,,,,,,11032,001,2024_Jan_11_1603,gonogo_S,2021.2.3,59.73836979073259,
go,square.png,space,1420,1.42,1.92,0,10,10,6,,,,,,,,,,,,,,,,,,,,,,,,,60.328197200084105,60.82912279991433,60.81242420012131,62.23161679995246,space,1,0.3758817999623716,60.328197200084105,60.328197200084105,,,,,,,11032,001,2024_Jan_11_1603,gonogo_S,2021.2.3,59.73836979073259,
go,square.png,space,1121,1.121,1.621,0,11,11,22,,,,,,,,,,,,,,,,,,,,,,,,,62.24780880007893,62.749107300071046,62.73255129996687,63.868012600112706,space,1,0.3853653999976814,62.24780880007893,62.24780880007893,,,,,,,11032,001,2024_Jan_11_1603,gonogo_S,2021.2.3,59.73836979073259,
nogo,triangle.png,None,1939,1.939,2.439,0,12,12,65,,,,,,,,,,,,,,,,,,,,,,,,,63.88363300007768,64.3843954000622,64.36830170010217,66.32197650009766,None,1,,63.88363300007768,63.88363300007768,,,,,,,11032,001,2024_Jan_11_1603,gonogo_S,2021.2.3,59.73836979073259,
go,square.png,space,1670,1.67,2.17,0,13,13,94,,,,,,,,,,,,,,,,,,,,,,,,,66.33777639991604,66.8378826000262,66.8214179999195,68.49164950009435,space,1,0.5021271000150591,66.33777639991604,66.33777639991604,,,,,,,11032,001,2024_Jan_11_1603,gonogo_S,2021.2.3,59.73836979073259,
nogo,triangle.png,None,1867,1.867,2.367,0,14,14,33,,,,,,,,,,,,,,,,,,,,,,,,,68.50699670007452,69.0074450999964,68.99113420001231,70.86162140010856,None,1,,68.50699670007452,68.50699670007452,,,,,,,11032,001,2024_Jan_11_1603,gonogo_S,2021.2.3,59.73836979073259,
go,square.png,space,1857,1.857,2.357,0,15,15,2,,,,,,,,,,,,,,,,,,,,,,,,,70.87738419999368,71.37882780004293,71.36199219990522,73.23079630010761,space,1,0.3706636999268085,70.87738419999368,70.87738419999368,,,,,,,11032,001,2024_Jan_11_1603,gonogo_S,2021.2.3,59.73836979073259,
go,square.png,space,1890,1.89,2.3899999999999997,0,16,16,12,,,,,,,,,,,,,,,,,,,,,,,,,73.24757370003499,73.74839289998636,73.73135809996165,75.63433900009841,space,1,0.48861399991437793,73.24757370003499,73.24757370003499,,,,,,,11032,001,2024_Jan_11_1603,gonogo_S,2021.2.3,59.73836979073259,
go,square.png,space,1562,1.562,2.0620000000000003,0,17,17,46,,,,,,,,,,,,,,,,,,,,,,,,,75.65164930000901,76.15234429994598,76.13565569999628,77.70434900000691,space,1,0.4291846000123769,75.65164930000901,75.65164930000901,,,,,,,11032,001,2024_Jan_11_1603,gonogo_S,2021.2.3,59.73836979073259,
go,square.png,space,1776,1.776,2.276,0,18,18,14,,,,,,,,,,,,,,,,,,,,,,,,,77.72056600009091,78.22229610010982,78.20492410007864,79.99128350010142,space,1,0.41546400007791817,77.72056600009091,77.72056600009091,,,,,,,11032,001,2024_Jan_11_1603,gonogo_S,2021.2.3,59.73836979073259,
go,square.png,space,1899,1.899,2.399,0,19,19,28,,,,,,,,,,,,,,,,,,,,,,,,,80.0072004001122,80.50847320002504,80.49228430003859,82.39514379994944,space,1,0.47317849984392524,80.0072004001122,80.0072004001122,,,,,,,11032,001,2024_Jan_11_1603,gonogo_S,2021.2.3,59.73836979073259,
go,square.png,space,1230,1.23,1.73,0,20,20,35,,,,,,,,,,,,,,,,,,,,,,,,,82.41144850011915,82.91178740002215,82.89497609995306,84.1305370000191,space,1,0.34062270005233586,82.41144850011915,82.41144850011915,,,,,,,11032,001,2024_Jan_11_1603,gonogo_S,2021.2.3,59.73836979073259,
go,square.png,space,1445,1.445,1.945,0,21,21,74,,,,,,,,,,,,,,,,,,,,,,,,,84.14720289991237,84.64813129999675,84.63200880005024,86.0831567000132,space,1,0.40525770001113415,84.14720289991237,84.14720289991237,,,,,,,11032,001,2024_Jan_11_1603,gonogo_S,2021.2.3,59.73836979073259,
go,square.png,space,1136,1.136,1.636,0,22,22,43,,,,,,,,,,,,,,,,,,,,,,,,,86.09964970010333,86.60029900004156,86.58385560009629,87.71981970011257,space,1,0.3971855000127107,86.09964970010333,86.09964970010333,,,,,,,11032,001,2024_Jan_11_1603,gonogo_S,2021.2.3,59.73836979073259,
go,square.png,space,1745,1.745,2.245,0,23,23,38,,,,,,,,,,,,,,,,,,,,,,,,,87.73587920004502,88.2372610999737,88.21992049994878,89.97233069990762,space,1,0.37613680004142225,87.73587920004502,87.73587920004502,,,,,,,11032,001,2024_Jan_11_1603,gonogo_S,2021.2.3,59.73836979073259,
go,square.png,space,1240,1.24,1.74,0,24,24,86,,,,,,,,,,,,,,,,,,,,,,,,,89.98915489995852,90.49072919995524,90.4736961000599,91.72480319999158,space,1,0.4189075999893248,89.98915489995852,89.98915489995852,,,,,,,11032,001,2024_Jan_11_1603,gonogo_S,2021.2.3,59.73836979073259,
go,square.png,space,1564,1.564,2.064,0,25,25,82,,,,,,,,,,,,,,,,,,,,,,,,,91.7420848000329,92.24210439994931,92.22547439998016,93.79493189998902,space,1,0.3947185000870377,91.7420848000329,91.7420848000329,,,,,,,11032,001,2024_Jan_11_1603,gonogo_S,2021.2.3,59.73836979073259,
go,square.png,space,1663,1.663,2.1630000000000003,0,26,26,7,,,,,,,,,,,,,,,,,,,,,,,,,93.81122440006584,94.31227319990285,94.29521099990234,95.96425219997764,space,1,0.34935989999212325,93.81122440006584,93.81122440006584,,,,,,,11032,001,2024_Jan_11_1603,gonogo_S,2021.2.3,59.73836979073259,
nogo,triangle.png,None,1436,1.436,1.936,0,27,27,81,,,,,,,,,,,,,,,,,,,,,,,,,95.98123989999294,96.48296330007724,96.46610209997743,None,None,1,,95.98123989999294,95.98123989999294,,,,,,,11032,001,2024_Jan_11_1603,gonogo_S,2021.2.3,59.73836979073259,
go,square.png,space,1227,1.227,1.727,0,28,28,34,,,,,,,,,,,,,,,,,,,,,,,,,97.91780779999681,98.4181755001191,98.40201140008867,99.6373767000623,None,0,,97.91780779999681,97.91780779999681,,,,,,,11032,001,2024_Jan_11_1603,gonogo_S,2021.2.3,59.73836979073259,
nogo,triangle.png,None,1629,1.629,2.129,0,29,29,73,,,,,,,,,,,,,,,,,,,,,,,,,99.65354570001364,100.15421309997328,100.13720660004765,101.77399150002748,None,1,,99.65354570001364,99.65354570001364,,,,,,,11032,001,2024_Jan_11_1603,gonogo_S,2021.2.3,59.73836979073259,
go,square.png,space,1060,1.06,1.56,0,30,30,51,,,,,,,,,,,,,,,,,,,,,,,,,101.79019890003838,102.29070900008082,102.27387030003592,103.34329250012524,space,1,0.31430460000410676,101.79019890003838,101.79019890003838,,,,,,,11032,001,2024_Jan_11_1603,gonogo_S,2021.2.3,59.73836979073259,
nogo,triangle.png,None,1924,1.924,2.424,0,31,31,13,,,,,,,,,,,,,,,,,,,,,,,,,103.35897050006315,103.85968460002914,103.84252490010113,105.77975780004635,None,1,,103.35897050006315,103.35897050006315,,,,,,,11032,001,2024_Jan_11_1603,gonogo_S,2021.2.3,59.73836979073259,
go,square.png,space,1084,1.084,1.584,0,32,32,95,,,,,,,,,,,,,,,,,,,,,,,,,105.79605260002427,106.29806619998999,106.27977090002969,107.36469130008481,space,1,0.3886306998319924,105.79605260002427,105.79605260002427,,,,,,,11032,001,2024_Jan_11_1603,gonogo_S,2021.2.3,59.73836979073259,
go,square.png,space,1057,1.057,1.557,0,33,33,40,,,,,,,,,,,,,,,,,,,,,,,,,107.381418999983,107.88281169999391,107.86624170001596,108.93450310011394,space,1,0.41867339983582497,107.381418999983,107.381418999983,,,,,,,11032,001,2024_Jan_11_1603,gonogo_S,2021.2.3,59.73836979073259,
go,square.png,space,1160,1.16,1.66,0,34,34,48,,,,,,,,,,,,,,,,,,,,,,,,,108.95051399990916,109.4516024000477,109.43427400011569,110.60294390004128,space,1,0.48260480002500117,108.95051399990916,108.95051399990916,,,,,,,11032,001,2024_Jan_11_1603,gonogo_S,2021.2.3,59.73836979073259,
go,square.png,space,1889,1.889,2.3890000000000002,0,35,35,15,,,,,,,,,,,,,,,,,,,,,,,,,110.61920740013011,111.12082209996879,111.10396270011552,113.00707420008257,space,1,0.4135642999317497,110.61920740013011,110.61920740013011,,,,,,,11032,001,2024_Jan_11_1603,gonogo_S,2021.2.3,59.73836979073259,
nogo,triangle.png,None,1384,1.384,1.884,0,36,36,77,,,,,,,,,,,,,,,,,,,,,,,,,113.0231876000762,113.52437380002812,113.50780300004408,114.89273079996929,None,1,,113.0231876000762,113.0231876000762,,,,,,,11032,001,2024_Jan_11_1603,gonogo_S,2021.2.3,59.73836979073259,
go,square.png,space,1462,1.462,1.962,0,37,37,72,,,,,,,,,,,,,,,,,,,,,,,,,114.9097551999148,115.40973720001057,115.39292220002972,116.8622050001286,space,1,0.3391713001765311,114.9097551999148,114.9097551999148,,,,,,,11032,001,2024_Jan_11_1603,gonogo_S,2021.2.3,59.73836979073259,
nogo,triangle.png,None,1569,1.569,2.069,0,38,38,45,,,,,,,,,,,,,,,,,,,,,,,,,116.87956320005469,117.37964679999277,117.36336340010166,118.93292449996807,None,1,,116.87956320005469,116.87956320005469,,,,,,,11032,001,2024_Jan_11_1603,gonogo_S,2021.2.3,59.73836979073259,
nogo,triangle.png,None,1144,1.144,1.644,0,39,39,41,,,,,,,,,,,,,,,,,,,,,,,,,118.94847670011222,119.44913429999724,119.43360839993693,120.58469059993513,None,1,,118.94847670011222,118.94847670011222,,,,,,,11032,001,2024_Jan_11_1603,gonogo_S,2021.2.3,59.73836979073259,
go,square.png,space,1900,1.9,2.4,0,40,40,52,,,,,,,,,,,,,,,,,,,,,,,,,120.60084370011464,121.10182070010342,121.08559100003913,122.9879157000687,space,1,0.4071688000112772,120.60084370011464,120.60084370011464,,,,,,,11032,001,2024_Jan_11_1603,gonogo_S,2021.2.3,59.73836979073259,
go,square.png,space,1780,1.78,2.2800000000000002,0,41,41,18,,,,,,,,,,,,,,,,,,,,,,,,,123.00462160003372,123.50540810008533,123.48850119998679,125.27472200011835,space,1,0.5234405999071896,123.00462160003372,123.00462160003372,,,,,,,11032,001,2024_Jan_11_1603,gonogo_S,2021.2.3,59.73836979073259,
go,square.png,space,1044,1.044,1.544,0,42,42,92,,,,,,,,,,,,,,,,,,,,,,,,,125.29142739996314,125.79232940007932,125.7757796999067,126.82737780013122,space,1,0.5332744000479579,125.29142739996314,125.29142739996314,,,,,,,11032,001,2024_Jan_11_1603,gonogo_S,2021.2.3,59.73836979073259,
go,square.png,space,1303,1.303,1.803,0,43,43,70,,,,,,,,,,,,,,,,,,,,,,,,,126.84379879990593,127.34400089993142,127.32722570002079,128.6300854999572,space,1,0.5564226999413222,126.84379879990593,126.84379879990593,,,,,,,11032,001,2024_Jan_11_1603,gonogo_S,2021.2.3,59.73836979073259,
go,square.png,space,1069,1.069,1.569,0,44,44,20,,,,,,,,,,,,,,,,,,,,,,,,,128.64612250006758,129.14688299992122,129.1300917000044,130.1992001000326,space,1,0.3619595000054687,128.64612250006758,128.64612250006758,,,,,,,11032,001,2024_Jan_11_1603,gonogo_S,2021.2.3,59.73836979073259,
go,square.png,space,1865,1.865,2.365,0,45,45,75,,,,,,,,,,,,,,,,,,,,,,,,,130.21557989995927,130.7150757999625,130.6990092000924,132.56950960005634,space,1,0.39315710007213056,130.21557989995927,130.21557989995927,,,,,,,11032,001,2024_Jan_11_1603,gonogo_S,2021.2.3,59.73836979073259,
go,square.png,space,1843,1.843,2.343,0,46,46,64,,,,,,,,,,,,,,,,,,,,,,,,,132.58537560002878,133.08649079990573,133.07066740002483,134.92204009997658,space,1,0.35865569999441504,132.58537560002878,132.58537560002878,,,,,,,11032,001,2024_Jan_11_1603,gonogo_S,2021.2.3,59.73836979073259,
go,square.png,space,1821,1.821,2.3209999999999997,0,47,47,58,,,,,,,,,,,,,,,,,,,,,,,,,134.93939770013094,135.44071280001663,135.42338729999028,None,space,1,0.40523479995317757,134.93939770013094,134.93939770013094,,,,,,,11032,001,2024_Jan_11_1603,gonogo_S,2021.2.3,59.73836979073259,
nogo,triangle.png,None,1683,1.683,2.183,0,48,48,29,,,,,,,,,,,,,,,,,,,,,,,,,137.2586666001007,137.76025289995596,137.74301779991947,139.42980869999155,None,1,,137.2586666001007,137.2586666001007,,,,,,,11032,001,2024_Jan_11_1603,gonogo_S,2021.2.3,59.73836979073259,
go,square.png,space,1967,1.967,2.467,0,49,49,54,,,,,,,,,,,,,,,,,,,,,,,,,139.44571090000682,139.94681999995373,139.93037499999627,141.89942210004665,space,1,0.42662829998880625,139.44571090000682,139.44571090000682,,,,,,,11032,001,2024_Jan_11_1603,gonogo_S,2021.2.3,59.73836979073259,
go,square.png,space,1110,1.11,1.61,0,50,50,76,,,,,,,,,,,,,,,,,,,,,,,,,141.91593999997713,142.41669330000877,142.3996926001273,143.51833040011115,space,1,0.4206254000309855,141.91593999997713,141.91593999997713,,,,,,,11032,001,2024_Jan_11_1603,gonogo_S,2021.2.3,59.73836979073259,
go,square.png,space,1991,1.991,2.491,0,51,51,88,,,,,,,,,,,,,,,,,,,,,,,,,143.5347031999845,144.0355652999133,144.0187504000496,146.02300329995342,space,1,0.4413628000766039,143.5347031999845,143.5347031999845,,,,,,,11032,001,2024_Jan_11_1603,gonogo_S,2021.2.3,59.73836979073259,
go,square.png,space,1428,1.428,1.928,0,52,52,62,,,,,,,,,,,,,,,,,,,,,,,,,146.0382368999999,146.53995730006136,146.52301690005697,147.95840610004961,space,1,0.4340343000367284,146.0382368999999,146.0382368999999,,,,,,,11032,001,2024_Jan_11_1603,gonogo_S,2021.2.3,59.73836979073259,
go,square.png,space,1150,1.15,1.65,0,53,53,19,,,,,,,,,,,,,,,,,,,,,,,,,147.97469900012948,148.47592990007252,148.45872789993882,149.61204409995116,space,1,0.3533698997925967,147.97469900012948,147.97469900012948,,,,,,,11032,001,2024_Jan_11_1603,gonogo_S,2021.2.3,59.73836979073259,
go,square.png,space,1899,1.899,2.399,0,54,54,55,,,,,,,,,,,,,,,,,,,,,,,,,149.6283782001119,150.1281087999232,150.1115462000016,152.01415770011954,space,1,0.3398017999716103,149.6283782001119,149.6283782001119,,,,,,,11032,001,2024_Jan_11_1603,gonogo_S,2021.2.3,59.73836979073259,
go,square.png,space,1190,1.19,1.69,0,55,55,16,,,,,,,,,,,,,,,,,,,,,,,,,152.03114280011505,152.532050000038,152.51483269990422,153.71650370000862,space,1,0.4249694000463933,152.03114280011505,152.03114280011505,,,,,,,11032,001,2024_Jan_11_1603,gonogo_S,2021.2.3,59.73836979073259,
nogo,triangle.png,None,1659,1.659,2.159,0,56,56,49,,,,,,,,,,,,,,,,,,,,,,,,,153.73414180008695,154.23473299993202,154.21838620002382,155.88851450011134,None,1,,153.73414180008695,153.73414180008695,,,,,,,11032,001,2024_Jan_11_1603,gonogo_S,2021.2.3,59.73836979073259,
go,square.png,space,1437,1.437,1.937,0,57,57,50,,,,,,,,,,,,,,,,,,,,,,,,,155.90313909994438,156.40420010010712,156.38738949992694,157.8233674999792,space,1,0.36131069995462894,155.90313909994438,155.90313909994438,,,,,,,11032,001,2024_Jan_11_1603,gonogo_S,2021.2.3,59.73836979073259,
nogo,triangle.png,None,1190,1.19,1.69,0,58,58,53,,,,,,,,,,,,,,,,,,,,,,,,,157.8400928999763,158.3411087000277,158.3246687001083,159.5254427001346,None,1,,157.8400928999763,157.8400928999763,,,,,,,11032,001,2024_Jan_11_1603,gonogo_S,2021.2.3,59.73836979073259,
go,square.png,space,1249,1.249,1.749,0,59,59,71,,,,,,,,,,,,,,,,,,,,,,,,,159.54211869998835,160.04324180004187,160.02674110000953,161.27770130010322,space,1,0.3463026999961585,159.54211869998835,159.54211869998835,,,,,,,11032,001,2024_Jan_11_1603,gonogo_S,2021.2.3,59.73836979073259,
go,square.png,space,1513,1.513,2.013,0,60,60,31,,,,,,,,,,,,,,,,,,,,,,,,,161.29450009996071,161.7954418999143,161.7794004001189,163.29856180003844,space,1,0.45081529999151826,161.29450009996071,161.29450009996071,,,,,,,11032,001,2024_Jan_11_1603,gonogo_S,2021.2.3,59.73836979073259,
go,square.png,space,1513,1.513,2.013,0,61,61,8,,,,,,,,,,,,,,,,,,,,,,,,,163.3144247001037,163.81493090000004,163.79891310003586,165.3173390000593,space,1,0.40609110007062554,163.3144247001037,163.3144247001037,,,,,,,11032,001,2024_Jan_11_1603,gonogo_S,2021.2.3,59.73836979073259,
go,square.png,space,1940,1.94,2.44,0,62,62,47,,,,,,,,,,,,,,,,,,,,,,,,,165.33409560006112,165.83437980012968,165.81828440004028,167.7715431000106,space,1,0.3466183999553323,165.33409560006112,165.33409560006112,,,,,,,11032,001,2024_Jan_11_1603,gonogo_S,2021.2.3,59.73836979073259,
go,square.png,space,1552,1.552,2.052,0,63,63,59,,,,,,,,,,,,,,,,,,,,,,,,,167.78845069999807,168.28889829991385,168.27178520010784,169.82418740005232,space,1,0.4757299998309463,167.78845069999807,167.78845069999807,,,,,,,11032,001,2024_Jan_11_1603,gonogo_S,2021.2.3,59.73836979073259,
go,square.png,space,1546,1.546,2.0460000000000003,0,64,64,68,,,,,,,,,,,,,,,,,,,,,,,,,169.84071439993568,170.3418753000442,170.32505360012874,171.87750539998524,space,1,0.5684976999182254,169.84071439993568,169.84071439993568,,,,,,,11032,001,2024_Jan_11_1603,gonogo_S,2021.2.3,59.73836979073259,
nogo,triangle.png,None,1317,1.317,1.817,0,65,65,85,,,,,,,,,,,,,,,,,,,,,,,,,171.89352339995094,172.3953134000767,172.37844719993882,173.69608530006371,None,1,,171.89352339995094,171.89352339995094,,,,,,,11032,001,2024_Jan_11_1603,gonogo_S,2021.2.3,59.73836979073259,
go,square.png,space,1297,1.297,1.797,0,66,66,56,,,,,,,,,,,,,,,,,,,,,,,,,173.7132989000529,174.2146205001045,174.19756700005382,175.49964489997365,space,1,0.42294230009429157,173.7132989000529,173.7132989000529,,,,,,,11032,001,2024_Jan_11_1603,gonogo_S,2021.2.3,59.73836979073259,
go,square.png,space,1189,1.189,1.689,0,67,67,11,,,,,,,,,,,,,,,,,,,,,,,,,175.5164928000886,176.01753209996969,176.00008570007049,177.20138729992323,space,1,0.4680117000825703,175.5164928000886,175.5164928000886,,,,,,,11032,001,2024_Jan_11_1603,gonogo_S,2021.2.3,59.73836979073259,
go,square.png,space,1655,1.655,2.1550000000000002,0,68,68,36,,,,,,,,,,,,,,,,,,,,,,,,,177.21820560004562,177.7193239000626,177.70284750009887,179.3728046999313,space,1,0.46220299997366965,177.21820560004562,177.21820560004562,,,,,,,11032,001,2024_Jan_11_1603,gonogo_S,2021.2.3,59.73836979073259,
go,square.png,space,1849,1.849,2.349,0,69,69,91,,,,,,,,,,,,,,,,,,,,,,,,,179.38812909997068,179.88941329997033,179.87253140006214,181.7247270999942,space,1,0.37221159995533526,179.38812909997068,179.38812909997068,,,,,,,11032,001,2024_Jan_11_1603,gonogo_S,2021.2.3,59.73836979073259,
nogo,triangle.png,None,1366,1.366,1.866,0,70,70,57,,,,,,,,,,,,,,,,,,,,,,,,,181.74143519997597,182.24304060009308,182.2258673000615,183.59469770011492,None,1,,181.74143519997597,181.74143519997597,,,,,,,11032,001,2024_Jan_11_1603,gonogo_S,2021.2.3,59.73836979073259,
go,square.png,space,1361,1.361,1.861,0,71,71,67,,,,,,,,,,,,,,,,,,,,,,,,,183.6108178999275,184.1118346999865,184.09506250009872,185.46353549999185,space,1,0.3734478000551462,183.6108178999275,183.6108178999275,,,,,,,11032,001,2024_Jan_11_1603,gonogo_S,2021.2.3,59.73836979073259,
nogo,triangle.png,None,1909,1.909,2.409,0,72,72,9,,,,,,,,,,,,,,,,,,,,,,,,,185.48026300012134,185.98183780000545,185.96481340005994,187.88520979997702,None,1,,185.48026300012134,185.48026300012134,,,,,,,11032,001,2024_Jan_11_1603,gonogo_S,2021.2.3,59.73836979073259,
go,square.png,space,1320,1.32,1.82,0,73,73,83,,,,,,,,,,,,,,,,,,,,,,,,,187.9007641999051,188.4011397000868,188.38565569999628,None,space,1,0.42807339993305504,187.9007641999051,187.9007641999051,,,,,,,11032,001,2024_Jan_11_1603,gonogo_S,2021.2.3,59.73836979073259,
nogo,triangle.png,None,1790,1.79,2.29,0,74,74,93,,,,,,,,,,,,,,,,,,,,,,,,,189.7201046999544,190.22149650007486,190.20435000001453,192.0074277999811,None,1,,189.7201046999544,189.7201046999544,,,,,,,11032,001,2024_Jan_11_1603,gonogo_S,2021.2.3,59.73836979073259,
go,square.png,space,1210,1.21,1.71,0,75,75,80,,,,,,,,,,,,,,,,,,,,,,,,,192.02347739995457,192.52473019994795,192.50797639996745,193.72565139993094,space,1,0.3610171000473201,192.02347739995457,192.02347739995457,,,,,,,11032,001,2024_Jan_11_1603,gonogo_S,2021.2.3,59.73836979073259,
go,square.png,space,1209,1.209,1.709,0,76,76,10,,,,,,,,,,,,,,,,,,,,,,,,,193.74241890013218,194.2433108999394,194.22679660003632,195.4452287000604,space,1,0.49859649990685284,193.74241890013218,193.74241890013218,,,,,,,11032,001,2024_Jan_11_1603,gonogo_S,2021.2.3,59.73836979073259,
go,square.png,space,1806,1.806,2.306,0,77,77,63,,,,,,,,,,,,,,,,,,,,,,,,,195.4624447999522,195.96267909999005,195.946513999952,197.76539750001393,space,1,0.6186698998790234,195.4624447999522,195.4624447999522,,,,,,,11032,001,2024_Jan_11_1603,gonogo_S,2021.2.3,59.73836979073259,
go,square.png,space,1975,1.975,2.475,0,78,78,87,,,,,,,,,,,,,,,,,,,,,,,,,197.7820955000352,198.28377249999903,198.26699639996514,200.25253590010107,space,1,0.5860662998165935,197.7820955000352,197.7820955000352,,,,,,,11032,001,2024_Jan_11_1603,gonogo_S,2021.2.3,59.73836979073259,
go,square.png,space,1194,1.194,1.694,0,79,79,26,,,,,,,,,,,,,,,,,,,,,,,,,200.2695222001057,200.77031289995648,200.75408719992265,201.95545320003293,space,1,0.5315197999589145,200.2695222001057,200.2695222001057,,,,,,,11032,001,2024_Jan_11_1603,gonogo_S,2021.2.3,59.73836979073259,
nogo,triangle.png,None,1559,1.559,2.059,0,80,80,61,,,,,,,,,,,,,,,,,,,,,,,,,201.97119230008684,202.47295970004052,202.45635370002128,204.02511629997753,None,1,,201.97119230008684,201.97119230008684,,,,,,,11032,001,2024_Jan_11_1603,gonogo_S,2021.2.3,59.73836979073259,
go,square.png,space,1503,1.503,2.003,0,81,81,78,,,,,,,,,,,,,,,,,,,,,,,,,204.04171089990996,204.54182639997452,204.52510379999876,206.02782170008868,space,1,0.4150022000540048,204.04171089990996,204.04171089990996,,,,,,,11032,001,2024_Jan_11_1603,gonogo_S,2021.2.3,59.73836979073259,
go,square.png,space,1536,1.536,2.036,0,82,82,3,,,,,,,,,,,,,,,,,,,,,,,,,206.0440376000479,206.545075800037,206.528246199945,208.06390770012513,space,1,0.35651400010101497,206.0440376000479,206.0440376000479,,,,,,,11032,001,2024_Jan_11_1603,gonogo_S,2021.2.3,59.73836979073259,
go,square.png,space,1520,1.52,2.02,0,83,83,32,,,,,,,,,,,,,,,,,,,,,,,,,208.0804761000909,208.5812450000085,208.5644400001038,210.0843482001219,space,1,0.34382200008258224,208.0804761000909,208.0804761000909,,,,,,,11032,001,2024_Jan_11_1603,gonogo_S,2021.2.3,59.73836979073259,
go,square.png,space,1054,1.054,1.554,0,84,84,39,,,,,,,,,,,,,,,,,,,,,,,,,210.10017620003782,210.6021199999377,210.5841495001223,None,space,1,0.3882749998010695,210.10017620003782,210.10017620003782,,,,,,,11032,001,2024_Jan_11_1603,gonogo_S,2021.2.3,59.73836979073259,
nogo,triangle.png,None,1325,1.325,1.825,0,85,85,17,,,,,,,,,,,,,,,,,,,,,,,,,211.65226350002922,212.1537301999051,212.13735330011696,213.47284090006724,None,1,,211.65226350002922,211.65226350002922,,,,,,,11032,001,2024_Jan_11_1603,gonogo_S,2021.2.3,59.73836979073259,
go,square.png,space,1111,1.111,1.611,0,86,86,24,,,,,,,,,,,,,,,,,,,,,,,,,213.48864379990846,213.98915120004676,213.97252589999698,215.0923119999934,space,1,0.40761160012334585,213.48864379990846,213.48864379990846,,,,,,,11032,001,2024_Jan_11_1603,gonogo_S,2021.2.3,59.73836979073259,
nogo,triangle.png,None,1542,1.542,2.042,0,87,87,21,,,,,,,,,,,,,,,,,,,,,,,,,215.10753539996222,215.60821110010147,215.59185620001517,217.1444918999914,None,1,,215.10753539996222,215.10753539996222,,,,,,,11032,001,2024_Jan_11_1603,gonogo_S,2021.2.3,59.73836979073259,
go,square.png,space,1731,1.731,2.231,0,88,88,42,,,,,,,,,,,,,,,,,,,,,,,,,217.16041460004635,217.66133869998157,217.64459370006807,219.38159110001288,space,1,0.335852799937129,217.16041460004635,217.16041460004635,,,,,,,11032,001,2024_Jan_11_1603,gonogo_S,2021.2.3,59.73836979073259,
go,square.png,space,1503,1.503,2.003,0,89,89,79,,,,,,,,,,,,,,,,,,,,,,,,,219.39717289991677,219.89799420000054,219.8812850001268,221.38458109996282,space,1,0.3316890997812152,219.39717289991677,219.39717289991677,,,,,,,11032,001,2024_Jan_11_1603,gonogo_S,2021.2.3,59.73836979073259,
go,square.png,space,1672,1.672,2.1719999999999997,0,90,90,84,,,,,,,,,,,,,,,,,,,,,,,,,221.4002843000926,221.90094970003702,221.8843455000315,223.57063090009615,space,1,0.3758391998708248,221.4002843000926,221.4002843000926,,,,,,,11032,001,2024_Jan_11_1603,gonogo_S,2021.2.3,59.73836979073259,
go,square.png,space,1148,1.148,1.648,0,91,91,4,,,,,,,,,,,,,,,,,,,,,,,,,223.58752770000137,224.0879279000219,224.07141530001536,225.2233088000212,space,1,0.4211184000596404,223.58752770000137,223.58752770000137,,,,,,,11032,001,2024_Jan_11_1603,gonogo_S,2021.2.3,59.73836979073259,
nogo,triangle.png,None,1577,1.577,2.077,0,92,92,89,,,,,,,,,,,,,,,,,,,,,,,,,225.2395230999682,225.7400867000688,225.72322500008158,227.3091502999887,None,1,,225.2395230999682,225.2395230999682,,,,,,,11032,001,2024_Jan_11_1603,gonogo_S,2021.2.3,59.73836979073259,
nogo,triangle.png,None,1118,1.118,1.618,0,93,93,69,,,,,,,,,,,,,,,,,,,,,,,,,227.32584940013476,227.82713439990766,227.81005940004252,228.92870569997467,None,1,,227.32584940013476,227.32584940013476,,,,,,,11032,001,2024_Jan_11_1603,gonogo_S,2021.2.3,59.73836979073259,
go,square.png,space,1387,1.387,1.887,0,94,94,66,,,,,,,,,,,,,,,,,,,,,,,,,228.94474270008504,229.4456591999624,229.42935439990833,None,space,1,0.4795915000140667,228.94474270008504,228.94474270008504,,,,,,,11032,001,2024_Jan_11_1603,gonogo_S,2021.2.3,59.73836979073259,
nogo,triangle.png,None,1450,1.45,1.95,0,95,95,37,,,,,,,,,,,,,,,,,,,,,,,,,230.8308026001323,231.33231090009212,231.31497510010377,232.76747839991003,None,1,,230.8308026001323,230.8308026001323,,,,,,,11032,001,2024_Jan_11_1603,gonogo_S,2021.2.3,59.73836979073259,
,,,,,,,,,,,,,,,,,,,,,,,,,,,,,,,,,,,,,,,,,,,232.78392040007748,None,space,8.80048429989256,232.78392040007748,None,11032,001,2024_Jan_11_1603,gonogo_S,2021.2.3,59.73836979073259,
