TrialType,Path,Correct,ms,s,ks,trials_4.thisRepN,trials_4.thisTrialN,trials_4.thisN,trials_4.thisIndex,welcome.started,welcome.stopped,space.started,space.stopped,key_resp.keys,key_resp.rt,key_resp.started,key_resp.stopped,Fixwarn.started,Fixwarn.stopped,table.started,table.stopped,key_resp__0.keys,key_resp__0.rt,key_resp__0.started,key_resp__0.stopped,type.started,type.stopped,space_3.started,space_3.stopped,key_resp_6.keys,key_resp_6.rt,key_resp_6.started,key_resp_6.stopped,stim_2.started,stim_2.stopped,text_2.started,text_2.stopped,key_resp_9.keys,key_resp_9.corr,key_resp_9.rt,key_resp_9.started,key_resp_9.stopped,END.started,END.stopped,key_resp_2.keys,key_resp_2.rt,key_resp_2.started,key_resp_2.stopped,participant,session,date,expName,psychopyVersion,frameRate,
,,,,,,,,,,8.495790499961004,None,8.495790499961004,None,space,1.3235270997975022,8.495790499961004,None,,,,,,,,,,,,,,,,,,,,,,,,,,,,,,,,11031,001,2024_Jan_11_1101,gonogo_T,2021.2.3,59.68399710677016,
,,,,,,,,,,,,,,,,,,9.847909999778494,None,9.847909999778494,None,space,3.707720899954438,9.847909999778494,None,,,,,,,,,,,,,,,,,,,,,,,,11031,001,2024_Jan_11_1101,gonogo_T,2021.2.3,59.68399710677016,
,,,,,,,,,,,,,,,,,,,,,,,,,,13.58687169989571,None,13.58687169989571,None,space,2.640290000010282,13.58687169989571,None,,,,,,,,,,,,,,,,11031,001,2024_Jan_11_1101,gonogo_T,2021.2.3,59.68399710677016,
go,triangle.png,space,1641,1.641,2.141,0,0,0,86,,,,,,,,,,,,,,,,,,,,,,,,,16.324849099852145,16.825641999952495,16.808584799990058,18.46084659988992,space,1,0.6622949000447989,16.324849099852145,None,,,,,,,11031,001,2024_Jan_11_1101,gonogo_T,2021.2.3,59.68399710677016,
nogo,square.png,None,1102,1.102,1.602,0,1,1,80,,,,,,,,,,,,,,,,,,,,,,,,,18.47737229987979,18.978620999958366,18.961830999935046,20.06422599987127,None,1,,18.47737229987979,18.47737229987979,,,,,,,11031,001,2024_Jan_11_1101,gonogo_T,2021.2.3,59.68399710677016,
go,triangle.png,space,1280,1.28,1.78,0,2,2,18,,,,,,,,,,,,,,,,,,,,,,,,,20.080078799976036,20.581400799797848,20.56400469993241,21.849238499999046,space,1,0.3314253999851644,20.080078799976036,20.080078799976036,,,,,,,11031,001,2024_Jan_11_1101,gonogo_T,2021.2.3,59.68399710677016,
nogo,square.png,None,1165,1.165,1.665,0,3,3,76,,,,,,,,,,,,,,,,,,,,,,,,,21.866100899875164,22.367186299990863,22.350187899777666,23.51951599982567,None,1,,21.866100899875164,21.866100899875164,,,,,,,11031,001,2024_Jan_11_1101,gonogo_T,2021.2.3,59.68399710677016,
go,triangle.png,space,1711,1.711,2.211,0,4,4,65,,,,,,,,,,,,,,,,,,,,,,,,,23.53503579995595,24.03622019989416,24.01968099991791,25.738187399925664,space,1,0.3239549999125302,23.53503579995595,23.53503579995595,,,,,,,11031,001,2024_Jan_11_1101,gonogo_T,2021.2.3,59.68399710677016,
go,triangle.png,space,1806,1.806,2.306,0,5,5,73,,,,,,,,,,,,,,,,,,,,,,,,,25.75487449998036,26.25618389993906,26.239957899786532,28.0590389999561,space,1,0.3844305998645723,25.75487449998036,25.75487449998036,,,,,,,11031,001,2024_Jan_11_1101,gonogo_T,2021.2.3,59.68399710677016,
go,triangle.png,space,1991,1.991,2.491,0,6,6,82,,,,,,,,,,,,,,,,,,,,,,,,,28.07496289978735,28.575812899973243,28.559129799949005,30.56209349981509,space,1,0.3600746998563409,28.07496289978735,28.07496289978735,,,,,,,11031,001,2024_Jan_11_1101,gonogo_T,2021.2.3,59.68399710677016,
go,triangle.png,space,1161,1.161,1.661,0,7,7,62,,,,,,,,,,,,,,,,,,,,,,,,,30.578635699814186,31.079593499889597,31.062690699938685,32.231197899905965,space,1,0.3126705999020487,30.578635699814186,30.578635699814186,,,,,,,11031,001,2024_Jan_11_1101,gonogo_T,2021.2.3,59.68399710677016,
go,triangle.png,space,1437,1.437,1.937,0,8,8,45,,,,,,,,,,,,,,,,,,,,,,,,,32.24868609989062,32.74873599992134,32.73205479979515,34.167273899773136,space,1,0.3544488998595625,32.24868609989062,32.24868609989062,,,,,,,11031,001,2024_Jan_11_1101,gonogo_T,2021.2.3,59.68399710677016,
go,triangle.png,space,1262,1.262,1.762,0,9,9,61,,,,,,,,,,,,,,,,,,,,,,,,,34.20190419978462,34.70213979994878,34.685535999946296,35.95448389998637,space,1,0.337167999939993,34.20190419978462,34.20190419978462,,,,,,,11031,001,2024_Jan_11_1101,gonogo_T,2021.2.3,59.68399710677016,
go,triangle.png,space,1493,1.493,1.993,0,10,10,69,,,,,,,,,,,,,,,,,,,,,,,,,35.97041919990443,36.470798699883744,36.454917799914256,37.95696079987101,space,1,0.3128323999699205,35.97041919990443,35.97041919990443,,,,,,,11031,001,2024_Jan_11_1101,gonogo_T,2021.2.3,59.68399710677016,
go,triangle.png,space,1651,1.651,2.151,0,11,11,30,,,,,,,,,,,,,,,,,,,,,,,,,37.97305559995584,38.47374919988215,38.45715139992535,40.10954799992032,space,1,0.3019904000684619,37.97305559995584,37.97305559995584,,,,,,,11031,001,2024_Jan_11_1101,gonogo_T,2021.2.3,59.68399710677016,
go,triangle.png,space,1674,1.674,2.174,0,12,12,47,,,,,,,,,,,,,,,,,,,,,,,,,40.126151599921286,40.627521799877286,40.61099569988437,42.29663689993322,space,1,0.3249292999971658,40.126151599921286,40.126151599921286,,,,,,,11031,001,2024_Jan_11_1101,gonogo_T,2021.2.3,59.68399710677016,
go,triangle.png,space,1074,1.074,1.574,0,13,13,41,,,,,,,,,,,,,,,,,,,,,,,,,42.31294619990513,42.81354839983396,42.79677949985489,43.88161619985476,None,0,,42.31294619990513,42.31294619990513,,,,,,,11031,001,2024_Jan_11_1101,gonogo_T,2021.2.3,59.68399710677016,
go,triangle.png,space,1357,1.357,1.857,0,14,14,29,,,,,,,,,,,,,,,,,,,,,,,,,43.898881799774244,44.39994809986092,44.38252429990098,45.75217819982208,space,1,0.3128800999838859,43.898881799774244,43.898881799774244,,,,,,,11031,001,2024_Jan_11_1101,gonogo_T,2021.2.3,59.68399710677016,
go,triangle.png,space,1466,1.466,1.966,0,15,15,94,,,,,,,,,,,,,,,,,,,,,,,,,45.76793589978479,46.26937199989334,46.253156299935654,47.72133609978482,space,1,0.3311271998099983,45.76793589978479,45.76793589978479,,,,,,,11031,001,2024_Jan_11_1101,gonogo_T,2021.2.3,59.68399710677016,
go,triangle.png,space,1973,1.973,2.473,0,16,16,37,,,,,,,,,,,,,,,,,,,,,,,,,47.738363599870354,48.2384413999971,48.22158519993536,50.20845719985664,space,1,0.3447676000650972,47.738363599870354,47.738363599870354,,,,,,,11031,001,2024_Jan_11_1101,gonogo_T,2021.2.3,59.68399710677016,
go,triangle.png,space,1761,1.761,2.261,0,17,17,95,,,,,,,,,,,,,,,,,,,,,,,,,50.22455329983495,50.72545689996332,50.708612699992955,52.4778744999785,space,1,0.3864855000283569,50.22455329983495,50.22455329983495,,,,,,,11031,001,2024_Jan_11_1101,gonogo_T,2021.2.3,59.68399710677016,
nogo,square.png,None,1636,1.636,2.136,0,18,18,0,,,,,,,,,,,,,,,,,,,,,,,,,52.49521919991821,52.9975117999129,52.978658499894664,54.614388699876145,None,1,,52.49521919991821,52.49521919991821,,,,,,,11031,001,2024_Jan_11_1101,gonogo_T,2021.2.3,59.68399710677016,
go,triangle.png,space,1566,1.566,2.066,0,19,19,25,,,,,,,,,,,,,,,,,,,,,,,,,54.63208909984678,55.13249279977754,55.115353300003335,56.68438609992154,space,1,0.36300090001896024,54.63208909984678,54.63208909984678,,,,,,,11031,001,2024_Jan_11_1101,gonogo_T,2021.2.3,59.68399710677016,
go,triangle.png,space,1630,1.63,2.13,0,20,20,23,,,,,,,,,,,,,,,,,,,,,,,,,56.70073639997281,57.20155459991656,57.18474409985356,58.820591299794614,space,1,0.4150040000677109,56.70073639997281,56.70073639997281,,,,,,,11031,001,2024_Jan_11_1101,gonogo_T,2021.2.3,59.68399710677016,
go,triangle.png,space,1386,1.386,1.886,0,21,21,83,,,,,,,,,,,,,,,,,,,,,,,,,58.83795019984245,59.33822719985619,59.322231699945405,None,space,1,0.3498482001014054,58.83795019984245,58.83795019984245,,,,,,,11031,001,2024_Jan_11_1101,gonogo_T,2021.2.3,59.68399710677016,
go,triangle.png,space,1866,1.866,2.366,0,22,22,42,,,,,,,,,,,,,,,,,,,,,,,,,60.723837999859825,61.22419399977662,61.2076896999497,63.077221899991855,space,1,0.3673131000250578,60.723837999859825,60.723837999859825,,,,,,,11031,001,2024_Jan_11_1101,gonogo_T,2021.2.3,59.68399710677016,
go,triangle.png,space,1590,1.59,2.09,0,23,23,19,,,,,,,,,,,,,,,,,,,,,,,,,63.093636999838054,63.59514159988612,63.577735599828884,65.17988469987176,space,1,0.3343650000169873,63.093636999838054,63.093636999838054,,,,,,,11031,001,2024_Jan_11_1101,gonogo_T,2021.2.3,59.68399710677016,
nogo,square.png,None,1698,1.698,2.198,0,24,24,32,,,,,,,,,,,,,,,,,,,,,,,,,65.19660259992816,65.69750849995762,65.68189059989527,67.38317529996857,None,1,,65.19660259992816,65.19660259992816,,,,,,,11031,001,2024_Jan_11_1101,gonogo_T,2021.2.3,59.68399710677016,
nogo,square.png,None,1413,1.413,1.913,0,25,25,16,,,,,,,,,,,,,,,,,,,,,,,,,67.39981119986624,67.9011993999593,67.8841642998159,69.30337270000018,None,1,,67.39981119986624,67.39981119986624,,,,,,,11031,001,2024_Jan_11_1101,gonogo_T,2021.2.3,59.68399710677016,
nogo,square.png,None,1518,1.518,2.018,0,26,26,56,,,,,,,,,,,,,,,,,,,,,,,,,69.31950269988738,69.82214029994793,69.80342159979045,71.32322189980187,None,1,,69.31950269988738,69.31950269988738,,,,,,,11031,001,2024_Jan_11_1101,gonogo_T,2021.2.3,59.68399710677016,
go,triangle.png,space,1217,1.217,1.717,0,27,27,1,,,,,,,,,,,,,,,,,,,,,,,,,71.33918279991485,71.83987439982593,71.82315869978629,73.04173549986444,space,1,0.36007230007089674,71.33918279991485,71.33918279991485,,,,,,,11031,001,2024_Jan_11_1101,gonogo_T,2021.2.3,59.68399710677016,
go,triangle.png,space,1869,1.869,2.369,0,28,28,59,,,,,,,,,,,,,,,,,,,,,,,,,73.05849219998345,73.55905219982378,73.54397079977207,None,space,1,0.3526020001154393,73.05849219998345,73.05849219998345,,,,,,,11031,001,2024_Jan_11_1101,gonogo_T,2021.2.3,59.68399710677016,
go,triangle.png,space,1002,1.002,1.502,0,29,29,34,,,,,,,,,,,,,,,,,,,,,,,,,75.42845729994588,75.9293290998321,75.91261859983206,76.91396299982443,space,1,0.35134879988618195,75.42845729994588,75.42845729994588,,,,,,,11031,001,2024_Jan_11_1101,gonogo_T,2021.2.3,59.68399710677016,
nogo,square.png,None,1467,1.467,1.967,0,30,30,72,,,,,,,,,,,,,,,,,,,,,,,,,76.93074759980664,77.43375719990581,77.41552999988198,78.88500919984654,None,1,,76.93074759980664,76.93074759980664,,,,,,,11031,001,2024_Jan_11_1101,gonogo_T,2021.2.3,59.68399710677016,
go,triangle.png,space,1825,1.825,2.325,0,31,31,10,,,,,,,,,,,,,,,,,,,,,,,,,78.90080889989622,79.40139569994062,79.38442529994063,81.2211025999859,space,1,0.3264138998929411,78.90080889989622,78.90080889989622,,,,,,,11031,001,2024_Jan_11_1101,gonogo_T,2021.2.3,59.68399710677016,
nogo,square.png,None,1600,1.6,2.1,0,32,32,92,,,,,,,,,,,,,,,,,,,,,,,,,81.23707919986919,81.73831659997813,81.72234429977834,83.32407209998928,None,1,,81.23707919986919,81.23707919986919,,,,,,,11031,001,2024_Jan_11_1101,gonogo_T,2021.2.3,59.68399710677016,
nogo,square.png,None,1414,1.414,1.914,0,33,33,68,,,,,,,,,,,,,,,,,,,,,,,,,83.34022449981421,83.84115899982862,83.82490659994073,85.24376019998454,None,1,,83.34022449981421,83.34022449981421,,,,,,,11031,001,2024_Jan_11_1101,gonogo_T,2021.2.3,59.68399710677016,
nogo,square.png,None,1267,1.267,1.767,0,34,34,20,,,,,,,,,,,,,,,,,,,,,,,,,85.26008339994587,85.76044559990987,85.74477579980157,87.01283919997513,None,1,,85.26008339994587,85.26008339994587,,,,,,,11031,001,2024_Jan_11_1101,gonogo_T,2021.2.3,59.68399710677016,
go,triangle.png,space,1575,1.575,2.075,0,35,35,33,,,,,,,,,,,,,,,,,,,,,,,,,87.02937519992702,87.53058999986388,87.51309789996594,89.0989037998952,space,1,0.3823840001132339,87.02937519992702,87.02937519992702,,,,,,,11031,001,2024_Jan_11_1101,gonogo_T,2021.2.3,59.68399710677016,
go,triangle.png,space,1532,1.532,2.032,0,36,36,2,,,,,,,,,,,,,,,,,,,,,,,,,89.11632209992968,89.61675609997474,89.6005919999443,91.13514169980772,space,1,0.3749024998396635,89.11632209992968,89.11632209992968,,,,,,,11031,001,2024_Jan_11_1101,gonogo_T,2021.2.3,59.68399710677016,
go,triangle.png,space,1095,1.095,1.595,0,37,37,63,,,,,,,,,,,,,,,,,,,,,,,,,91.15259559988044,91.65327129978687,91.63580879988149,92.73759029991925,space,1,0.3147443998605013,91.15259559988044,91.15259559988044,,,,,,,11031,001,2024_Jan_11_1101,gonogo_T,2021.2.3,59.68399710677016,
go,triangle.png,space,1767,1.767,2.267,0,38,38,77,,,,,,,,,,,,,,,,,,,,,,,,,92.75420719990507,93.25485279993154,93.23824789980426,95.00759139982983,space,1,0.32918789982795715,92.75420719990507,92.75420719990507,,,,,,,11031,001,2024_Jan_11_1101,gonogo_T,2021.2.3,59.68399710677016,
go,triangle.png,space,1806,1.806,2.306,0,39,39,85,,,,,,,,,,,,,,,,,,,,,,,,,95.02523079980165,95.52505449997261,95.50824499991722,97.32911469996907,space,1,0.3622596999630332,95.02523079980165,95.02523079980165,,,,,,,11031,001,2024_Jan_11_1101,gonogo_T,2021.2.3,59.68399710677016,
nogo,square.png,None,1194,1.194,1.694,0,40,40,24,,,,,,,,,,,,,,,,,,,,,,,,,97.3443721998483,97.8450665997807,97.82817079988308,99.03080670000054,None,1,,97.3443721998483,97.3443721998483,,,,,,,11031,001,2024_Jan_11_1101,gonogo_T,2021.2.3,59.68399710677016,
go,triangle.png,space,1955,1.955,2.455,0,41,41,35,,,,,,,,,,,,,,,,,,,,,,,,,99.04770579980686,99.54768879991025,99.53144489997067,101.50139719992876,space,1,0.4838186998385936,99.04770579980686,99.04770579980686,,,,,,,11031,001,2024_Jan_11_1101,gonogo_T,2021.2.3,59.68399710677016,
go,triangle.png,space,1246,1.246,1.746,0,42,42,87,,,,,,,,,,,,,,,,,,,,,,,,,101.51787699991837,102.0184212999884,102.0019362999592,103.25307769980282,space,1,0.3732741998974234,101.51787699991837,101.51787699991837,,,,,,,11031,001,2024_Jan_11_1101,gonogo_T,2021.2.3,59.68399710677016,
go,triangle.png,space,1822,1.822,2.322,0,43,43,26,,,,,,,,,,,,,,,,,,,,,,,,,103.26987969991751,103.77055469993502,103.75370449991897,None,space,1,0.3337748998310417,103.26987969991751,103.26987969991751,,,,,,,11031,001,2024_Jan_11_1101,gonogo_T,2021.2.3,59.68399710677016,
go,triangle.png,space,1320,1.32,1.82,0,44,44,54,,,,,,,,,,,,,,,,,,,,,,,,,105.58980879979208,106.0904291998595,106.07376659987494,105.58980879979208,space,1,0.39834569999948144,105.58980879979208,105.58980879979208,,,,,,,11031,001,2024_Jan_11_1101,gonogo_T,2021.2.3,59.68399710677016,
go,triangle.png,space,1940,1.94,2.44,0,45,45,49,,,,,,,,,,,,,,,,,,,,,,,,,107.40907579986379,107.90978039987385,107.89334849989973,109.84695589984767,space,1,0.39405470015481114,107.40907579986379,107.40907579986379,,,,,,,11031,001,2024_Jan_11_1101,gonogo_T,2021.2.3,59.68399710677016,
go,triangle.png,space,1021,1.021,1.521,0,46,46,91,,,,,,,,,,,,,,,,,,,,,,,,,109.86290899990126,110.36353759979829,110.3475824999623,None,space,1,0.41275919997133315,109.86290899990126,109.86290899990126,,,,,,,11031,001,2024_Jan_11_1101,gonogo_T,2021.2.3,59.68399710677016,
go,triangle.png,space,1388,1.388,1.888,0,47,47,9,,,,,,,,,,,,,,,,,,,,,,,,,111.38276599999517,111.88337869988754,111.8659196998924,113.26891629979946,space,1,0.40473469998687506,111.38276599999517,111.38276599999517,,,,,,,11031,001,2024_Jan_11_1101,gonogo_T,2021.2.3,59.68399710677016,
go,triangle.png,space,1180,1.18,1.68,0,48,48,81,,,,,,,,,,,,,,,,,,,,,,,,,113.28472070000134,113.78656779997982,113.76868039998226,114.95409169979393,space,1,0.39051189995370805,113.28472070000134,113.28472070000134,,,,,,,11031,001,2024_Jan_11_1101,gonogo_T,2021.2.3,59.68399710677016,
go,triangle.png,space,1087,1.087,1.587,0,49,49,50,,,,,,,,,,,,,,,,,,,,,,,,,114.97046999982558,115.4711767998524,115.45579219982028,None,space,1,0.37658640020526946,114.97046999982558,114.97046999982558,,,,,,,11031,001,2024_Jan_11_1101,gonogo_T,2021.2.3,59.68399710677016,
go,triangle.png,space,1370,1.37,1.87,0,50,50,13,,,,,,,,,,,,,,,,,,,,,,,,,116.55620419979095,117.05758809996769,117.04053829982877,116.55620419979095,space,1,0.3189592999406159,116.55620419979095,116.55620419979095,,,,,,,11031,001,2024_Jan_11_1101,gonogo_T,2021.2.3,59.68399710677016,
go,triangle.png,space,1329,1.329,1.829,0,51,51,27,,,,,,,,,,,,,,,,,,,,,,,,,118.42638209997676,118.9276111999061,118.91145779984072,120.24557499983348,space,1,0.33665479999035597,118.42638209997676,118.42638209997676,,,,,,,11031,001,2024_Jan_11_1101,gonogo_T,2021.2.3,59.68399710677016,
nogo,square.png,None,1913,1.913,2.413,0,52,52,36,,,,,,,,,,,,,,,,,,,,,,,,,120.26163609977812,120.76235669991001,120.74677019985393,122.6651594999712,None,1,,120.26163609977812,120.26163609977812,,,,,,,11031,001,2024_Jan_11_1101,gonogo_T,2021.2.3,59.68399710677016,
nogo,square.png,None,1154,1.154,1.654,0,53,53,40,,,,,,,,,,,,,,,,,,,,,,,,,122.68197539984249,123.18331209989265,123.16664279997349,124.3344313998241,None,1,,122.68197539984249,122.68197539984249,,,,,,,11031,001,2024_Jan_11_1101,gonogo_T,2021.2.3,59.68399710677016,
nogo,square.png,None,1611,1.611,2.111,0,54,54,28,,,,,,,,,,,,,,,,,,,,,,,,,124.3518260999117,124.85218889988028,124.83645429997705,126.45472509996034,None,1,,124.3518260999117,124.3518260999117,,,,,,,11031,001,2024_Jan_11_1101,gonogo_T,2021.2.3,59.68399710677016,
go,triangle.png,space,1979,1.979,2.479,0,55,55,93,,,,,,,,,,,,,,,,,,,,,,,,,126.47078099986538,126.97158659994602,126.95493039977737,128.94193420000374,space,1,0.4604340000078082,126.47078099986538,126.47078099986538,,,,,,,11031,001,2024_Jan_11_1101,gonogo_T,2021.2.3,59.68399710677016,
go,triangle.png,space,1796,1.796,2.296,0,56,56,58,,,,,,,,,,,,,,,,,,,,,,,,,128.95792549988255,129.4585405997932,129.44184959982522,131.24503049999475,space,1,0.29332530009560287,128.95792549988255,128.95792549988255,,,,,,,11031,001,2024_Jan_11_1101,gonogo_T,2021.2.3,59.68399710677016,
nogo,square.png,None,1131,1.131,1.631,0,57,57,52,,,,,,,,,,,,,,,,,,,,,,,,,131.26135489996523,131.76200439990498,131.74545039981604,132.88058699993417,None,1,,131.26135489996523,131.26135489996523,,,,,,,11031,001,2024_Jan_11_1101,gonogo_T,2021.2.3,59.68399710677016,
nogo,square.png,None,1337,1.337,1.837,0,58,58,64,,,,,,,,,,,,,,,,,,,,,,,,,132.8969432997983,133.39769189991057,133.38178579998203,None,None,1,,132.8969432997983,132.8969432997983,,,,,,,11031,001,2024_Jan_11_1101,gonogo_T,2021.2.3,59.68399710677016,
nogo,square.png,None,1379,1.379,1.879,0,59,59,84,,,,,,,,,,,,,,,,,,,,,,,,,134.73307629977353,135.23427069978788,135.21722949994728,136.60247729998082,None,1,,134.73307629977353,134.73307629977353,,,,,,,11031,001,2024_Jan_11_1101,gonogo_T,2021.2.3,59.68399710677016,
go,triangle.png,space,1714,1.714,2.214,0,60,60,22,,,,,,,,,,,,,,,,,,,,,,,,,136.61912839999422,137.1204899000004,137.10385159985162,138.82249009981751,space,1,0.4160822001285851,136.61912839999422,136.61912839999422,,,,,,,11031,001,2024_Jan_11_1101,gonogo_T,2021.2.3,59.68399710677016,
nogo,square.png,None,1453,1.453,1.953,0,61,61,12,,,,,,,,,,,,,,,,,,,,,,,,,138.83921099989675,139.3415059999097,139.3232497998979,140.77671529981308,None,1,,138.83921099989675,138.83921099989675,,,,,,,11031,001,2024_Jan_11_1101,gonogo_T,2021.2.3,59.68399710677016,
go,triangle.png,space,1052,1.052,1.552,0,62,62,89,,,,,,,,,,,,,,,,,,,,,,,,,140.7921179998666,141.2926017998252,141.27675709989853,142.3284144999925,space,1,0.3233386999927461,140.7921179998666,140.7921179998666,,,,,,,11031,001,2024_Jan_11_1101,gonogo_T,2021.2.3,59.68399710677016,
go,triangle.png,space,1478,1.478,1.978,0,63,63,75,,,,,,,,,,,,,,,,,,,,,,,,,142.3444135999307,142.84509109985083,142.82847589999437,144.31458289991133,space,1,0.4268841000739485,142.3444135999307,142.3444135999307,,,,,,,11031,001,2024_Jan_11_1101,gonogo_T,2021.2.3,59.68399710677016,
go,triangle.png,space,1739,1.739,2.239,0,64,64,17,,,,,,,,,,,,,,,,,,,,,,,,,144.3307160998229,144.83214339986444,144.81489439983852,146.56963789998554,space,1,0.4246094000991434,144.3307160998229,144.3307160998229,,,,,,,11031,001,2024_Jan_11_1101,gonogo_T,2021.2.3,59.68399710677016,
go,triangle.png,space,1233,1.233,1.733,0,65,65,46,,,,,,,,,,,,,,,,,,,,,,,,,146.58474719990045,147.0848401999101,147.06849699979648,148.303264999995,space,1,0.36281000007875264,146.58474719990045,146.58474719990045,,,,,,,11031,001,2024_Jan_11_1101,gonogo_T,2021.2.3,59.68399710677016,
go,triangle.png,space,1074,1.074,1.574,0,66,66,6,,,,,,,,,,,,,,,,,,,,,,,,,148.32056279992685,148.82064169994555,148.80476319999434,149.8891817999538,space,1,0.39496179996058345,148.32056279992685,148.32056279992685,,,,,,,11031,001,2024_Jan_11_1101,gonogo_T,2021.2.3,59.68399710677016,
go,triangle.png,space,1447,1.447,1.947,0,67,67,7,,,,,,,,,,,,,,,,,,,,,,,,,149.90555999986827,150.40617679990828,150.3896670998074,151.84198219981045,space,1,0.3535509998910129,149.90555999986827,149.90555999986827,,,,,,,11031,001,2024_Jan_11_1101,gonogo_T,2021.2.3,59.68399710677016,
go,triangle.png,space,1960,1.96,2.46,0,68,68,31,,,,,,,,,,,,,,,,,,,,,,,,,151.85848039994016,152.3592845997773,152.34245599992573,154.3126652999781,space,1,0.3930442000273615,151.85848039994016,151.85848039994016,,,,,,,11031,001,2024_Jan_11_1101,gonogo_T,2021.2.3,59.68399710677016,
go,triangle.png,space,1918,1.918,2.418,0,69,69,3,,,,,,,,,,,,,,,,,,,,,,,,,154.32880959985778,154.82949619996361,154.81312339985743,156.73226179997437,space,1,0.4182827998884022,154.32880959985778,154.32880959985778,,,,,,,11031,001,2024_Jan_11_1101,gonogo_T,2021.2.3,59.68399710677016,
nogo,square.png,None,1233,1.233,1.733,0,70,70,44,,,,,,,,,,,,,,,,,,,,,,,,,156.74879009998403,157.2504772997927,157.23369349981658,158.4684989999514,None,1,,156.74879009998403,156.74879009998403,,,,,,,11031,001,2024_Jan_11_1101,gonogo_T,2021.2.3,59.68399710677016,
go,triangle.png,space,1329,1.329,1.829,0,71,71,90,,,,,,,,,,,,,,,,,,,,,,,,,158.4849818998482,158.9856654999312,158.96900619985536,160.30494919978082,space,1,0.43068990018218756,158.4849818998482,158.4849818998482,,,,,,,11031,001,2024_Jan_11_1101,gonogo_T,2021.2.3,59.68399710677016,
go,triangle.png,space,1448,1.448,1.948,0,72,72,43,,,,,,,,,,,,,,,,,,,,,,,,,160.32101239985786,160.82186879985966,160.8050038998481,162.2571622999385,space,1,0.4106143000535667,160.32101239985786,160.32101239985786,,,,,,,11031,001,2024_Jan_11_1101,gonogo_T,2021.2.3,59.68399710677016,
go,triangle.png,space,1589,1.589,2.089,0,73,73,39,,,,,,,,,,,,,,,,,,,,,,,,,162.27400289988145,162.77448029979132,162.75789249991067,164.36044509988278,space,1,0.4012533000204712,162.27400289988145,162.27400289988145,,,,,,,11031,001,2024_Jan_11_1101,gonogo_T,2021.2.3,59.68399710677016,
nogo,square.png,None,1895,1.895,2.395,0,74,74,4,,,,,,,,,,,,,,,,,,,,,,,,,164.37703859992325,164.87783619994298,164.86107469978742,166.76390999997966,None,1,,164.37703859992325,164.37703859992325,,,,,,,11031,001,2024_Jan_11_1101,gonogo_T,2021.2.3,59.68399710677016,
go,triangle.png,space,1457,1.457,1.957,0,75,75,66,,,,,,,,,,,,,,,,,,,,,,,,,166.78047329979017,167.2817308998201,167.26466649980284,168.73393829981796,space,1,0.42313460004515946,166.78047329979017,166.78047329979017,,,,,,,11031,001,2024_Jan_11_1101,gonogo_T,2021.2.3,59.68399710677016,
nogo,square.png,None,1139,1.139,1.639,0,76,76,48,,,,,,,,,,,,,,,,,,,,,,,,,168.75021429988556,169.2510695999954,169.23475079983473,170.38592769997194,None,1,,168.75021429988556,168.75021429988556,,,,,,,11031,001,2024_Jan_11_1101,gonogo_T,2021.2.3,59.68399710677016,
go,triangle.png,space,1716,1.716,2.216,0,77,77,14,,,,,,,,,,,,,,,,,,,,,,,,,170.40261609992012,170.90370529983193,170.88650589995086,172.60598359978758,space,1,0.38525139982812107,170.40261609992012,170.40261609992012,,,,,,,11031,001,2024_Jan_11_1101,gonogo_T,2021.2.3,59.68399710677016,
go,triangle.png,space,1036,1.036,1.536,0,78,78,70,,,,,,,,,,,,,,,,,,,,,,,,,172.6234175998252,173.12372359982692,173.1067558999639,174.15809859987348,space,1,0.46015199995599687,172.6234175998252,172.6234175998252,,,,,,,11031,001,2024_Jan_11_1101,gonogo_T,2021.2.3,59.68399710677016,
go,triangle.png,space,1582,1.582,2.082,0,79,79,67,,,,,,,,,,,,,,,,,,,,,,,,,174.1749671997968,174.6763088000007,174.65989479981363,176.24457029998302,space,1,0.41208290006034076,174.1749671997968,174.1749671997968,,,,,,,11031,001,2024_Jan_11_1101,gonogo_T,2021.2.3,59.68399710677016,
go,triangle.png,space,1003,1.003,1.503,0,80,80,15,,,,,,,,,,,,,,,,,,,,,,,,,176.26145689981058,176.7623657998629,176.74517979985103,None,space,1,0.41416279994882643,176.26145689981058,176.26145689981058,,,,,,,11031,001,2024_Jan_11_1101,gonogo_T,2021.2.3,59.68399710677016,
nogo,square.png,None,1776,1.776,2.276,0,81,81,8,,,,,,,,,,,,,,,,,,,,,,,,,177.7634240000043,178.26430249982513,178.24881509994157,180.0334925998468,None,1,,177.7634240000043,177.7634240000043,,,,,,,11031,001,2024_Jan_11_1101,gonogo_T,2021.2.3,59.68399710677016,
go,triangle.png,space,1879,1.879,2.379,0,82,82,11,,,,,,,,,,,,,,,,,,,,,,,,,180.05101789999753,180.5521689997986,180.53497879998758,182.42045199987479,space,1,0.3444653998594731,180.05101789999753,180.05101789999753,,,,,,,11031,001,2024_Jan_11_1101,gonogo_T,2021.2.3,59.68399710677016,
go,triangle.png,space,1105,1.105,1.605,0,83,83,57,,,,,,,,,,,,,,,,,,,,,,,,,182.43696459988132,182.93795649986714,182.92204359988682,184.0407503999304,space,1,0.3828515999484807,182.43696459988132,182.43696459988132,,,,,,,11031,001,2024_Jan_11_1101,gonogo_T,2021.2.3,59.68399710677016,
nogo,square.png,None,1844,1.844,2.344,0,84,84,88,,,,,,,,,,,,,,,,,,,,,,,,,184.05615319986828,184.5569675997831,184.54031650000252,186.39290989981964,None,1,,184.05615319986828,184.05615319986828,,,,,,,11031,001,2024_Jan_11_1101,gonogo_T,2021.2.3,59.68399710677016,
go,triangle.png,space,1344,1.344,1.844,0,85,85,53,,,,,,,,,,,,,,,,,,,,,,,,,186.4094596998766,186.9105018998962,186.89458669978194,188.24579159985296,space,1,0.28983279992826283,186.4094596998766,186.4094596998766,,,,,,,11031,001,2024_Jan_11_1101,gonogo_T,2021.2.3,59.68399710677016,
go,triangle.png,space,1154,1.154,1.654,0,86,86,71,,,,,,,,,,,,,,,,,,,,,,,,,188.26226549991407,188.76332449982874,188.74639159999788,None,space,1,0.3813273999840021,188.26226549991407,188.26226549991407,,,,,,,11031,001,2024_Jan_11_1101,gonogo_T,2021.2.3,59.68399710677016,
go,triangle.png,space,1962,1.962,2.462,0,87,87,74,,,,,,,,,,,,,,,,,,,,,,,,,189.91499699978158,190.41564519982785,190.39960469980724,192.368858799804,space,1,0.3361777998507023,189.91499699978158,189.91499699978158,,,,,,,11031,001,2024_Jan_11_1101,gonogo_T,2021.2.3,59.68399710677016,
go,triangle.png,space,1630,1.63,2.13,0,88,88,79,,,,,,,,,,,,,,,,,,,,,,,,,192.38575019990094,192.88587949983776,192.86910699983127,194.50689739990048,space,1,0.39360229996964335,192.38575019990094,192.38575019990094,,,,,,,11031,001,2024_Jan_11_1101,gonogo_T,2021.2.3,59.68399710677016,
go,triangle.png,space,1594,1.594,2.094,0,89,89,38,,,,,,,,,,,,,,,,,,,,,,,,,194.52173599996604,195.02363839978352,195.00570499990135,196.60826159990393,space,1,0.3695012000389397,194.52173599996604,194.52173599996604,,,,,,,11031,001,2024_Jan_11_1101,gonogo_T,2021.2.3,59.68399710677016,
go,triangle.png,space,1450,1.45,1.95,0,90,90,78,,,,,,,,,,,,,,,,,,,,,,,,,196.62552989996038,197.1255921998527,197.10929029993713,198.56099509983324,space,1,0.3697412998881191,196.62552989996038,196.62552989996038,,,,,,,11031,001,2024_Jan_11_1101,gonogo_T,2021.2.3,59.68399710677016,
go,triangle.png,space,1791,1.791,2.291,0,91,91,55,,,,,,,,,,,,,,,,,,,,,,,,,198.57794439978898,199.07839549984783,199.06184789980762,200.864503899822,space,1,0.3295853000599891,198.57794439978898,198.57794439978898,,,,,,,11031,001,2024_Jan_11_1101,gonogo_T,2021.2.3,59.68399710677016,
go,triangle.png,space,1529,1.529,2.029,0,92,92,51,,,,,,,,,,,,,,,,,,,,,,,,,200.8811925998889,201.3819169998169,201.36527819978073,202.90069969999604,space,1,0.31447209999896586,200.8811925998889,200.8811925998889,,,,,,,11031,001,2024_Jan_11_1101,gonogo_T,2021.2.3,59.68399710677016,
nogo,square.png,None,1783,1.783,2.283,0,93,93,60,,,,,,,,,,,,,,,,,,,,,,,,,202.91725249984302,203.41813289979473,203.40157669992186,205.18783999979496,None,1,,202.91725249984302,202.91725249984302,,,,,,,11031,001,2024_Jan_11_1101,gonogo_T,2021.2.3,59.68399710677016,
go,triangle.png,space,1445,1.445,1.945,0,94,94,5,,,,,,,,,,,,,,,,,,,,,,,,,205.2044006998185,205.70488649979234,205.6880297998432,207.14072259981185,space,1,0.34275730000808835,205.2044006998185,205.2044006998185,,,,,,,11031,001,2024_Jan_11_1101,gonogo_T,2021.2.3,59.68399710677016,
go,triangle.png,space,1323,1.323,1.823,0,95,95,21,,,,,,,,,,,,,,,,,,,,,,,,,207.1569440998137,207.6586288998369,207.64121179981157,208.97642009984702,space,1,0.3423558999784291,207.1569440998137,207.1569440998137,,,,,,,11031,001,2024_Jan_11_1101,gonogo_T,2021.2.3,59.68399710677016,
,,,,,,,,,,,,,,,,,,,,,,,,,,,,,,,,,,,,,,,,,,,208.99315029988065,None,space,2.218926099827513,208.99315029988065,None,11031,001,2024_Jan_11_1101,gonogo_T,2021.2.3,59.68399710677016,
