TrialType,Path,Correct,ms,s,ks,trials_4.thisRepN,trials_4.thisTrialN,trials_4.thisN,trials_4.thisIndex,welcome.started,welcome.stopped,space.started,space.stopped,key_resp.keys,key_resp.rt,key_resp.started,key_resp.stopped,Fixwarn.started,Fixwarn.stopped,table.started,table.stopped,key_resp__0.keys,key_resp__0.rt,key_resp__0.started,key_resp__0.stopped,type.started,type.stopped,space_3.started,space_3.stopped,key_resp_6.keys,key_resp_6.rt,key_resp_6.started,key_resp_6.stopped,stim_2.started,stim_2.stopped,text_2.started,text_2.stopped,key_resp_9.keys,key_resp_9.corr,key_resp_9.rt,key_resp_9.started,key_resp_9.stopped,END.started,END.stopped,key_resp_2.keys,key_resp_2.rt,key_resp_2.started,key_resp_2.stopped,participant,session,date,expName,psychopyVersion,frameRate,
,,,,,,,,,,8.988649100007024,None,8.988649100007024,None,space,1.2456544999731705,8.988649100007024,None,,,,,,,,,,,,,,,,,,,,,,,,,,,,,,,,11041,001,2024_Mar_15_1429,gonogo_T,2021.2.3,60.20436976083712,
,,,,,,,,,,,,,,,,,,10.257347100006882,None,10.257347100006882,None,space,6.313017199980095,10.257347100006882,None,,,,,,,,,,,,,,,,,,,,,,,,11041,001,2024_Mar_15_1429,gonogo_T,2021.2.3,60.20436976083712,
,,,,,,,,,,,,,,,,,,,,,,,,,,16.616941299987957,None,16.616941299987957,None,space,4.017719600000419,16.616941299987957,None,,,,,,,,,,,,,,,,11041,001,2024_Mar_15_1429,gonogo_T,2021.2.3,60.20436976083712,
go,triangle.png,space,1566,1.566,2.066,0,0,0,25,,,,,,,,,,,,,,,,,,,,,,,,,20.722741200006567,21.2234997000196,21.2234997000196,None,space,1,0.5755175000522286,20.722741200006567,None,,,,,,,11041,001,2024_Mar_15_1429,gonogo_T,2021.2.3,60.20436976083712,
go,triangle.png,space,1767,1.767,2.267,0,1,1,77,,,,,,,,,,,,,,,,,,,,,,,,,22.79286729998421,23.293553500028793,23.27672220004024,25.048884299991187,space,1,0.33011270000133663,22.79286729998421,22.79286729998421,,,,,,,11041,001,2024_Mar_15_1429,gonogo_T,2021.2.3,60.20436976083712,
go,triangle.png,space,1180,1.18,1.68,0,2,2,81,,,,,,,,,,,,,,,,,,,,,,,,,25.063407899986487,25.563794300018344,25.547339499986265,26.73212830000557,space,1,0.37109039997449145,25.063407899986487,25.063407899986487,,,,,,,11041,001,2024_Mar_15_1429,gonogo_T,2021.2.3,60.20436976083712,
nogo,square.png,None,1518,1.518,2.018,0,3,3,56,,,,,,,,,,,,,,,,,,,,,,,,,26.74887310003396,27.24965599999996,27.23331480001798,28.751862500037532,None,1,,26.74887310003396,26.74887310003396,,,,,,,11041,001,2024_Mar_15_1429,gonogo_T,2021.2.3,60.20436976083712,
go,triangle.png,space,1445,1.445,1.945,0,4,4,5,,,,,,,,,,,,,,,,,,,,,,,,,28.768515900010243,29.26946310000494,29.252554700011387,30.704562400002033,space,1,0.43422620004275814,28.768515900010243,28.768515900010243,,,,,,,11041,001,2024_Mar_15_1429,gonogo_T,2021.2.3,60.20436976083712,
go,triangle.png,space,1869,1.869,2.369,0,5,5,59,,,,,,,,,,,,,,,,,,,,,,,,,30.721733700018376,31.22250969999004,31.205554299987853,33.075134699989576,space,1,0.3769074000301771,30.721733700018376,30.721733700018376,,,,,,,11041,001,2024_Mar_15_1429,gonogo_T,2021.2.3,60.20436976083712,
nogo,square.png,None,1413,1.413,1.913,0,6,6,16,,,,,,,,,,,,,,,,,,,,,,,,,33.09159910003655,33.59242520004045,33.57569860003423,34.99434380000457,None,1,,33.09159910003655,33.09159910003655,,,,,,,11041,001,2024_Mar_15_1429,gonogo_T,2021.2.3,60.20436976083712,
go,triangle.png,space,1105,1.105,1.605,0,7,7,57,,,,,,,,,,,,,,,,,,,,,,,,,35.01141610002378,35.51219640002819,35.495237199997064,36.61397710000165,space,1,0.4071576000424102,35.01141610002378,35.01141610002378,,,,,,,11041,001,2024_Mar_15_1429,gonogo_T,2021.2.3,60.20436976083712,
go,triangle.png,space,1246,1.246,1.746,0,8,8,87,,,,,,,,,,,,,,,,,,,,,,,,,36.63029679999454,37.130911500018556,37.11522550001973,38.36624020000454,space,1,0.3889267999911681,36.63029679999454,36.63029679999454,,,,,,,11041,001,2024_Mar_15_1429,gonogo_T,2021.2.3,60.20436976083712,
go,triangle.png,space,1594,1.594,2.094,0,9,9,38,,,,,,,,,,,,,,,,,,,,,,,,,38.38349069998367,38.883599299995694,38.867159600020386,40.470764100027736,space,1,0.3312413999810815,38.38349069998367,38.38349069998367,,,,,,,11041,001,2024_Mar_15_1429,gonogo_T,2021.2.3,60.20436976083712,
go,triangle.png,space,1806,1.806,2.306,0,10,10,85,,,,,,,,,,,,,,,,,,,,,,,,,40.48608280002372,40.98726429999806,40.9701003000373,42.7899132000166,space,1,0.3812793000251986,40.48608280002372,40.48608280002372,,,,,,,11041,001,2024_Mar_15_1429,gonogo_T,2021.2.3,60.20436976083712,
nogo,square.png,None,1698,1.698,2.198,0,11,11,32,,,,,,,,,,,,,,,,,,,,,,,,,42.8062157999957,43.30697249999503,43.29024450003635,44.99434159998782,None,1,,42.8062157999957,42.8062157999957,,,,,,,11041,001,2024_Mar_15_1429,gonogo_T,2021.2.3,60.20436976083712,
go,triangle.png,space,1630,1.63,2.13,0,12,12,23,,,,,,,,,,,,,,,,,,,,,,,,,45.00990050000837,45.51026539999293,45.494035899988376,47.129424099985044,space,1,0.4574408999760635,45.00990050000837,45.00990050000837,,,,,,,11041,001,2024_Mar_15_1429,gonogo_T,2021.2.3,60.20436976083712,
go,triangle.png,space,1822,1.822,2.322,0,13,13,26,,,,,,,,,,,,,,,,,,,,,,,,,47.14604399999371,47.648842599999625,47.6299347000313,49.46624680003151,space,1,0.3530184000264853,47.14604399999371,47.14604399999371,,,,,,,11041,001,2024_Mar_15_1429,gonogo_T,2021.2.3,60.20436976083712,
go,triangle.png,space,1791,1.791,2.291,0,14,14,55,,,,,,,,,,,,,,,,,,,,,,,,,49.48314309999114,49.98389730002964,49.967735500016715,51.769743099983316,space,1,0.3280988000333309,49.48314309999114,49.48314309999114,,,,,,,11041,001,2024_Mar_15_1429,gonogo_T,2021.2.3,60.20436976083712,
go,triangle.png,space,1589,1.589,2.089,0,15,15,39,,,,,,,,,,,,,,,,,,,,,,,,,51.78648419998353,52.28724570001941,52.27080749999732,53.87297359999502,space,1,0.3292254999978468,51.78648419998353,51.78648419998353,,,,,,,11041,001,2024_Mar_15_1429,gonogo_T,2021.2.3,60.20436976083712,
go,triangle.png,space,1478,1.478,1.978,0,16,16,75,,,,,,,,,,,,,,,,,,,,,,,,,53.88973689998966,54.390283400018234,54.373645599989686,55.85980199999176,space,1,0.34555840003304183,53.88973689998966,53.88973689998966,,,,,,,11041,001,2024_Mar_15_1429,gonogo_T,2021.2.3,60.20436976083712,
go,triangle.png,space,1036,1.036,1.536,0,17,17,70,,,,,,,,,,,,,,,,,,,,,,,,,55.87584960000822,56.37681889999658,56.36003500001971,None,space,1,0.36822840000968426,55.87584960000822,55.87584960000822,,,,,,,11041,001,2024_Mar_15_1429,gonogo_T,2021.2.3,60.20436976083712,
go,triangle.png,space,1575,1.575,2.075,0,18,18,33,,,,,,,,,,,,,,,,,,,,,,,,,57.411790499987546,57.912581700016744,57.89560089999577,59.48148230003426,space,1,0.35948919999646023,57.411790499987546,57.411790499987546,,,,,,,11041,001,2024_Mar_15_1429,gonogo_T,2021.2.3,60.20436976083712,
go,triangle.png,space,1386,1.386,1.886,0,19,19,83,,,,,,,,,,,,,,,,,,,,,,,,,59.498071899986826,59.998989499988966,59.98234769998817,61.36772530002054,space,1,0.3134474999969825,59.498071899986826,59.498071899986826,,,,,,,11041,001,2024_Mar_15_1429,gonogo_T,2021.2.3,60.20436976083712,
nogo,square.png,None,1844,1.844,2.344,0,20,20,88,,,,,,,,,,,,,,,,,,,,,,,,,61.38415260001784,61.885307700023986,61.86831789999269,63.72166020004079,None,1,,61.38415260001784,61.38415260001784,,,,,,,11041,001,2024_Mar_15_1429,gonogo_T,2021.2.3,60.20436976083712,
go,triangle.png,space,1154,1.154,1.654,0,21,21,71,,,,,,,,,,,,,,,,,,,,,,,,,63.737552000035066,64.23911470000166,64.2222775000264,None,space,1,0.3142826999537647,63.737552000035066,63.737552000035066,,,,,,,11041,001,2024_Mar_15_1429,gonogo_T,2021.2.3,60.20436976083712,
go,triangle.png,space,1323,1.323,1.823,0,22,22,21,,,,,,,,,,,,,,,,,,,,,,,,,65.39037259999895,65.89110130001791,65.87437219999265,67.21035579999443,space,1,0.3093646999914199,65.39037259999895,65.39037259999895,,,,,,,11041,001,2024_Mar_15_1429,gonogo_T,2021.2.3,60.20436976083712,
nogo,square.png,None,1102,1.102,1.602,0,23,23,80,,,,,,,,,,,,,,,,,,,,,,,,,67.22631390002789,67.72789169999305,67.71056420000969,68.81244429998333,None,1,,67.22631390002789,67.22631390002789,,,,,,,11041,001,2024_Mar_15_1429,gonogo_T,2021.2.3,60.20436976083712,
go,triangle.png,space,1074,1.074,1.574,0,24,24,6,,,,,,,,,,,,,,,,,,,,,,,,,68.82885380001971,69.32950049999636,69.31307289999677,70.3981110000168,space,1,0.28677470004186034,68.82885380001971,68.82885380001971,,,,,,,11041,001,2024_Mar_15_1429,gonogo_T,2021.2.3,60.20436976083712,
go,triangle.png,space,1087,1.087,1.587,0,25,25,50,,,,,,,,,,,,,,,,,,,,,,,,,70.4144387000124,70.91514930000994,70.89836450002622,None,space,1,0.269133800000418,70.4144387000124,70.4144387000124,,,,,,,11041,001,2024_Mar_15_1429,gonogo_T,2021.2.3,60.20436976083712,
go,triangle.png,space,1344,1.344,1.844,0,26,26,53,,,,,,,,,,,,,,,,,,,,,,,,,72.00129620003281,72.50096149998717,72.48495780001394,73.83609160000924,space,1,0.37045549997128546,72.00129620003281,72.00129620003281,,,,,,,11041,001,2024_Mar_15_1429,gonogo_T,2021.2.3,60.20436976083712,
go,triangle.png,space,1651,1.651,2.151,0,27,27,30,,,,,,,,,,,,,,,,,,,,,,,,,73.85285219998332,74.35404030000791,74.33779810002306,75.9899640000076,space,1,0.3027843000018038,73.85285219998332,73.85285219998332,,,,,,,11041,001,2024_Mar_15_1429,gonogo_T,2021.2.3,60.20436976083712,
nogo,square.png,None,1194,1.194,1.694,0,28,28,24,,,,,,,,,,,,,,,,,,,,,,,,,76.0071908000391,76.50755760003813,76.49053910002112,77.69278700003633,None,1,,76.0071908000391,76.0071908000391,,,,,,,11041,001,2024_Mar_15_1429,gonogo_T,2021.2.3,60.20436976083712,
nogo,square.png,None,1611,1.611,2.111,0,29,29,28,,,,,,,,,,,,,,,,,,,,,,,,,77.70896670001093,78.20967140002176,78.19291580002755,79.81214130000444,None,1,,77.70896670001093,77.70896670001093,,,,,,,11041,001,2024_Mar_15_1429,gonogo_T,2021.2.3,60.20436976083712,
nogo,square.png,None,1783,1.783,2.283,0,30,30,60,,,,,,,,,,,,,,,,,,,,,,,,,79.82878169999458,80.32980030000908,80.31291400000919,82.09875589999137,None,1,,79.82878169999458,79.82878169999458,,,,,,,11041,001,2024_Mar_15_1429,gonogo_T,2021.2.3,60.20436976083712,
nogo,square.png,None,1337,1.337,1.837,0,31,31,64,,,,,,,,,,,,,,,,,,,,,,,,,82.11553260002984,82.61647690000245,82.60012540000025,None,None,1,,82.11553260002984,82.11553260002984,,,,,,,11041,001,2024_Mar_15_1429,gonogo_T,2021.2.3,60.20436976083712,
go,triangle.png,space,1716,1.716,2.216,0,32,32,14,,,,,,,,,,,,,,,,,,,,,,,,,83.95203200000105,84.45228070003213,84.43590590002714,86.15629340003943,space,1,0.43602480000117794,83.95203200000105,83.95203200000105,,,,,,,11041,001,2024_Mar_15_1429,gonogo_T,2021.2.3,60.20436976083712,
go,triangle.png,space,1711,1.711,2.211,0,33,33,65,,,,,,,,,,,,,,,,,,,,,,,,,86.17204899998615,86.67227700003423,86.65556370001286,88.37543780001579,space,1,0.3039225999964401,86.17204899998615,86.17204899998615,,,,,,,11041,001,2024_Mar_15_1429,gonogo_T,2021.2.3,60.20436976083712,
go,triangle.png,space,1280,1.28,1.78,0,34,34,18,,,,,,,,,,,,,,,,,,,,,,,,,88.39151739998488,88.89246180001646,88.8757141000242,90.16112790000625,space,1,0.324996099981945,88.39151739998488,88.39151739998488,,,,,,,11041,001,2024_Mar_15_1429,gonogo_T,2021.2.3,60.20436976083712,
go,triangle.png,space,1674,1.674,2.174,0,35,35,47,,,,,,,,,,,,,,,,,,,,,,,,,90.17816910002148,90.67899960000068,90.66174579999642,92.34772920003161,space,1,0.31437120004557073,90.17816910002148,90.17816910002148,,,,,,,11041,001,2024_Mar_15_1429,gonogo_T,2021.2.3,60.20436976083712,
go,triangle.png,space,1825,1.825,2.325,0,36,36,10,,,,,,,,,,,,,,,,,,,,,,,,,92.36410450004041,92.86561810004059,92.84840560000157,94.68502959999023,space,1,0.3525231999810785,92.36410450004041,92.36410450004041,,,,,,,11041,001,2024_Mar_15_1429,gonogo_T,2021.2.3,60.20436976083712,
go,triangle.png,space,1806,1.806,2.306,0,37,37,73,,,,,,,,,,,,,,,,,,,,,,,,,94.70163970004069,95.2021470000036,95.18547630001558,97.00457079999615,space,1,0.32673329999670386,94.70163970004069,94.70163970004069,,,,,,,11041,001,2024_Mar_15_1429,gonogo_T,2021.2.3,60.20436976083712,
go,triangle.png,space,1582,1.582,2.082,0,38,38,67,,,,,,,,,,,,,,,,,,,,,,,,,97.02262649999466,97.52209250000305,97.50527940003667,99.09177310002269,space,1,0.3259049999760464,97.02262649999466,97.02262649999466,,,,,,,11041,001,2024_Mar_15_1429,gonogo_T,2021.2.3,60.20436976083712,
nogo,square.png,None,1267,1.267,1.767,0,39,39,20,,,,,,,,,,,,,,,,,,,,,,,,,99.10812029999215,99.60882349999156,99.59194030001527,100.86033120000502,None,1,,99.10812029999215,99.10812029999215,,,,,,,11041,001,2024_Mar_15_1429,gonogo_T,2021.2.3,60.20436976083712,
go,triangle.png,space,1329,1.329,1.829,0,40,40,90,,,,,,,,,,,,,,,,,,,,,,,,,100.87712770001963,101.37766160001047,101.36102569999639,102.69679580000229,space,1,0.3916142000234686,100.87712770001963,100.87712770001963,,,,,,,11041,001,2024_Mar_15_1429,gonogo_T,2021.2.3,60.20436976083712,
nogo,square.png,None,1453,1.453,1.953,0,41,41,12,,,,,,,,,,,,,,,,,,,,,,,,,102.71339829999488,103.21380229998613,103.19723620003788,104.64936540002236,None,1,,102.71339829999488,102.71339829999488,,,,,,,11041,001,2024_Mar_15_1429,gonogo_T,2021.2.3,60.20436976083712,
go,triangle.png,space,1021,1.021,1.521,0,42,42,91,,,,,,,,,,,,,,,,,,,,,,,,,104.66604300000472,105.16698500001803,105.15089879999869,106.18517370003974,space,1,0.29055849998258054,104.66604300000472,104.66604300000472,,,,,,,11041,001,2024_Mar_15_1429,gonogo_T,2021.2.3,60.20436976083712,
go,triangle.png,space,1437,1.437,1.937,0,43,43,45,,,,,,,,,,,,,,,,,,,,,,,,,106.20180889999028,106.70249220001278,106.68602110003121,None,space,1,0.2989377999911085,106.20180889999028,106.20180889999028,,,,,,,11041,001,2024_Mar_15_1429,gonogo_T,2021.2.3,60.20436976083712,
go,triangle.png,space,1447,1.447,1.947,0,44,44,7,,,,,,,,,,,,,,,,,,,,,,,,,108.13792489998741,108.63881490001222,108.62282310001319,110.07433550001588,space,1,0.2746449999976903,108.13792489998741,108.13792489998741,,,,,,,11041,001,2024_Mar_15_1429,gonogo_T,2021.2.3,60.20436976083712,
nogo,square.png,None,1636,1.636,2.136,0,45,45,0,,,,,,,,,,,,,,,,,,,,,,,,,110.09159700002056,110.59164559998317,110.57504010002594,112.21252010000171,None,1,,110.09159700002056,110.09159700002056,,,,,,,11041,001,2024_Mar_15_1429,gonogo_T,2021.2.3,60.20436976083712,
go,triangle.png,space,1052,1.052,1.552,0,46,46,89,,,,,,,,,,,,,,,,,,,,,,,,,112.22779289999744,112.72813559998758,112.71140969998669,113.76345010002842,space,1,0.28085089998785406,112.22779289999744,112.22779289999744,,,,,,,11041,001,2024_Mar_15_1429,gonogo_T,2021.2.3,60.20436976083712,
go,triangle.png,space,1918,1.918,2.418,0,47,47,3,,,,,,,,,,,,,,,,,,,,,,,,,113.77976290002698,114.2813998000347,114.26418990001548,116.18384920002427,space,1,0.29701370000839233,113.77976290002698,113.77976290002698,,,,,,,11041,001,2024_Mar_15_1429,gonogo_T,2021.2.3,60.20436976083712,
go,triangle.png,space,1955,1.955,2.455,0,48,48,35,,,,,,,,,,,,,,,,,,,,,,,,,116.20020120003028,116.70092010003282,116.68496969999978,118.6538026999915,space,1,0.30877699999837205,116.20020120003028,116.20020120003028,,,,,,,11041,001,2024_Mar_15_1429,gonogo_T,2021.2.3,60.20436976083712,
go,triangle.png,space,1161,1.161,1.661,0,49,49,62,,,,,,,,,,,,,,,,,,,,,,,,,118.67081039998448,119.17132580000907,119.15454640000826,120.32337569998344,space,1,0.3905711999977939,118.67081039998448,118.67081039998448,,,,,,,11041,001,2024_Mar_15_1429,gonogo_T,2021.2.3,60.20436976083712,
go,triangle.png,space,1714,1.714,2.214,0,50,50,22,,,,,,,,,,,,,,,,,,,,,,,,,120.34013790002791,120.84180150000611,120.82386800000677,122.54346950002946,space,1,0.31319179997080937,120.34013790002791,120.34013790002791,,,,,,,11041,001,2024_Mar_15_1429,gonogo_T,2021.2.3,60.20436976083712,
go,triangle.png,space,1457,1.457,1.957,0,51,51,66,,,,,,,,,,,,,,,,,,,,,,,,,122.55975660000695,123.06040980003309,123.04385310004,124.51285270001972,space,1,0.3094181999913417,122.55975660000695,122.55975660000695,,,,,,,11041,001,2024_Mar_15_1429,gonogo_T,2021.2.3,60.20436976083712,
nogo,square.png,None,1233,1.233,1.733,0,52,52,44,,,,,,,,,,,,,,,,,,,,,,,,,124.5296978999977,125.0300326999859,125.0134248000104,126.25085030001355,None,1,,124.5296978999977,124.5296978999977,,,,,,,11041,001,2024_Mar_15_1429,gonogo_T,2021.2.3,60.20436976083712,
go,triangle.png,space,1074,1.074,1.574,0,53,53,41,,,,,,,,,,,,,,,,,,,,,,,,,126.2657246000017,126.76612510002451,126.74967769999057,127.83495470002526,space,1,0.4914814999792725,126.2657246000017,126.2657246000017,,,,,,,11041,001,2024_Mar_15_1429,gonogo_T,2021.2.3,60.20436976083712,
go,triangle.png,space,1466,1.466,1.966,0,54,54,94,,,,,,,,,,,,,,,,,,,,,,,,,127.85122820001561,128.35205270000733,128.33518270001514,129.8039998000022,space,1,0.3300108999828808,127.85122820001561,127.85122820001561,,,,,,,11041,001,2024_Mar_15_1429,gonogo_T,2021.2.3,60.20436976083712,
go,triangle.png,space,1991,1.991,2.491,0,55,55,82,,,,,,,,,,,,,,,,,,,,,,,,,129.82088720001047,130.32131010002922,130.30499470001087,132.30814929999178,space,1,0.34444470005109906,129.82088720001047,129.82088720001047,,,,,,,11041,001,2024_Mar_15_1429,gonogo_T,2021.2.3,60.20436976083712,
go,triangle.png,space,1357,1.357,1.857,0,56,56,29,,,,,,,,,,,,,,,,,,,,,,,,,132.32486190000782,132.82534270000178,132.8087691999972,134.17740230000345,space,1,0.36063389998162165,132.32486190000782,132.32486190000782,,,,,,,11041,001,2024_Mar_15_1429,gonogo_T,2021.2.3,60.20436976083712,
go,triangle.png,space,1448,1.448,1.948,0,57,57,43,,,,,,,,,,,,,,,,,,,,,,,,,134.19465270004002,134.6950111000333,134.6780665999977,136.13042510004016,space,1,0.29878910002298653,134.19465270004002,134.19465270004002,,,,,,,11041,001,2024_Mar_15_1429,gonogo_T,2021.2.3,60.20436976083712,
nogo,square.png,None,1379,1.379,1.879,0,58,58,84,,,,,,,,,,,,,,,,,,,,,,,,,136.14696929999627,136.6476163000334,136.6313608000055,138.01653369999258,None,1,,136.14696929999627,136.14696929999627,,,,,,,11041,001,2024_Mar_15_1429,gonogo_T,2021.2.3,60.20436976083712,
go,triangle.png,space,1973,1.973,2.473,0,59,59,37,,,,,,,,,,,,,,,,,,,,,,,,,138.03324060002342,138.53394759999355,138.51729809999233,140.5036359000369,space,1,0.3807453999761492,138.03324060002342,138.03324060002342,,,,,,,11041,001,2024_Mar_15_1429,gonogo_T,2021.2.3,60.20436976083712,
go,triangle.png,space,1529,1.529,2.029,0,60,60,51,,,,,,,,,,,,,,,,,,,,,,,,,140.52028510003584,141.02101500000572,141.0042562999879,142.53977929998655,space,1,0.33448780002072453,140.52028510003584,140.52028510003584,,,,,,,11041,001,2024_Mar_15_1429,gonogo_T,2021.2.3,60.20436976083712,
nogo,square.png,None,1154,1.154,1.654,0,61,61,40,,,,,,,,,,,,,,,,,,,,,,,,,142.5565234000096,143.0572357000201,143.0405075000017,144.20908599998802,None,1,,142.5565234000096,142.5565234000096,,,,,,,11041,001,2024_Mar_15_1429,gonogo_T,2021.2.3,60.20436976083712,
go,triangle.png,space,1532,1.532,2.032,0,62,62,2,,,,,,,,,,,,,,,,,,,,,,,,,144.22586870001396,144.72643229999812,144.7097361999913,146.24563670001226,space,1,0.4356885000015609,144.22586870001396,144.22586870001396,,,,,,,11041,001,2024_Mar_15_1429,gonogo_T,2021.2.3,60.20436976083712,
go,triangle.png,space,1262,1.262,1.762,0,63,63,61,,,,,,,,,,,,,,,,,,,,,,,,,146.26273720001336,146.76293020002777,146.7463286999846,148.0149592999951,space,1,0.398873400001321,146.26273720001336,146.26273720001336,,,,,,,11041,001,2024_Mar_15_1429,gonogo_T,2021.2.3,60.20436976083712,
go,triangle.png,space,1003,1.003,1.503,0,64,64,15,,,,,,,,,,,,,,,,,,,,,,,,,148.03152950003278,148.53373520000605,148.51553999999305,None,space,1,0.3512330999947153,148.03152950003278,148.03152950003278,,,,,,,11041,001,2024_Mar_15_1429,gonogo_T,2021.2.3,60.20436976083712,
go,triangle.png,space,1388,1.388,1.888,0,65,65,9,,,,,,,,,,,,,,,,,,,,,,,,,149.53438969998388,150.0345314000151,150.01871129998472,151.4196787000401,space,1,0.31931739998981357,149.53438969998388,149.53438969998388,,,,,,,11041,001,2024_Mar_15_1429,gonogo_T,2021.2.3,60.20436976083712,
go,triangle.png,space,1796,1.796,2.296,0,66,66,58,,,,,,,,,,,,,,,,,,,,,,,,,151.4365445000003,151.93738250003662,151.92070560000138,153.72344050003449,space,1,0.2974143999745138,151.4365445000003,151.4365445000003,,,,,,,11041,001,2024_Mar_15_1429,gonogo_T,2021.2.3,60.20436976083712,
go,triangle.png,space,1879,1.879,2.379,0,67,67,11,,,,,,,,,,,,,,,,,,,,,,,,,153.7400812000269,154.241256600013,154.22420440003043,156.11034040001687,space,1,0.33807669999077916,153.7400812000269,153.7400812000269,,,,,,,11041,001,2024_Mar_15_1429,gonogo_T,2021.2.3,60.20436976083712,
nogo,square.png,None,1913,1.913,2.413,0,68,68,36,,,,,,,,,,,,,,,,,,,,,,,,,156.12710440001683,156.62774190003984,156.6109217000194,158.5306820999831,None,1,,156.12710440001683,156.12710440001683,,,,,,,11041,001,2024_Mar_15_1429,gonogo_T,2021.2.3,60.20436976083712,
go,triangle.png,space,1370,1.37,1.87,0,69,69,13,,,,,,,,,,,,,,,,,,,,,,,,,158.54744560003746,159.04811319999862,159.03142950002803,None,space,1,0.3073840999859385,158.54744560003746,158.54744560003746,,,,,,,11041,001,2024_Mar_15_1429,gonogo_T,2021.2.3,60.20436976083712,
go,triangle.png,space,1002,1.002,1.502,0,70,70,34,,,,,,,,,,,,,,,,,,,,,,,,,160.4167773000081,160.91754890000448,160.90092809998896,161.90281940001296,space,1,0.34119329997338355,160.4167773000081,160.4167773000081,,,,,,,11041,001,2024_Mar_15_1429,gonogo_T,2021.2.3,60.20436976083712,
nogo,square.png,None,1776,1.776,2.276,0,71,71,8,,,,,,,,,,,,,,,,,,,,,,,,,161.91896989999805,162.4201541999937,162.4032558000181,164.18921680003405,None,1,,161.91896989999805,161.91896989999805,,,,,,,11041,001,2024_Mar_15_1429,gonogo_T,2021.2.3,60.20436976083712,
go,triangle.png,space,1979,1.979,2.479,0,72,72,93,,,,,,,,,,,,,,,,,,,,,,,,,164.207117700018,164.70658679999178,164.68992070003878,166.6762311999919,space,1,0.43107639998197556,164.207117700018,164.207117700018,,,,,,,11041,001,2024_Mar_15_1429,gonogo_T,2021.2.3,60.20436976083712,
go,triangle.png,space,1761,1.761,2.261,0,73,73,95,,,,,,,,,,,,,,,,,,,,,,,,,166.69296539999777,167.19666040001903,167.17705970001407,168.94674400001531,space,1,0.31329289998393506,166.69296539999777,166.69296539999777,,,,,,,11041,001,2024_Mar_15_1429,gonogo_T,2021.2.3,60.20436976083712,
nogo,square.png,None,1895,1.895,2.395,0,74,74,4,,,,,,,,,,,,,,,,,,,,,,,,,168.96350930002518,169.46403560001636,169.44850170001155,171.3506509999861,space,0,0.362677899945993,168.96350930002518,168.96350930002518,,,,,,,11041,001,2024_Mar_15_1429,gonogo_T,2021.2.3,60.20436976083712,
go,triangle.png,space,1320,1.32,1.82,0,75,75,54,,,,,,,,,,,,,,,,,,,,,,,,,171.3667394000222,171.867587500019,171.85084490000736,None,space,1,0.35158610000507906,171.3667394000222,171.3667394000222,,,,,,,11041,001,2024_Mar_15_1429,gonogo_T,2021.2.3,60.20436976083712,
go,triangle.png,space,1866,1.866,2.366,0,76,76,42,,,,,,,,,,,,,,,,,,,,,,,,,173.18659400002798,173.68684109998867,173.66992539999774,175.53955450002104,space,1,0.3718720999895595,173.18659400002798,173.18659400002798,,,,,,,11041,001,2024_Mar_15_1429,gonogo_T,2021.2.3,60.20436976083712,
nogo,square.png,None,1139,1.139,1.639,0,77,77,48,,,,,,,,,,,,,,,,,,,,,,,,,175.55667200003518,176.05730909999693,176.04020650003804,177.19238230003975,None,1,,175.55667200003518,175.55667200003518,,,,,,,11041,001,2024_Mar_15_1429,gonogo_T,2021.2.3,60.20436976083712,
go,triangle.png,space,1329,1.329,1.829,0,78,78,27,,,,,,,,,,,,,,,,,,,,,,,,,177.20880730001954,177.70964070002083,177.69442580000032,179.02827280003112,space,1,0.373926299973391,177.20880730001954,177.20880730001954,,,,,,,11041,001,2024_Mar_15_1429,gonogo_T,2021.2.3,60.20436976083712,
nogo,square.png,None,1600,1.6,2.1,0,79,79,92,,,,,,,,,,,,,,,,,,,,,,,,,179.04498599999351,179.54560330003733,179.52885260002222,181.13151999999536,None,1,,179.04498599999351,179.04498599999351,,,,,,,11041,001,2024_Mar_15_1429,gonogo_T,2021.2.3,60.20436976083712,
go,triangle.png,space,1095,1.095,1.595,0,80,80,63,,,,,,,,,,,,,,,,,,,,,,,,,181.1479304000386,181.6491881000111,181.63249440002255,182.73557000001892,space,1,0.4186749000218697,181.1479304000386,181.1479304000386,,,,,,,11041,001,2024_Mar_15_1429,gonogo_T,2021.2.3,60.20436976083712,
go,triangle.png,space,1450,1.45,1.95,0,81,81,78,,,,,,,,,,,,,,,,,,,,,,,,,182.7512921000016,183.251476800011,183.2347848000354,184.686825199984,space,1,0.3997760000056587,182.7512921000016,182.7512921000016,,,,,,,11041,001,2024_Mar_15_1429,gonogo_T,2021.2.3,60.20436976083712,
go,triangle.png,space,1233,1.233,1.733,0,82,82,46,,,,,,,,,,,,,,,,,,,,,,,,,184.7033783000079,185.2040553999832,185.18744790001074,186.42277990002185,space,1,0.35182839998742566,184.7033783000079,184.7033783000079,,,,,,,11041,001,2024_Mar_15_1429,gonogo_T,2021.2.3,60.20436976083712,
nogo,square.png,None,1414,1.414,1.914,0,83,83,68,,,,,,,,,,,,,,,,,,,,,,,,,186.43984170001931,186.94074930000352,186.92548850004096,188.34339900000487,None,1,,186.43984170001931,186.43984170001931,,,,,,,11041,001,2024_Mar_15_1429,gonogo_T,2021.2.3,60.20436976083712,
go,triangle.png,space,1962,1.962,2.462,0,84,84,74,,,,,,,,,,,,,,,,,,,,,,,,,188.35920930001885,188.86078240000643,188.842996100022,190.8133996000397,space,1,0.37578430003486574,188.35920930001885,188.35920930001885,,,,,,,11041,001,2024_Mar_15_1429,gonogo_T,2021.2.3,60.20436976083712,
go,triangle.png,space,1590,1.59,2.09,0,85,85,19,,,,,,,,,,,,,,,,,,,,,,,,,190.82933069998398,191.3306872000103,191.3135304999887,192.91601109999465,space,1,0.466978200012818,190.82933069998398,190.82933069998398,,,,,,,11041,001,2024_Mar_15_1429,gonogo_T,2021.2.3,60.20436976083712,
go,triangle.png,space,1217,1.217,1.717,0,86,86,1,,,,,,,,,,,,,,,,,,,,,,,,,192.93282779998844,193.43327780003892,193.41638499998953,194.6350228000083,space,1,0.34641659999033436,192.93282779998844,192.93282779998844,,,,,,,11041,001,2024_Mar_15_1429,gonogo_T,2021.2.3,60.20436976083712,
go,triangle.png,space,1630,1.63,2.13,0,87,87,79,,,,,,,,,,,,,,,,,,,,,,,,,194.6518081999966,195.1524808999966,195.13596899999538,196.77172429999337,space,1,0.3554068999947049,194.6518081999966,194.6518081999966,,,,,,,11041,001,2024_Mar_15_1429,gonogo_T,2021.2.3,60.20436976083712,
nogo,square.png,None,1467,1.467,1.967,0,88,88,72,,,,,,,,,,,,,,,,,,,,,,,,,196.788729300024,197.28904840000905,197.27244490000885,198.74116740003228,None,1,,196.788729300024,196.788729300024,,,,,,,11041,001,2024_Mar_15_1429,gonogo_T,2021.2.3,60.20436976083712,
nogo,square.png,None,1165,1.165,1.665,0,89,89,76,,,,,,,,,,,,,,,,,,,,,,,,,198.75790920003783,199.25888680003118,199.24275259999558,200.41116900002817,None,1,,198.75790920003783,198.75790920003783,,,,,,,11041,001,2024_Mar_15_1429,gonogo_T,2021.2.3,60.20436976083712,
go,triangle.png,space,1493,1.493,1.993,0,90,90,69,,,,,,,,,,,,,,,,,,,,,,,,,200.42739239998627,200.92784270003904,200.91151940001873,202.41385660000378,space,1,0.45170799997868016,200.42739239998627,200.42739239998627,,,,,,,11041,001,2024_Mar_15_1429,gonogo_T,2021.2.3,60.20436976083712,
go,triangle.png,space,1940,1.94,2.44,0,91,91,49,,,,,,,,,,,,,,,,,,,,,,,,,202.4302109000273,202.93167830002494,202.91432680003345,204.86714859999483,space,1,0.44917169999098405,202.4302109000273,202.4302109000273,,,,,,,11041,001,2024_Mar_15_1429,gonogo_T,2021.2.3,60.20436976083712,
nogo,square.png,None,1131,1.131,1.631,0,92,92,52,,,,,,,,,,,,,,,,,,,,,,,,,204.88389789999928,205.3846738000284,205.36806310003158,206.5031893000123,None,1,,204.88389789999928,204.88389789999928,,,,,,,11041,001,2024_Mar_15_1429,gonogo_T,2021.2.3,60.20436976083712,
go,triangle.png,space,1739,1.739,2.239,0,93,93,17,,,,,,,,,,,,,,,,,,,,,,,,,206.51981710002292,207.02046770002926,207.0038448999985,208.75811940000858,space,1,0.4156976999947801,206.51981710002292,206.51981710002292,,,,,,,11041,001,2024_Mar_15_1429,gonogo_T,2021.2.3,60.20436976083712,
go,triangle.png,space,1960,1.96,2.46,0,94,94,31,,,,,,,,,,,,,,,,,,,,,,,,,208.77361129998462,209.2747500000405,209.25706800003536,211.22788990003755,space,1,0.2898604999645613,208.77361129998462,208.77361129998462,,,,,,,11041,001,2024_Mar_15_1429,gonogo_T,2021.2.3,60.20436976083712,
go,triangle.png,space,1641,1.641,2.141,0,95,95,86,,,,,,,,,,,,,,,,,,,,,,,,,211.24351470003603,211.7445424000034,211.72815490001813,213.38011979998555,space,1,0.30812180001521483,211.24351470003603,211.24351470003603,,,,,,,11041,001,2024_Mar_15_1429,gonogo_T,2021.2.3,60.20436976083712,
,,,,,,,,,,,,,,,,,,,,,,,,,,,,,,,,,,,,,,,,,,,213.39678459998686,None,space,2.4829409000230953,213.39678459998686,None,11041,001,2024_Mar_15_1429,gonogo_T,2021.2.3,60.20436976083712,
