TrialType,Path,Correct,ms,s,ks,trials_4.thisRepN,trials_4.thisTrialN,trials_4.thisN,trials_4.thisIndex,welcome.started,welcome.stopped,space.started,space.stopped,key_resp.keys,key_resp.rt,key_resp.started,key_resp.stopped,Fixwarn.started,Fixwarn.stopped,table.started,table.stopped,key_resp__0.keys,key_resp__0.rt,key_resp__0.started,key_resp__0.stopped,type.started,type.stopped,space_3.started,space_3.stopped,key_resp_6.keys,key_resp_6.rt,key_resp_6.started,key_resp_6.stopped,stim_2.started,stim_2.stopped,text_2.started,text_2.stopped,key_resp_9.keys,key_resp_9.corr,key_resp_9.started,key_resp_9.stopped,key_resp_9.rt,END.started,END.stopped,key_resp_2.keys,key_resp_2.rt,key_resp_2.started,key_resp_2.stopped,participant,session,date,expName,psychopyVersion,frameRate,
,,,,,,,,,,8.106521599926054,None,8.106521599926054,None,space,7.730328599922359,8.106521599926054,None,,,,,,,,,,,,,,,,,,,,,,,,,,,,,,,,11045,001,2024_Apr_13_1123,gonogo_T,2021.2.3,59.94373678498334,
,,,,,,,,,,,,,,,,,,15.851992399897426,None,15.851992399897426,None,space,3.289336600108072,15.851992399897426,None,,,,,,,,,,,,,,,,,,,,,,,,11045,001,2024_Apr_13_1123,gonogo_T,2021.2.3,59.94373678498334,
,,,,,,,,,,,,,,,,,,,,,,,,,,19.17325079999864,None,19.17325079999864,None,space,4.231852099997923,19.17325079999864,None,,,,,,,,,,,,,,,,11045,001,2024_Apr_13_1123,gonogo_T,2021.2.3,59.94373678498334,
go,triangle.png,space,1493,1.493,1.993,0,0,0,69,,,,,,,,,,,,,,,,,,,,,,,,,23.496218499960378,23.99704599985853,23.980693799909204,25.482367399847135,None,0,23.496218499960378,None,,,,,,,,11045,001,2024_Apr_13_1123,gonogo_T,2021.2.3,59.94373678498334,
go,triangle.png,space,1180,1.18,1.68,0,1,1,81,,,,,,,,,,,,,,,,,,,,,,,,,25.499530099797994,26.00018069986254,25.98398819984868,27.168353099841624,space,1,25.499530099797994,25.499530099797994,0.6981816000770777,,,,,,,11045,001,2024_Apr_13_1123,gonogo_T,2021.2.3,59.94373678498334,
go,triangle.png,space,1582,1.582,2.082,0,2,2,67,,,,,,,,,,,,,,,,,,,,,,,,,27.18527329992503,27.685874299844727,27.66924769990146,29.254966699983925,space,1,27.18527329992503,27.18527329992503,0.5324500999413431,,,,,,,11045,001,2024_Apr_13_1123,gonogo_T,2021.2.3,59.94373678498334,
go,triangle.png,space,1796,1.796,2.296,0,3,3,58,,,,,,,,,,,,,,,,,,,,,,,,,29.271797699853778,29.77271889988333,29.755906999809667,31.55821659998037,space,1,29.271797699853778,29.271797699853778,0.3977759999688715,,,,,,,11045,001,2024_Apr_13_1123,gonogo_T,2021.2.3,59.94373678498334,
nogo,square.png,None,1698,1.698,2.198,0,4,4,32,,,,,,,,,,,,,,,,,,,,,,,,,31.5749327999074,32.07627179985866,32.059262899914756,33.76172529999167,None,1,31.5749327999074,31.5749327999074,,,,,,,,11045,001,2024_Apr_13_1123,gonogo_T,2021.2.3,59.94373678498334,
go,triangle.png,space,1105,1.105,1.605,0,5,5,57,,,,,,,,,,,,,,,,,,,,,,,,,33.77832829998806,34.278998899972066,34.26268169982359,35.38112509995699,space,1,33.77832829998806,33.77832829998806,0.3311550000216812,,,,,,,11045,001,2024_Apr_13_1123,gonogo_T,2021.2.3,59.94373678498334,
nogo,square.png,None,1102,1.102,1.602,0,6,6,80,,,,,,,,,,,,,,,,,,,,,,,,,35.39765449985862,35.8983481999021,35.88167359982617,36.983369999798015,None,1,35.39765449985862,35.39765449985862,,,,,,,,11045,001,2024_Apr_13_1123,gonogo_T,2021.2.3,59.94373678498334,
go,triangle.png,space,1002,1.002,1.502,0,7,7,34,,,,,,,,,,,,,,,,,,,,,,,,,37.00011989986524,37.500740399817005,37.48428639979102,38.48550339997746,space,1,37.00011989986524,37.00011989986524,0.4144532000645995,,,,,,,11045,001,2024_Apr_13_1123,gonogo_T,2021.2.3,59.94373678498334,
go,triangle.png,space,1991,1.991,2.491,0,8,8,82,,,,,,,,,,,,,,,,,,,,,,,,,38.502469799946994,39.003056899877265,38.98678719997406,40.989706499967724,space,1,38.502469799946994,38.502469799946994,0.4392325000371784,,,,,,,11045,001,2024_Apr_13_1123,gonogo_T,2021.2.3,59.94373678498334,
go,triangle.png,space,1791,1.791,2.291,0,9,9,55,,,,,,,,,,,,,,,,,,,,,,,,,41.0061097999569,41.507117099827155,41.49075799994171,43.29297159984708,space,1,41.0061097999569,41.0061097999569,0.3195803000126034,,,,,,,11045,001,2024_Apr_13_1123,gonogo_T,2021.2.3,59.94373678498334,
nogo,square.png,None,1776,1.776,2.276,0,10,10,8,,,,,,,,,,,,,,,,,,,,,,,,,43.309430399909616,43.81004059989937,43.793917399831116,45.579609299777076,None,1,43.309430399909616,43.309430399909616,,,,,,,,11045,001,2024_Apr_13_1123,gonogo_T,2021.2.3,59.94373678498334,
go,triangle.png,space,1233,1.233,1.733,0,11,11,46,,,,,,,,,,,,,,,,,,,,,,,,,45.59630959993228,46.09694839990698,46.08040409977548,47.31534249987453,space,1,45.59630959993228,45.59630959993228,0.36158060003072023,,,,,,,11045,001,2024_Apr_13_1123,gonogo_T,2021.2.3,59.94373678498334,
go,triangle.png,space,1739,1.739,2.239,0,12,12,17,,,,,,,,,,,,,,,,,,,,,,,,,47.33239229978062,47.833040999947116,47.81646159989759,49.56909679993987,space,1,47.33239229978062,47.33239229978062,0.3696205001324415,,,,,,,11045,001,2024_Apr_13_1123,gonogo_T,2021.2.3,59.94373678498334,
nogo,square.png,None,1600,1.6,2.1,0,13,13,92,,,,,,,,,,,,,,,,,,,,,,,,,49.58563769981265,50.0864002997987,50.07004449982196,51.672601899830624,None,1,49.58563769981265,49.58563769981265,,,,,,,,11045,001,2024_Apr_13_1123,gonogo_T,2021.2.3,59.94373678498334,
go,triangle.png,space,1575,1.575,2.075,0,14,14,33,,,,,,,,,,,,,,,,,,,,,,,,,51.688711299793795,52.18978529982269,52.172951499931514,53.7588387997821,space,1,51.688711299793795,51.688711299793795,0.4139195999596268,,,,,,,11045,001,2024_Apr_13_1123,gonogo_T,2021.2.3,59.94373678498334,
nogo,square.png,None,1414,1.414,1.914,0,15,15,68,,,,,,,,,,,,,,,,,,,,,,,,,53.775152599904686,54.27608999982476,54.25972039997578,55.67910789977759,None,1,53.775152599904686,53.775152599904686,,,,,,,,11045,001,2024_Apr_13_1123,gonogo_T,2021.2.3,59.94373678498334,
go,triangle.png,space,1478,1.478,1.978,0,16,16,75,,,,,,,,,,,,,,,,,,,,,,,,,55.69487789995037,56.19570859987289,56.17886669980362,57.66481849993579,space,1,55.69487789995037,55.69487789995037,0.4954874000977725,,,,,,,11045,001,2024_Apr_13_1123,gonogo_T,2021.2.3,59.94373678498334,
go,triangle.png,space,1960,1.96,2.46,0,17,17,31,,,,,,,,,,,,,,,,,,,,,,,,,57.68114719982259,58.18210309999995,58.16554309986532,60.13491059979424,space,1,57.68114719982259,57.68114719982259,0.38127280003391206,,,,,,,11045,001,2024_Apr_13_1123,gonogo_T,2021.2.3,59.94373678498334,
go,triangle.png,space,1095,1.095,1.595,0,18,18,63,,,,,,,,,,,,,,,,,,,,,,,,,60.15171159990132,60.65244049998,60.63584539992735,61.73737160000019,space,1,60.15171159990132,60.15171159990132,0.3108926999848336,,,,,,,11045,001,2024_Apr_13_1123,gonogo_T,2021.2.3,59.94373678498334,
go,triangle.png,space,1630,1.63,2.13,0,19,19,23,,,,,,,,,,,,,,,,,,,,,,,,,61.75408389978111,62.254859699867666,62.238172699930146,63.87432099995203,space,1,61.75408389978111,61.75408389978111,0.4285552999936044,,,,,,,11045,001,2024_Apr_13_1123,gonogo_T,2021.2.3,59.94373678498334,
go,triangle.png,space,1246,1.246,1.746,0,20,20,87,,,,,,,,,,,,,,,,,,,,,,,,,63.890960099874064,64.39128819992766,64.3751230998896,65.62659869994968,space,1,63.890960099874064,63.890960099874064,0.3077348000369966,,,,,,,11045,001,2024_Apr_13_1123,gonogo_T,2021.2.3,59.94373678498334,
go,triangle.png,space,1087,1.087,1.587,0,21,21,50,,,,,,,,,,,,,,,,,,,,,,,,,65.6435940999072,66.1444152998738,66.12789749982767,67.22891269996762,space,1,65.6435940999072,65.6435940999072,0.3868060999084264,,,,,,,11045,001,2024_Apr_13_1123,gonogo_T,2021.2.3,59.94373678498334,
go,triangle.png,space,1940,1.94,2.44,0,22,22,49,,,,,,,,,,,,,,,,,,,,,,,,,67.2457011998631,67.74629859998822,67.72969639999792,69.68289579986595,space,1,67.2457011998631,67.2457011998631,0.4016370000317693,,,,,,,11045,001,2024_Apr_13_1123,gonogo_T,2021.2.3,59.94373678498334,
go,triangle.png,space,1370,1.37,1.87,0,23,23,13,,,,,,,,,,,,,,,,,,,,,,,,,69.69971379986964,70.20062109990977,70.18417789996602,None,space,1,69.69971379986964,69.69971379986964,0.41116389981471,,,,,,,11045,001,2024_Apr_13_1123,gonogo_T,2021.2.3,59.94373678498334,
nogo,square.png,None,1194,1.194,1.694,0,24,24,24,,,,,,,,,,,,,,,,,,,,,,,,,71.56872109998949,72.0694609999191,72.05290919984691,73.25507609988563,None,1,71.56872109998949,71.56872109998949,,,,,,,,11045,001,2024_Apr_13_1123,gonogo_T,2021.2.3,59.94373678498334,
go,triangle.png,space,1532,1.532,2.032,0,25,25,2,,,,,,,,,,,,,,,,,,,,,,,,,73.27206759992987,73.77205679984763,73.75539710000157,75.29109099996276,space,1,73.27206759992987,73.27206759992987,0.32683950010687113,,,,,,,11045,001,2024_Apr_13_1123,gonogo_T,2021.2.3,59.94373678498334,
go,triangle.png,space,1566,1.566,2.066,0,26,26,25,,,,,,,,,,,,,,,,,,,,,,,,,75.30844649998471,75.8089437999297,75.7917821998708,77.3616460999474,space,1,75.30844649998471,75.30844649998471,0.3151914000045508,,,,,,,11045,001,2024_Apr_13_1123,gonogo_T,2021.2.3,59.94373678498334,
go,triangle.png,space,1711,1.711,2.211,0,27,27,65,,,,,,,,,,,,,,,,,,,,,,,,,77.37871459987946,77.87893579993397,77.86219299980439,79.58104009996168,space,1,77.37871459987946,77.37871459987946,0.31633260007947683,,,,,,,11045,001,2024_Apr_13_1123,gonogo_T,2021.2.3,59.94373678498334,
nogo,square.png,None,1636,1.636,2.136,0,28,28,0,,,,,,,,,,,,,,,,,,,,,,,,,79.59773599985056,80.09888969990425,80.0817610998638,81.71815919992514,None,1,79.59773599985056,79.59773599985056,,,,,,,,11045,001,2024_Apr_13_1123,gonogo_T,2021.2.3,59.94373678498334,
go,triangle.png,space,1590,1.59,2.09,0,29,29,19,,,,,,,,,,,,,,,,,,,,,,,,,81.73481799988076,82.2351606998127,82.21842659986578,83.82094979984686,space,1,81.73481799988076,81.73481799988076,0.39213680010288954,,,,,,,11045,001,2024_Apr_13_1123,gonogo_T,2021.2.3,59.94373678498334,
nogo,square.png,None,1913,1.913,2.413,0,30,30,36,,,,,,,,,,,,,,,,,,,,,,,,,83.8376468999777,84.338446599897,84.32178379991092,86.24106079991907,None,1,83.8376468999777,83.8376468999777,,,,,,,,11045,001,2024_Apr_13_1123,gonogo_T,2021.2.3,59.94373678498334,
go,triangle.png,space,1589,1.589,2.089,0,31,31,39,,,,,,,,,,,,,,,,,,,,,,,,,86.25766659993678,86.75895739998668,86.74188899993896,88.34444469981827,space,1,86.25766659993678,86.25766659993678,0.3012785001192242,,,,,,,11045,001,2024_Apr_13_1123,gonogo_T,2021.2.3,59.94373678498334,
go,triangle.png,space,1918,1.918,2.418,0,32,32,3,,,,,,,,,,,,,,,,,,,,,,,,,88.36093999980949,88.86191089986823,88.84502369980328,90.76452829991467,space,1,88.36093999980949,88.36093999980949,0.3023707000538707,,,,,,,11045,001,2024_Apr_13_1123,gonogo_T,2021.2.3,59.94373678498334,
go,triangle.png,space,1825,1.825,2.325,0,33,33,10,,,,,,,,,,,,,,,,,,,,,,,,,90.78110439982265,91.28206349979155,91.26534239994362,93.10133559978567,space,1,90.78110439982265,90.78110439982265,0.3383863000199199,,,,,,,11045,001,2024_Apr_13_1123,gonogo_T,2021.2.3,59.94373678498334,
nogo,square.png,None,1165,1.165,1.665,0,34,34,76,,,,,,,,,,,,,,,,,,,,,,,,,93.11824559979141,93.61875939997844,93.6020951999817,94.77101579983719,None,1,93.11824559979141,93.11824559979141,,,,,,,,11045,001,2024_Apr_13_1123,gonogo_T,2021.2.3,59.94373678498334,
go,triangle.png,space,1761,1.761,2.261,0,35,35,95,,,,,,,,,,,,,,,,,,,,,,,,,94.78733629989438,95.28795419982634,95.27124149980955,97.0405431999825,space,1,94.78733629989438,94.78733629989438,0.36403930000960827,,,,,,,11045,001,2024_Apr_13_1123,gonogo_T,2021.2.3,59.94373678498334,
nogo,square.png,None,1467,1.467,1.967,0,36,36,72,,,,,,,,,,,,,,,,,,,,,,,,,97.0573908998631,97.55810429994017,97.54140889993869,99.01026109978557,None,1,97.0573908998631,97.0573908998631,,,,,,,,11045,001,2024_Apr_13_1123,gonogo_T,2021.2.3,59.94373678498334,
nogo,square.png,None,1131,1.131,1.631,0,37,37,52,,,,,,,,,,,,,,,,,,,,,,,,,99.02675759978592,99.5277234998066,99.51172919990495,100.64694239990786,None,1,99.02675759978592,99.02675759978592,,,,,,,,11045,001,2024_Apr_13_1123,gonogo_T,2021.2.3,59.94373678498334,
go,triangle.png,space,1630,1.63,2.13,0,38,38,79,,,,,,,,,,,,,,,,,,,,,,,,,100.66332639986649,101.16383569990285,101.14683119999245,102.78479919978417,space,1,100.66332639986649,100.66332639986649,0.36047609988600016,,,,,,,11045,001,2024_Apr_13_1123,gonogo_T,2021.2.3,59.94373678498334,
go,triangle.png,space,1822,1.822,2.322,0,39,39,26,,,,,,,,,,,,,,,,,,,,,,,,,102.79949669982307,103.30085679981858,103.28372139995918,105.11970899999142,space,1,102.79949669982307,102.79949669982307,0.4084895998239517,,,,,,,11045,001,2024_Apr_13_1123,gonogo_T,2021.2.3,59.94373678498334,
go,triangle.png,space,1357,1.357,1.857,0,40,40,29,,,,,,,,,,,,,,,,,,,,,,,,,105.13607469992712,105.637023499934,105.62025399995036,106.98930549994111,space,1,105.13607469992712,105.13607469992712,0.5124440998770297,,,,,,,11045,001,2024_Apr_13_1123,gonogo_T,2021.2.3,59.94373678498334,
nogo,square.png,None,1413,1.413,1.913,0,41,41,16,,,,,,,,,,,,,,,,,,,,,,,,,107.00576029997319,107.50669719977304,107.49044399987906,108.90894689993002,None,1,107.00576029997319,107.00576029997319,,,,,,,,11045,001,2024_Apr_13_1123,gonogo_T,2021.2.3,59.94373678498334,
go,triangle.png,space,1457,1.457,1.957,0,42,42,66,,,,,,,,,,,,,,,,,,,,,,,,,108.92568459990434,109.4260900998488,109.40927979978733,110.87823489983566,space,1,108.92568459990434,108.92568459990434,0.3381602999288589,,,,,,,11045,001,2024_Apr_13_1123,gonogo_T,2021.2.3,59.94373678498334,
go,triangle.png,space,1448,1.448,1.948,0,43,43,43,,,,,,,,,,,,,,,,,,,,,,,,,110.89587799995206,111.39560229983181,111.37893709982745,112.83174519985914,space,1,110.89587799995206,110.89587799995206,0.44906549993902445,,,,,,,11045,001,2024_Apr_13_1123,gonogo_T,2021.2.3,59.94373678498334,
go,triangle.png,space,1714,1.714,2.214,0,44,44,22,,,,,,,,,,,,,,,,,,,,,,,,,112.84847309999168,113.34851509984583,113.33168649999425,115.05131209990941,space,1,112.84847309999168,112.84847309999168,0.36723740003071725,,,,,,,11045,001,2024_Apr_13_1123,gonogo_T,2021.2.3,59.94373678498334,
go,triangle.png,space,1388,1.388,1.888,0,45,45,9,,,,,,,,,,,,,,,,,,,,,,,,,115.06781999999657,115.56867079995573,115.55190799990669,116.95467309979722,space,1,115.06781999999657,115.06781999999657,0.5005566999316216,,,,,,,11045,001,2024_Apr_13_1123,gonogo_T,2021.2.3,59.94373678498334,
go,triangle.png,space,1217,1.217,1.717,0,46,46,1,,,,,,,,,,,,,,,,,,,,,,,,,116.971206799848,117.47153389989398,117.45486719999462,118.67382269981317,space,1,116.971206799848,116.971206799848,0.3329888000153005,,,,,,,11045,001,2024_Apr_13_1123,gonogo_T,2021.2.3,59.94373678498334,
nogo,square.png,None,1139,1.139,1.639,0,47,47,48,,,,,,,,,,,,,,,,,,,,,,,,,118.68985299998894,119.19135119998828,119.17487619980238,120.326785299927,None,1,118.68985299998894,118.68985299998894,,,,,,,,11045,001,2024_Apr_13_1123,gonogo_T,2021.2.3,59.94373678498334,
go,triangle.png,space,1386,1.386,1.886,0,48,48,83,,,,,,,,,,,,,,,,,,,,,,,,,120.34271649993025,120.84355079988018,120.82707289978862,122.21219589980319,space,1,120.34271649993025,120.34271649993025,0.385339800035581,,,,,,,11045,001,2024_Apr_13_1123,gonogo_T,2021.2.3,59.94373678498334,
go,triangle.png,space,1767,1.767,2.267,0,49,49,77,,,,,,,,,,,,,,,,,,,,,,,,,122.22898719995283,122.72947799996473,122.71268339990638,124.48285169992596,space,1,122.22898719995283,122.22898719995283,0.38714360003359616,,,,,,,11045,001,2024_Apr_13_1123,gonogo_T,2021.2.3,59.94373678498334,
go,triangle.png,space,1329,1.329,1.829,0,50,50,90,,,,,,,,,,,,,,,,,,,,,,,,,124.49915359984152,124.99950969987549,124.98311619996093,126.31826559989713,space,1,124.49915359984152,124.49915359984152,0.35748000000603497,,,,,,,11045,001,2024_Apr_13_1123,gonogo_T,2021.2.3,59.94373678498334,
go,triangle.png,space,1280,1.28,1.78,0,51,51,18,,,,,,,,,,,,,,,,,,,,,,,,,126.33502869983204,126.83589649992064,126.81884719990194,128.10459929984063,space,1,126.33502869983204,126.33502869983204,0.34594930009916425,,,,,,,11045,001,2024_Apr_13_1123,gonogo_T,2021.2.3,59.94373678498334,
go,triangle.png,space,1955,1.955,2.455,0,52,52,35,,,,,,,,,,,,,,,,,,,,,,,,,128.12097689998336,128.62151949992403,128.60513119981624,130.57470869994722,space,1,128.12097689998336,128.12097689998336,0.2635397999547422,,,,,,,11045,001,2024_Apr_13_1123,gonogo_T,2021.2.3,59.94373678498334,
go,triangle.png,space,1879,1.879,2.379,0,53,53,11,,,,,,,,,,,,,,,,,,,,,,,,,130.5911616999656,131.09212249983102,131.0753958998248,132.96128999977373,space,1,130.5911616999656,130.5911616999656,0.38537269993685186,,,,,,,11045,001,2024_Apr_13_1123,gonogo_T,2021.2.3,59.94373678498334,
go,triangle.png,space,1003,1.003,1.503,0,54,54,15,,,,,,,,,,,,,,,,,,,,,,,,,132.97818019986153,133.4797540998552,133.4626799998805,None,space,1,132.97818019986153,132.97818019986153,0.43823190010152757,,,,,,,11045,001,2024_Apr_13_1123,gonogo_T,2021.2.3,59.94373678498334,
go,triangle.png,space,1651,1.651,2.151,0,55,55,30,,,,,,,,,,,,,,,,,,,,,,,,,134.48091389983892,134.98127709981054,134.9648359999992,136.61700609978288,space,1,134.48091389983892,134.48091389983892,0.6078085999470204,,,,,,,11045,001,2024_Apr_13_1123,gonogo_T,2021.2.3,59.94373678498334,
go,triangle.png,space,1806,1.806,2.306,0,56,56,85,,,,,,,,,,,,,,,,,,,,,,,,,136.6338731998112,137.13488599983975,137.11786229978316,138.93724989984185,space,1,136.6338731998112,136.6338731998112,0.3428574001882225,,,,,,,11045,001,2024_Apr_13_1123,gonogo_T,2021.2.3,59.94373678498334,
go,triangle.png,space,1021,1.021,1.521,0,57,57,91,,,,,,,,,,,,,,,,,,,,,,,,,138.9538775999099,139.454611599911,139.43798679998145,140.47321249987,space,1,138.9538775999099,138.9538775999099,0.2867542998865247,,,,,,,11045,001,2024_Apr_13_1123,gonogo_T,2021.2.3,59.94373678498334,
go,triangle.png,space,1674,1.674,2.174,0,58,58,47,,,,,,,,,,,,,,,,,,,,,,,,,140.48942889994942,140.99048579996452,140.97369069978595,142.65980889997445,space,1,140.48942889994942,140.48942889994942,0.35127860005013645,,,,,,,11045,001,2024_Apr_13_1123,gonogo_T,2021.2.3,59.94373678498334,
go,triangle.png,space,1344,1.344,1.844,0,59,59,53,,,,,,,,,,,,,,,,,,,,,,,,,142.67616839986295,143.17732079979032,143.16091509978287,144.51216389983892,space,1,142.67616839986295,142.67616839986295,0.32455219980329275,,,,,,,11045,001,2024_Apr_13_1123,gonogo_T,2021.2.3,59.94373678498334,
go,triangle.png,space,1869,1.869,2.369,0,60,60,59,,,,,,,,,,,,,,,,,,,,,,,,,144.52879429981112,145.02983009978198,145.01302989991382,146.8832481999416,space,1,144.52879429981112,144.52879429981112,0.4239114001393318,,,,,,,11045,001,2024_Apr_13_1123,gonogo_T,2021.2.3,59.94373678498334,
go,triangle.png,space,1161,1.161,1.661,0,61,61,62,,,,,,,,,,,,,,,,,,,,,,,,,146.8996707999613,147.39998729992658,147.38370469980873,148.55176740000024,space,1,146.8996707999613,146.8996707999613,0.4531223999802023,,,,,,,11045,001,2024_Apr_13_1123,gonogo_T,2021.2.3,59.94373678498334,
nogo,square.png,None,1337,1.337,1.837,0,62,62,64,,,,,,,,,,,,,,,,,,,,,,,,,148.56882239994593,149.0692047998309,149.05263139982708,150.4050010999199,None,1,148.56882239994593,148.56882239994593,,,,,,,,11045,001,2024_Apr_13_1123,gonogo_T,2021.2.3,59.94373678498334,
nogo,square.png,None,1895,1.895,2.395,0,63,63,4,,,,,,,,,,,,,,,,,,,,,,,,,150.42262299987487,150.92234209994785,150.90530899981968,152.80823909980245,None,1,150.42262299987487,150.42262299987487,,,,,,,,11045,001,2024_Apr_13_1123,gonogo_T,2021.2.3,59.94373678498334,
nogo,square.png,None,1611,1.611,2.111,0,64,64,28,,,,,,,,,,,,,,,,,,,,,,,,,152.82497560000047,153.32568219979294,153.3097348997835,154.9288186999038,None,1,152.82497560000047,152.82497560000047,,,,,,,,11045,001,2024_Apr_13_1123,gonogo_T,2021.2.3,59.94373678498334,
go,triangle.png,space,1529,1.529,2.029,0,65,65,51,,,,,,,,,,,,,,,,,,,,,,,,,154.94471959979273,155.4454337998759,155.4291577998083,156.96489989990368,space,1,154.94471959979273,154.94471959979273,0.41722719999961555,,,,,,,11045,001,2024_Apr_13_1123,gonogo_T,2021.2.3,59.94373678498334,
go,triangle.png,space,1262,1.262,1.762,0,66,66,61,,,,,,,,,,,,,,,,,,,,,,,,,156.9811361997854,157.48195919999853,157.465154199861,158.73383639985695,space,1,156.9811361997854,156.9811361997854,0.7009016999509186,,,,,,,11045,001,2024_Apr_13_1123,gonogo_T,2021.2.3,59.94373678498334,
go,triangle.png,space,1052,1.052,1.552,0,67,67,89,,,,,,,,,,,,,,,,,,,,,,,,,158.7504516998306,159.25124879996292,159.23453349992633,160.2865416998975,space,1,158.7504516998306,158.7504516998306,0.43473679991438985,,,,,,,11045,001,2024_Apr_13_1123,gonogo_T,2021.2.3,59.94373678498334,
nogo,square.png,None,1783,1.783,2.283,0,68,68,60,,,,,,,,,,,,,,,,,,,,,,,,,160.30303879990242,160.80399419995956,160.7872437997721,162.5732903999742,None,1,160.30303879990242,160.30303879990242,,,,,,,,11045,001,2024_Apr_13_1123,gonogo_T,2021.2.3,59.94373678498334,
go,triangle.png,space,1036,1.036,1.536,0,69,69,70,,,,,,,,,,,,,,,,,,,,,,,,,162.5898185998667,163.0902723998297,163.07351839984767,164.1087099998258,space,1,162.5898185998667,162.5898185998667,0.4115337999537587,,,,,,,11045,001,2024_Apr_13_1123,gonogo_T,2021.2.3,59.94373678498334,
go,triangle.png,space,1450,1.45,1.95,0,70,70,78,,,,,,,,,,,,,,,,,,,,,,,,,164.12530659977347,164.62612209981307,164.60951919993386,166.06190939992666,space,1,164.12530659977347,164.12530659977347,0.3802743998821825,,,,,,,11045,001,2024_Apr_13_1123,gonogo_T,2021.2.3,59.94373678498334,
nogo,square.png,None,1518,1.518,2.018,0,71,71,56,,,,,,,,,,,,,,,,,,,,,,,,,166.07826169999316,166.57885939977132,166.56221389980055,168.0816011999268,None,1,166.07826169999316,166.07826169999316,,,,,,,,11045,001,2024_Apr_13_1123,gonogo_T,2021.2.3,59.94373678498334,
go,triangle.png,space,1329,1.329,1.829,0,72,72,27,,,,,,,,,,,,,,,,,,,,,,,,,168.09845629986376,168.59878439991735,168.58262739982456,169.9173081999179,space,1,168.09845629986376,168.09845629986376,0.3911966001614928,,,,,,,11045,001,2024_Apr_13_1123,gonogo_T,2021.2.3,59.94373678498334,
go,triangle.png,space,1979,1.979,2.479,0,73,73,93,,,,,,,,,,,,,,,,,,,,,,,,,169.9340578999836,170.43469309993088,170.41840089997277,172.40425819996744,space,1,169.9340578999836,169.9340578999836,0.428000699961558,,,,,,,11045,001,2024_Apr_13_1123,gonogo_T,2021.2.3,59.94373678498334,
go,triangle.png,space,1866,1.866,2.366,0,74,74,42,,,,,,,,,,,,,,,,,,,,,,,,,172.42105939984322,172.92187349987216,172.9053050999064,174.77465719985776,space,1,172.42105939984322,172.42105939984322,0.4045019999612123,,,,,,,11045,001,2024_Apr_13_1123,gonogo_T,2021.2.3,59.94373678498334,
nogo,square.png,None,1844,1.844,2.344,0,75,75,88,,,,,,,,,,,,,,,,,,,,,,,,,174.79116219980642,175.29218909982592,175.27603279985487,177.1287884998601,None,1,174.79116219980642,174.79116219980642,,,,,,,,11045,001,2024_Apr_13_1123,gonogo_T,2021.2.3,59.94373678498334,
nogo,square.png,None,1233,1.233,1.733,0,76,76,44,,,,,,,,,,,,,,,,,,,,,,,,,177.14500499982387,177.6457554998342,177.6294000998605,178.86612049979158,None,1,177.14500499982387,177.14500499982387,,,,,,,,11045,001,2024_Apr_13_1123,gonogo_T,2021.2.3,59.94373678498334,
go,triangle.png,space,1962,1.962,2.462,0,77,77,74,,,,,,,,,,,,,,,,,,,,,,,,,178.8809816997964,179.38154449989088,179.36511029978283,181.33517209999263,space,1,178.8809816997964,178.8809816997964,0.4730920000001788,,,,,,,11045,001,2024_Apr_13_1123,gonogo_T,2021.2.3,59.94373678498334,
go,triangle.png,space,1447,1.447,1.947,0,78,78,7,,,,,,,,,,,,,,,,,,,,,,,,,181.35138019989245,181.85214849980548,181.8353358998429,183.2882613998372,space,1,181.35138019989245,181.35138019989245,0.3951447999570519,,,,,,,11045,001,2024_Apr_13_1123,gonogo_T,2021.2.3,59.94373678498334,
go,triangle.png,space,1074,1.074,1.574,0,79,79,41,,,,,,,,,,,,,,,,,,,,,,,,,183.30437399982475,183.80534029984847,183.78971529984847,184.8731122999452,space,1,183.30437399982475,183.30437399982475,0.45749510009773076,,,,,,,11045,001,2024_Apr_13_1123,gonogo_T,2021.2.3,59.94373678498334,
go,triangle.png,space,1437,1.437,1.937,0,80,80,45,,,,,,,,,,,,,,,,,,,,,,,,,184.88973279995844,185.39072189992294,185.37406279984862,None,space,1,184.88973279995844,184.88973279995844,0.4324237999971956,,,,,,,11045,001,2024_Apr_13_1123,gonogo_T,2021.2.3,59.94373678498334,
go,triangle.png,space,1806,1.806,2.306,0,81,81,73,,,,,,,,,,,,,,,,,,,,,,,,,186.8264708998613,187.3270017998293,187.31023929989897,189.1298678999301,space,1,186.8264708998613,186.8264708998613,0.3596304999664426,,,,,,,11045,001,2024_Apr_13_1123,gonogo_T,2021.2.3,59.94373678498334,
nogo,square.png,None,1453,1.453,1.953,0,82,82,12,,,,,,,,,,,,,,,,,,,,,,,,,189.14652749989182,189.64758189977147,189.63053469988517,191.0826629998628,None,1,189.14652749989182,189.14652749989182,,,,,,,,11045,001,2024_Apr_13_1123,gonogo_T,2021.2.3,59.94373678498334,
go,triangle.png,space,1323,1.323,1.823,0,83,83,21,,,,,,,,,,,,,,,,,,,,,,,,,191.09964669984765,191.60015819990076,191.58382219984196,192.91936909989454,space,1,191.09964669984765,191.09964669984765,0.43072289996780455,,,,,,,11045,001,2024_Apr_13_1123,gonogo_T,2021.2.3,59.94373678498334,
go,triangle.png,space,1466,1.466,1.966,0,84,84,94,,,,,,,,,,,,,,,,,,,,,,,,,192.93546929978766,193.43631669995375,193.41944129997864,194.88832579995506,space,1,192.93546929978766,192.93546929978766,0.5946440000552684,,,,,,,11045,001,2024_Apr_13_1123,gonogo_T,2021.2.3,59.94373678498334,
go,triangle.png,space,1074,1.074,1.574,0,85,85,6,,,,,,,,,,,,,,,,,,,,,,,,,194.90507209999487,195.4057257999666,195.3891988999676,196.474185799947,space,1,194.90507209999487,194.90507209999487,0.5530048001091927,,,,,,,11045,001,2024_Apr_13_1123,gonogo_T,2021.2.3,59.94373678498334,
go,triangle.png,space,1154,1.154,1.654,0,86,86,71,,,,,,,,,,,,,,,,,,,,,,,,,196.4906979999505,196.99149219994433,196.9749168998096,198.14331529987976,space,1,196.4906979999505,196.4906979999505,0.4635715000331402,,,,,,,11045,001,2024_Apr_13_1123,gonogo_T,2021.2.3,59.94373678498334,
go,triangle.png,space,1445,1.445,1.945,0,87,87,5,,,,,,,,,,,,,,,,,,,,,,,,,198.16002630000003,198.6605706999544,198.6438791998662,200.09609049977735,space,1,198.16002630000003,198.16002630000003,0.3861058000475168,,,,,,,11045,001,2024_Apr_13_1123,gonogo_T,2021.2.3,59.94373678498334,
go,triangle.png,space,1641,1.641,2.141,0,88,88,86,,,,,,,,,,,,,,,,,,,,,,,,,200.11274549993686,200.61370609980077,200.59772619977593,202.25023029977456,space,1,200.11274549993686,200.11274549993686,0.4500090000219643,,,,,,,11045,001,2024_Apr_13_1123,gonogo_T,2021.2.3,59.94373678498334,
go,triangle.png,space,1594,1.594,2.094,0,89,89,38,,,,,,,,,,,,,,,,,,,,,,,,,202.26615699985996,202.76712479977868,202.75069389981218,204.35249399999157,space,1,202.26615699985996,202.26615699985996,0.9201867999508977,,,,,,,11045,001,2024_Apr_13_1123,gonogo_T,2021.2.3,59.94373678498334,
nogo,square.png,None,1154,1.154,1.654,0,90,90,40,,,,,,,,,,,,,,,,,,,,,,,,,204.3695574000012,204.87060439982451,204.8537820999045,None,None,1,204.3695574000012,204.3695574000012,,,,,,,,11045,001,2024_Apr_13_1123,gonogo_T,2021.2.3,59.94373678498334,
nogo,square.png,None,1267,1.267,1.767,0,91,91,20,,,,,,,,,,,,,,,,,,,,,,,,,206.02178169996478,206.52280739997514,206.50581369991414,207.77452999982052,None,1,206.02178169996478,206.02178169996478,,,,,,,,11045,001,2024_Apr_13_1123,gonogo_T,2021.2.3,59.94373678498334,
go,triangle.png,space,1716,1.716,2.216,0,92,92,14,,,,,,,,,,,,,,,,,,,,,,,,,207.79107569996268,208.29225279996172,208.2753300999757,209.99456789996475,space,1,207.79107569996268,207.79107569996268,0.5316995000466704,,,,,,,11045,001,2024_Apr_13_1123,gonogo_T,2021.2.3,59.94373678498334,
go,triangle.png,space,1973,1.973,2.473,0,93,93,37,,,,,,,,,,,,,,,,,,,,,,,,,210.01095899986103,210.51193109992892,210.49560329993255,212.4816031998489,space,1,210.01095899986103,210.01095899986103,0.3839769000187516,,,,,,,11045,001,2024_Apr_13_1123,gonogo_T,2021.2.3,59.94373678498334,
nogo,square.png,None,1379,1.379,1.879,0,94,94,84,,,,,,,,,,,,,,,,,,,,,,,,,212.49836589978077,212.99900169996545,212.98227159981616,214.3703586999327,None,1,212.49836589978077,212.49836589978077,,,,,,,,11045,001,2024_Apr_13_1123,gonogo_T,2021.2.3,59.94373678498334,
go,triangle.png,space,1320,1.32,1.82,0,95,95,54,,,,,,,,,,,,,,,,,,,,,,,,,214.38458819990046,214.88537549995817,214.86851769988425,None,space,1,214.38458819990046,214.38458819990046,0.44204979995265603,,,,,,,11045,001,2024_Apr_13_1123,gonogo_T,2021.2.3,59.94373678498334,
,,,,,,,,,,,,,,,,,,,,,,,,,,,,,,,,,,,,,,,,,,,216.20387369999662,None,space,2.38335629994981,216.20387369999662,None,11045,001,2024_Apr_13_1123,gonogo_T,2021.2.3,59.94373678498334,
