﻿key_resp.keys,key_resp.rt,trials_2.thisRepN,trials_2.thisTrialN,trials_2.thisN,trials_2.thisIndex,trials_2.ran,stim_ins,size_insrx,size_insry,name,session,date,expName,psychopyVersion,OS,frameRate,key_resp_2.keys,key_resp_2.rt,注视点1,试次呈现时间+注视点2,count,key_resp_T1.keys,key_resp_T1.corr,key_resp_T1.rt,key_resp_T2.keys,key_resp_T2.corr,key_resp_T2.rt,注视点2,trials.thisRepN,trials.thisTrialN,trials.thisN,trials.thisIndex,trials.ran,TrialNumber,FlankerConditionT1,LocationT1,DirectionT1,LocationConditionT1,ImageT1,CorrectAnswerT1,PositionT1x,PositionT1y,anglefilpT1,ConditionT1,IntervalT1toT2,FlankerConditionT2,LocationT2,DirectionT2,LocationConditionT2,ImageT2,CorrectAnswerT2,PositionT2x,PositionT2y,anglefilpT2,ConditionT2,DurationFixation,TargetFilePath,key_resp_3.keys,key_resp_3.rt,trials_3.thisRepN,trials_3.thisTrialN,trials_3.thisN,trials_3.thisIndex,trials_3.ran,instr_p_t,block_type,cond,size_p_tx,size_p_ty
space,2.0795,0,0,0,0,1,Instructions/i1.png,1,0.4,lga,1,2024-06-27_18h55.33.528,DCT_v1_online,2021.2.3,Win32,163.132137,,,,,,,,,,,,,,,,,,,,,,,,,,,,,,,,,,,,,,,,,,,,,,,,,,,,,
space,15.8433,0,1,1,1,1,Instructions/i2.png,1.4,0.85,lga,1,2024-06-27_18h55.33.528,DCT_v1_online,2021.2.3,Win32,163.132137,,,,,,,,,,,,,,,,,,,,,,,,,,,,,,,,,,,,,,,,,,,,,,,,,,,,,
space,5.3921,0,2,2,2,1,Instructions/i3.png,1.2,0.85,lga,1,2024-06-27_18h55.33.528,DCT_v1_online,2021.2.3,Win32,163.132137,,,,,,,,,,,,,,,,,,,,,,,,,,,,,,,,,,,,,,,,,,,,,,,,,,,,,
,,,,,,,,,,lga,1,2024-06-27_18h55.33.528,DCT_v1_online,2021.2.3,Win32,163.132137,space,7.8621,0.458,2.792,1,down,1,0.5946,right,1,0.5556,2.042,0,0,0,11,1,82,incongruent,up,down,incongruent,Stim/Aincon.png,down,0,0.1,180,6,1000,congruent,left,right,congruent,Stim/Acon.png,right,-0.1,0,-90,1,2000,stimuli\\,,,,,,,,,,,,
,,,,,,,,,,lga,1,2024-06-27_18h55.33.528,DCT_v1_online,2021.2.3,Win32,163.132137,,,0.301,2.049,2,down,1,0.7584,right,1,0.931,2.199,0,1,1,10,1,81,incongruent,up,down,incongruent,Stim/Aincon.png,down,0,0.1,180,6,100,congruent,left,right,congruent,Stim/Acon.png,right,-0.1,0,-90,1,2000,stimuli\\,,,,,,,,,,,,
,,,,,,,,,,lga,1,2024-06-27_18h55.33.528,DCT_v1_online,2021.2.3,Win32,163.132137,,,0.228,3.022,3,up,1,0.4725,right,1,0.4659,2.272,0,2,2,1,1,2,congruent,up,up,congruent,Stim/Acon.png,up,0,0.1,0,1,1000,congruent,left,right,congruent,Stim/Acon.png,right,-0.1,0,-90,1,2000,stimuli\\,,,,,,,,,,,,
,,,,,,,,,,lga,1,2024-06-27_18h55.33.528,DCT_v1_online,2021.2.3,Win32,163.132137,,,0.411,2.839,4,down,1,0.5288,right,1,0.4111,2.089,0,3,3,3,1,18,congruent,up,down,incongruent,Stim/Acon.png,down,0,0.1,180,2,1000,congruent,left,right,congruent,Stim/Acon.png,right,-0.1,0,-90,1,2000,stimuli\\,,,,,,,,,,,,
,,,,,,,,,,lga,1,2024-06-27_18h55.33.528,DCT_v1_online,2021.2.3,Win32,163.132137,,,0.079,3.171,5,down,0,0.457,right,1,0.4659,2.421,0,4,4,9,1,66,incongruent,up,up,congruent,Stim/Aincon.png,up,0,0.1,0,5,1000,congruent,left,right,congruent,Stim/Acon.png,right,-0.1,0,-90,1,2000,stimuli\\,,,,,,,,,,,,
,,,,,,,,,,lga,1,2024-06-27_18h55.33.528,DCT_v1_online,2021.2.3,Win32,163.132137,,,0.343,2.007,6,down,1,0.9687,left,0,1.1734,2.157,0,5,5,14,1,113,incongruent,down,down,congruent,Stim/Aincon.png,down,0,-0.1,180,8,100,incongruent,left,right,congruent,Stim/Aincon.png,right,-0.1,0,-90,1,2000,stimuli\\,,,,,,,,,,,,
,,,,,,,,,,lga,1,2024-06-27_18h55.33.528,DCT_v1_online,2021.2.3,Win32,163.132137,,,0.303,2.947,7,down,1,0.6146,right,1,0.7036,2.197,0,6,6,15,1,114,incongruent,down,down,congruent,Stim/Aincon.png,down,0,-0.1,180,8,1000,incongruent,left,right,congruent,Stim/Aincon.png,right,-0.1,0,-90,1,2000,stimuli\\,,,,,,,,,,,,
,,,,,,,,,,lga,1,2024-06-27_18h55.33.528,DCT_v1_online,2021.2.3,Win32,163.132137,,,0.387,2.863,8,up,1,0.5593,left,1,0.4969,2.113,0,7,7,5,1,34,congruent,down,up,incongruent,Stim/Acon.png,up,0,-0.1,0,3,1000,incongruent,left,left,congruent,Stim/Aincon.png,left,-0.1,0,90,1,2000,stimuli\\,,,,,,,,,,,,
,,,,,,,,,,lga,1,2024-06-27_18h55.33.528,DCT_v1_online,2021.2.3,Win32,163.132137,,,0.401,2.849,9,down,1,0.515,left,1,0.5129,2.099,0,8,8,7,1,50,congruent,down,down,congruent,Stim/Acon.png,down,0,-0.1,180,4,1000,incongruent,left,left,congruent,Stim/Aincon.png,left,-0.1,0,90,1,2000,stimuli\\,,,,,,,,,,,,
,,,,,,,,,,lga,1,2024-06-27_18h55.33.528,DCT_v1_online,2021.2.3,Win32,163.132137,,,0.221,2.129,10,up,1,0.6555,right,1,0.7406,2.279,0,9,9,0,1,1,congruent,up,up,congruent,Stim/Acon.png,up,0,0.1,0,1,100,congruent,left,right,congruent,Stim/Acon.png,right,-0.1,0,-90,1,2000,stimuli\\,,,,,,,,,,,,
,,,,,,,,,,lga,1,2024-06-27_18h55.33.528,DCT_v1_online,2021.2.3,Win32,163.132137,,,0.063,2.287,11,up,1,1.0644,left,1,1.1927,2.437,0,10,10,12,1,111,incongruent,down,up,incongruent,Stim/Aincon.png,up,0,-0.1,0,7,100,incongruent,right,left,congruent,Stim/Aincon.png,left,0.1,0,90,8,2000,stimuli\\,,,,,,,,,,,,
,,,,,,,,,,lga,1,2024-06-27_18h55.33.528,DCT_v1_online,2021.2.3,Win32,163.132137,,,0.308,2.942,12,up,1,0.6671,right,0,0.4519,2.192,0,11,11,13,1,112,incongruent,down,up,incongruent,Stim/Aincon.png,up,0,-0.1,0,7,1000,incongruent,right,left,congruent,Stim/Aincon.png,left,0.1,0,90,8,2000,stimuli\\,,,,,,,,,,,,
,,,,,,,,,,lga,1,2024-06-27_18h55.33.528,DCT_v1_online,2021.2.3,Win32,163.132137,,,0.138,2.212,13,down,1,0.5553,left,1,0.7151,2.362,0,12,12,6,1,49,congruent,down,down,congruent,Stim/Acon.png,down,0,-0.1,180,4,100,incongruent,left,left,congruent,Stim/Aincon.png,left,-0.1,0,90,1,2000,stimuli\\,,,,,,,,,,,,
,,,,,,,,,,lga,1,2024-06-27_18h55.33.528,DCT_v1_online,2021.2.3,Win32,163.132137,,,0.042,2.308,14,up,1,0.5845,left,1,0.7257,2.458,0,13,13,4,1,33,congruent,down,up,incongruent,Stim/Acon.png,up,0,-0.1,0,3,100,incongruent,left,left,congruent,Stim/Aincon.png,left,-0.1,0,90,1,2000,stimuli\\,,,,,,,,,,,,
,,,,,,,,,,lga,1,2024-06-27_18h55.33.528,DCT_v1_online,2021.2.3,Win32,163.132137,,,0.214,2.136,15,up,1,0.7879,right,1,0.8951,2.286,0,14,14,8,1,65,incongruent,up,up,congruent,Stim/Aincon.png,up,0,0.1,0,5,100,congruent,left,right,congruent,Stim/Acon.png,right,-0.1,0,-90,1,2000,stimuli\\,,,,,,,,,,,,
,,,,,,,,,,lga,1,2024-06-27_18h55.33.528,DCT_v1_online,2021.2.3,Win32,163.132137,,,0.237,2.113,16,down,1,0.8767,right,1,0.9376,2.263,0,15,15,2,1,17,congruent,up,down,incongruent,Stim/Acon.png,down,0,0.1,180,2,100,congruent,left,right,congruent,Stim/Acon.png,right,-0.1,0,-90,1,2000,stimuli\\,,,,,,,,,,,,
,,,,,,,,,,lga,1,2024-06-27_18h55.33.528,DCT_v1_online,2021.2.3,Win32,163.132137,,,,,,,,,,,,,,,,,,,,,,,,,,,,,,,,,,,,,,,,,,space,4.1702,0,0,0,0,1,Instructions/i4.png,pra,conditions/blockpra.xlsx,0.8,0.45
,,,,,,,,,,lga,1,2024-06-27_18h55.33.528,DCT_v1_online,2021.2.3,Win32,163.132137,space,13.7987,0.07,2.28,17,down,1,0.8512,right,1,1.0793,2.43,0,0,0,126,1,127,incongruent,down,down,congruent,Stim/Aincon.png,down,0,-0.1,180,8,100,incongruent,right,right,congruent,Stim/Aincon.png,right,0.1,0,-90,8,2000,stimuli\\,,,,,,,,,,,,
,,,,,,,,,,lga,1,2024-06-27_18h55.33.528,DCT_v1_online,2021.2.3,Win32,163.132137,,,0.387,2.863,18,up,1,0.4526,left,1,0.5865,2.113,0,1,1,45,1,46,congruent,down,up,incongruent,Stim/Acon.png,up,0,-0.1,0,3,1000,incongruent,right,left,incongruent,Stim/Aincon.png,left,0.1,0,90,7,2000,stimuli\\,,,,,,,,,,,,
,,,,,,,,,,lga,1,2024-06-27_18h55.33.528,DCT_v1_online,2021.2.3,Win32,163.132137,,,0.317,2.033,19,up,1,0.7327,right,1,0.8266,2.183,0,2,2,78,1,79,incongruent,up,up,congruent,Stim/Aincon.png,up,0,0.1,0,5,100,incongruent,right,right,congruent,Stim/Aincon.png,right,0.1,0,-90,8,2000,stimuli\\,,,,,,,,,,,,
,,,,,,,,,,lga,1,2024-06-27_18h55.33.528,DCT_v1_online,2021.2.3,Win32,163.132137,,,0.079,3.171,20,down,1,0.5378,right,1,0.4217,2.421,0,3,3,55,1,56,congruent,down,down,congruent,Stim/Acon.png,down,0,-0.1,180,4,1000,congruent,right,right,congruent,Stim/Acon.png,right,0.1,0,-90,4,2000,stimuli\\,,,,,,,,,,,,
,,,,,,,,,,lga,1,2024-06-27_18h55.33.528,DCT_v1_online,2021.2.3,Win32,163.132137,,,0.493,1.857,21,down,1,0.6885,left,1,0.7617,2.007,0,4,4,116,1,117,incongruent,down,down,congruent,Stim/Aincon.png,down,0,-0.1,180,8,100,congruent,right,left,incongruent,Stim/Acon.png,left,0.1,0,90,3,2000,stimuli\\,,,,,,,,,,,,
,,,,,,,,,,lga,1,2024-06-27_18h55.33.528,DCT_v1_online,2021.2.3,Win32,163.132137,,,0.184,2.166,22,down,1,0.8464,right,1,0.916,2.316,0,5,5,86,1,87,incongruent,up,down,incongruent,Stim/Aincon.png,down,0,0.1,180,6,100,congruent,right,right,congruent,Stim/Acon.png,right,0.1,0,-90,4,2000,stimuli\\,,,,,,,,,,,,
,,,,,,,,,,lga,1,2024-06-27_18h55.33.528,DCT_v1_online,2021.2.3,Win32,163.132137,,,0.356,2.894,23,down,1,0.5755,right,1,0.5414,2.144,0,6,6,63,1,64,congruent,down,down,congruent,Stim/Acon.png,down,0,-0.1,180,4,1000,incongruent,right,right,congruent,Stim/Aincon.png,right,0.1,0,-90,8,2000,stimuli\\,,,,,,,,,,,,
,,,,,,,,,,lga,1,2024-06-27_18h55.33.528,DCT_v1_online,2021.2.3,Win32,163.132137,,,0.251,2.999,24,up,1,0.5805,right,1,0.4852,2.249,0,7,7,3,1,4,congruent,up,up,congruent,Stim/Acon.png,up,0,0.1,0,1,1000,congruent,left,right,incongruent,Stim/Acon.png,right,-0.1,0,-90,2,2000,stimuli\\,,,,,,,,,,,,
,,,,,,,,,,lga,1,2024-06-27_18h55.33.528,DCT_v1_online,2021.2.3,Win32,163.132137,,,0.349,2.901,25,down,1,0.4958,left,0,0.4103,2.151,0,8,8,27,1,28,congruent,up,down,incongruent,Stim/Acon.png,down,0,0.1,180,2,1000,incongruent,left,right,incongruent,Stim/Aincon.png,right,-0.1,0,-90,6,2000,stimuli\\,,,,,,,,,,,,
,,,,,,,,,,lga,1,2024-06-27_18h55.33.528,DCT_v1_online,2021.2.3,Win32,163.132137,,,0.231,3.019,26,down,0,0.4683,left,1,0.5582,2.269,0,9,9,77,1,78,incongruent,up,up,congruent,Stim/Aincon.png,up,0,0.1,0,5,1000,incongruent,right,left,incongruent,Stim/Aincon.png,left,0.1,0,90,7,2000,stimuli\\,,,,,,,,,,,,
,,,,,,,,,,lga,1,2024-06-27_18h55.33.528,DCT_v1_online,2021.2.3,Win32,163.132137,,,0.093,3.157,27,up,1,0.5397,right,1,0.5272,2.407,0,10,10,43,1,44,congruent,down,up,incongruent,Stim/Acon.png,up,0,-0.1,0,3,1000,incongruent,left,right,incongruent,Stim/Aincon.png,right,-0.1,0,-90,6,2000,stimuli\\,,,,,,,,,,,,
,,,,,,,,,,lga,1,2024-06-27_18h55.33.528,DCT_v1_online,2021.2.3,Win32,163.132137,,,0.009,2.341,28,down,1,0.686,left,1,0.7377,2.491,0,11,11,28,1,29,congruent,up,down,incongruent,Stim/Acon.png,down,0,0.1,180,2,100,incongruent,right,left,incongruent,Stim/Aincon.png,left,0.1,0,90,7,2000,stimuli\\,,,,,,,,,,,,
,,,,,,,,,,lga,1,2024-06-27_18h55.33.528,DCT_v1_online,2021.2.3,Win32,163.132137,,,0.06,2.29,29,up,1,0.8305,left,1,0.8641,2.44,0,12,12,72,1,73,incongruent,up,up,congruent,Stim/Aincon.png,up,0,0.1,0,5,100,incongruent,left,left,congruent,Stim/Aincon.png,left,-0.1,0,90,5,2000,stimuli\\,,,,,,,,,,,,
,,,,,,,,,,lga,1,2024-06-27_18h55.33.528,DCT_v1_online,2021.2.3,Win32,163.132137,,,0.202,2.148,30,down,1,0.7151,right,1,0.9339,2.298,0,13,13,58,1,59,congruent,down,down,congruent,Stim/Acon.png,down,0,-0.1,180,4,100,incongruent,left,right,incongruent,Stim/Aincon.png,right,-0.1,0,-90,6,2000,stimuli\\,,,,,,,,,,,,
,,,,,,,,,,lga,1,2024-06-27_18h55.33.528,DCT_v1_online,2021.2.3,Win32,163.132137,,,0.447,2.803,31,down,0,0.5168,left,0,0.4108,2.053,0,14,14,75,1,76,incongruent,up,up,congruent,Stim/Aincon.png,up,0,0.1,0,5,1000,incongruent,left,right,incongruent,Stim/Aincon.png,right,-0.1,0,-90,6,2000,stimuli\\,,,,,,,,,,,,
,,,,,,,,,,lga,1,2024-06-27_18h55.33.528,DCT_v1_online,2021.2.3,Win32,163.132137,,,0.48,2.77,32,down,1,0.5294,right,1,0.4293,2.02,0,15,15,83,1,84,incongruent,up,down,incongruent,Stim/Aincon.png,down,0,0.1,180,6,1000,congruent,left,right,incongruent,Stim/Acon.png,right,-0.1,0,-90,2,2000,stimuli\\,,,,,,,,,,,,
,,,,,,,,,,lga,1,2024-06-27_18h55.33.528,DCT_v1_online,2021.2.3,Win32,163.132137,,,0.127,2.223,33,up,1,0.5891,left,1,0.6982,2.373,0,16,16,8,1,9,congruent,up,up,congruent,Stim/Acon.png,up,0,0.1,0,1,100,incongruent,left,left,congruent,Stim/Aincon.png,left,-0.1,0,90,5,2000,stimuli\\,,,,,,,,,,,,
,,,,,,,,,,lga,1,2024-06-27_18h55.33.528,DCT_v1_online,2021.2.3,Win32,163.132137,,,0.17,3.08,34,down,1,0.4946,left,1,0.4913,2.33,0,17,17,21,1,22,congruent,up,down,incongruent,Stim/Acon.png,down,0,0.1,180,2,1000,congruent,right,left,incongruent,Stim/Acon.png,left,0.1,0,90,3,2000,stimuli\\,,,,,,,,,,,,
,,,,,,,,,,lga,1,2024-06-27_18h55.33.528,DCT_v1_online,2021.2.3,Win32,163.132137,,,0.181,3.069,35,up,1,0.8866,right,1,0.6448,2.319,0,18,18,111,1,112,incongruent,down,up,incongruent,Stim/Aincon.png,up,0,-0.1,0,7,1000,incongruent,right,right,congruent,Stim/Aincon.png,right,0.1,0,-90,8,2000,stimuli\\,,,,,,,,,,,,
,,,,,,,,,,lga,1,2024-06-27_18h55.33.528,DCT_v1_online,2021.2.3,Win32,163.132137,,,0.297,2.953,36,up,1,0.7446,left,1,0.4386,2.203,0,19,19,101,1,102,incongruent,down,up,incongruent,Stim/Aincon.png,up,0,-0.1,0,7,1000,congruent,right,left,incongruent,Stim/Acon.png,left,0.1,0,90,3,2000,stimuli\\,,,,,,,,,,,,
,,,,,,,,,,lga,1,2024-06-27_18h55.33.528,DCT_v1_online,2021.2.3,Win32,163.132137,,,0.187,2.163,37,up,1,0.7035,right,1,0.8774,2.313,0,20,20,46,1,47,congruent,down,up,incongruent,Stim/Acon.png,up,0,-0.1,0,3,100,incongruent,right,right,congruent,Stim/Aincon.png,right,0.1,0,-90,8,2000,stimuli\\,,,,,,,,,,,,
,,,,,,,,,,lga,1,2024-06-27_18h55.33.528,DCT_v1_online,2021.2.3,Win32,163.132137,,,0.265,2.985,38,down,1,0.5934,right,1,0.6502,2.235,0,21,21,123,1,124,incongruent,down,down,congruent,Stim/Aincon.png,down,0,-0.1,180,8,1000,incongruent,left,right,incongruent,Stim/Aincon.png,right,-0.1,0,-90,6,2000,stimuli\\,,,,,,,,,,,,
,,,,,,,,,,lga,1,2024-06-27_18h55.33.528,DCT_v1_online,2021.2.3,Win32,163.132137,,,0.376,1.974,39,up,1,0.8989,right,1,1.0508,2.124,0,22,22,110,1,111,incongruent,down,up,incongruent,Stim/Aincon.png,up,0,-0.1,0,7,100,incongruent,right,right,congruent,Stim/Aincon.png,right,0.1,0,-90,8,2000,stimuli\\,,,,,,,,,,,,
,,,,,,,,,,lga,1,2024-06-27_18h55.33.528,DCT_v1_online,2021.2.3,Win32,163.132137,,,0.001,3.249,40,down,1,0.6156,right,1,0.5503,2.499,0,23,23,59,1,60,congruent,down,down,congruent,Stim/Acon.png,down,0,-0.1,180,4,1000,incongruent,left,right,incongruent,Stim/Aincon.png,right,-0.1,0,-90,6,2000,stimuli\\,,,,,,,,,,,,
,,,,,,,,,,lga,1,2024-06-27_18h55.33.528,DCT_v1_online,2021.2.3,Win32,163.132137,,,0.079,2.271,41,up,1,0.8946,right,1,1.0169,2.421,0,24,24,106,1,107,incongruent,down,up,incongruent,Stim/Aincon.png,up,0,-0.1,0,7,100,incongruent,left,right,incongruent,Stim/Aincon.png,right,-0.1,0,-90,6,2000,stimuli\\,,,,,,,,,,,,
,,,,,,,,,,lga,1,2024-06-27_18h55.33.528,DCT_v1_online,2021.2.3,Win32,163.132137,,,0.472,1.878,42,down,1,0.7382,left,1,0.7894,2.028,0,25,25,52,1,53,congruent,down,down,congruent,Stim/Acon.png,down,0,-0.1,180,4,100,congruent,right,left,incongruent,Stim/Acon.png,left,0.1,0,90,3,2000,stimuli\\,,,,,,,,,,,,
,,,,,,,,,,lga,1,2024-06-27_18h55.33.528,DCT_v1_online,2021.2.3,Win32,163.132137,,,0.354,2.896,43,up,1,0.6101,left,0,0.5116,2.146,0,26,26,79,1,80,incongruent,up,up,congruent,Stim/Aincon.png,up,0,0.1,0,5,1000,incongruent,right,right,congruent,Stim/Aincon.png,right,0.1,0,-90,8,2000,stimuli\\,,,,,,,,,,,,
,,,,,,,,,,lga,1,2024-06-27_18h55.33.528,DCT_v1_online,2021.2.3,Win32,163.132137,,,0.424,1.926,44,down,1,0.7677,right,1,0.826,2.076,0,27,27,114,1,115,incongruent,down,down,congruent,Stim/Aincon.png,down,0,-0.1,180,8,100,congruent,left,right,incongruent,Stim/Acon.png,right,-0.1,0,-90,2,2000,stimuli\\,,,,,,,,,,,,
,,,,,,,,,,lga,1,2024-06-27_18h55.33.528,DCT_v1_online,2021.2.3,Win32,163.132137,,,0.076,3.174,45,down,1,0.6894,right,0,0.534,2.424,0,28,28,121,1,122,incongruent,down,down,congruent,Stim/Aincon.png,down,0,-0.1,180,8,1000,incongruent,left,left,congruent,Stim/Aincon.png,left,-0.1,0,90,5,2000,stimuli\\,,,,,,,,,,,,
,,,,,,,,,,lga,1,2024-06-27_18h55.33.528,DCT_v1_online,2021.2.3,Win32,163.132137,,,0.413,1.937,46,up,1,0.6633,right,1,0.7856,2.087,0,29,29,10,1,11,congruent,up,up,congruent,Stim/Acon.png,up,0,0.1,0,1,100,incongruent,left,right,incongruent,Stim/Aincon.png,right,-0.1,0,-90,6,2000,stimuli\\,,,,,,,,,,,,
,,,,,,,,,,lga,1,2024-06-27_18h55.33.528,DCT_v1_online,2021.2.3,Win32,163.132137,,,0.398,1.952,47,down,1,0.6793,left,1,0.7773,2.102,0,30,30,112,1,113,incongruent,down,down,congruent,Stim/Aincon.png,down,0,-0.1,180,8,100,congruent,left,left,congruent,Stim/Acon.png,left,-0.1,0,90,1,2000,stimuli\\,,,,,,,,,,,,
,,,,,,,,,,lga,1,2024-06-27_18h55.33.528,DCT_v1_online,2021.2.3,Win32,163.132137,,,0.004,2.346,48,down,1,0.8578,right,1,0.9363,2.496,0,31,31,82,1,83,incongruent,up,down,incongruent,Stim/Aincon.png,down,0,0.1,180,6,100,congruent,left,right,incongruent,Stim/Acon.png,right,-0.1,0,-90,2,2000,stimuli\\,,,,,,,,,,,,
,,,,,,,,,,lga,1,2024-06-27_18h55.33.528,DCT_v1_online,2021.2.3,Win32,163.132137,,,0.342,2.908,49,down,1,0.5999,left,1,0.5412,2.158,0,32,32,61,1,62,congruent,down,down,congruent,Stim/Acon.png,down,0,-0.1,180,4,1000,incongruent,right,left,incongruent,Stim/Aincon.png,left,0.1,0,90,7,2000,stimuli\\,,,,,,,,,,,,
,,,,,,,,,,lga,1,2024-06-27_18h55.33.528,DCT_v1_online,2021.2.3,Win32,163.132137,,,0.383,2.867,50,up,1,0.6232,right,1,0.5769,2.117,0,33,33,107,1,108,incongruent,down,up,incongruent,Stim/Aincon.png,up,0,-0.1,0,7,1000,incongruent,left,right,incongruent,Stim/Aincon.png,right,-0.1,0,-90,6,2000,stimuli\\,,,,,,,,,,,,
,,,,,,,,,,lga,1,2024-06-27_18h55.33.528,DCT_v1_online,2021.2.3,Win32,163.132137,,,0.405,1.945,51,up,1,0.7408,left,1,0.8189,2.095,0,34,34,76,1,77,incongruent,up,up,congruent,Stim/Aincon.png,up,0,0.1,0,5,100,incongruent,right,left,incongruent,Stim/Aincon.png,left,0.1,0,90,7,2000,stimuli\\,,,,,,,,,,,,
,,,,,,,,,,lga,1,2024-06-27_18h55.33.528,DCT_v1_online,2021.2.3,Win32,163.132137,,,0.394,1.956,52,down,1,0.7896,left,1,0.8968,2.106,0,35,35,60,1,61,congruent,down,down,congruent,Stim/Acon.png,down,0,-0.1,180,4,100,incongruent,right,left,incongruent,Stim/Aincon.png,left,0.1,0,90,7,2000,stimuli\\,,,,,,,,,,,,
,,,,,,,,,,lga,1,2024-06-27_18h55.33.528,DCT_v1_online,2021.2.3,Win32,163.132137,,,0.352,1.998,53,down,1,0.7994,left,1,0.8813,2.148,0,36,36,80,1,81,incongruent,up,down,incongruent,Stim/Aincon.png,down,0,0.1,180,6,100,congruent,left,left,congruent,Stim/Acon.png,left,-0.1,0,90,1,2000,stimuli\\,,,,,,,,,,,,
,,,,,,,,,,lga,1,2024-06-27_18h55.33.528,DCT_v1_online,2021.2.3,Win32,163.132137,,,0.365,1.985,54,up,1,0.689,left,1,0.8932,2.135,0,37,37,44,1,45,congruent,down,up,incongruent,Stim/Acon.png,up,0,-0.1,0,3,100,incongruent,right,left,incongruent,Stim/Aincon.png,left,0.1,0,90,7,2000,stimuli\\,,,,,,,,,,,,
,,,,,,,,,,lga,1,2024-06-27_18h55.33.528,DCT_v1_online,2021.2.3,Win32,163.132137,,,0.492,2.758,55,down,0,0.6064,left,1,0.5729,2.008,0,38,38,105,1,106,incongruent,down,up,incongruent,Stim/Aincon.png,up,0,-0.1,0,7,1000,incongruent,left,left,congruent,Stim/Aincon.png,left,-0.1,0,90,5,2000,stimuli\\,,,,,,,,,,,,
,,,,,,,,,,lga,1,2024-06-27_18h55.33.528,DCT_v1_online,2021.2.3,Win32,163.132137,,,0.068,2.282,56,down,1,0.6612,left,1,0.7526,2.432,0,39,39,16,1,17,congruent,up,down,incongruent,Stim/Acon.png,down,0,0.1,180,2,100,congruent,left,left,congruent,Stim/Acon.png,left,-0.1,0,90,1,2000,stimuli\\,,,,,,,,,,,,
,,,,,,,,,,lga,1,2024-06-27_18h55.33.528,DCT_v1_online,2021.2.3,Win32,163.132137,,,0.474,1.876,57,up,1,0.7288,right,1,0.8181,2.026,0,40,40,98,1,99,incongruent,down,up,incongruent,Stim/Aincon.png,up,0,-0.1,0,7,100,congruent,left,right,incongruent,Stim/Acon.png,right,-0.1,0,-90,2,2000,stimuli\\,,,,,,,,,,,,
,,,,,,,,,,lga,1,2024-06-27_18h55.33.528,DCT_v1_online,2021.2.3,Win32,163.132137,,,0.156,3.094,58,down,1,0.6249,left,1,0.4609,2.344,0,41,41,85,1,86,incongruent,up,down,incongruent,Stim/Aincon.png,down,0,0.1,180,6,1000,congruent,right,left,incongruent,Stim/Acon.png,left,0.1,0,90,3,2000,stimuli\\,,,,,,,,,,,,
,,,,,,,,,,lga,1,2024-06-27_18h55.33.528,DCT_v1_online,2021.2.3,Win32,163.132137,,,0.154,2.196,59,up,1,0.8137,left,1,0.9261,2.346,0,42,42,100,1,101,incongruent,down,up,incongruent,Stim/Aincon.png,up,0,-0.1,0,7,100,congruent,right,left,incongruent,Stim/Acon.png,left,0.1,0,90,3,2000,stimuli\\,,,,,,,,,,,,
,,,,,,,,,,lga,1,2024-06-27_18h55.33.528,DCT_v1_online,2021.2.3,Win32,163.132137,,,0.248,2.102,60,up,1,0.7999,right,1,0.9252,2.252,0,43,43,42,1,43,congruent,down,up,incongruent,Stim/Acon.png,up,0,-0.1,0,3,100,incongruent,left,right,incongruent,Stim/Aincon.png,right,-0.1,0,-90,6,2000,stimuli\\,,,,,,,,,,,,
,,,,,,,,,,lga,1,2024-06-27_18h55.33.528,DCT_v1_online,2021.2.3,Win32,163.132137,,,0.152,3.098,61,up,1,0.6519,right,1,0.474,2.348,0,44,44,35,1,36,congruent,down,up,incongruent,Stim/Acon.png,up,0,-0.1,0,3,1000,congruent,left,right,incongruent,Stim/Acon.png,right,-0.1,0,-90,2,2000,stimuli\\,,,,,,,,,,,,
,,,,,,,,,,lga,1,2024-06-27_18h55.33.528,DCT_v1_online,2021.2.3,Win32,163.132137,,,0.12,3.13,62,up,1,0.748,left,1,0.4391,2.38,0,45,45,97,1,98,incongruent,down,up,incongruent,Stim/Aincon.png,up,0,-0.1,0,7,1000,congruent,left,left,congruent,Stim/Acon.png,left,-0.1,0,90,1,2000,stimuli\\,,,,,,,,,,,,
,,,,,,,,,,lga,1,2024-06-27_18h55.33.528,DCT_v1_online,2021.2.3,Win32,163.132137,,,0.213,2.137,63,down,1,0.9055,left,1,0.955,2.287,0,46,46,120,1,121,incongruent,down,down,congruent,Stim/Aincon.png,down,0,-0.1,180,8,100,incongruent,left,left,congruent,Stim/Aincon.png,left,-0.1,0,90,5,2000,stimuli\\,,,,,,,,,,,,
,,,,,,,,,,lga,1,2024-06-27_18h55.33.528,DCT_v1_online,2021.2.3,Win32,163.132137,,,0.385,2.865,64,up,1,0.5185,right,1,0.516,2.115,0,47,47,7,1,8,congruent,up,up,congruent,Stim/Acon.png,up,0,0.1,0,1,1000,congruent,right,right,congruent,Stim/Acon.png,right,0.1,0,-90,4,2000,stimuli\\,,,,,,,,,,,,
,,,,,,,,,,lga,1,2024-06-27_18h55.33.528,DCT_v1_online,2021.2.3,Win32,163.132137,,,0.263,2.087,65,up,1,0.7554,left,1,0.8367,2.237,0,48,48,36,1,37,congruent,down,up,incongruent,Stim/Acon.png,up,0,-0.1,0,3,100,congruent,right,left,incongruent,Stim/Acon.png,left,0.1,0,90,3,2000,stimuli\\,,,,,,,,,,,,
,,,,,,,,,,lga,1,2024-06-27_18h55.33.528,DCT_v1_online,2021.2.3,Win32,163.132137,,,0.376,2.874,66,up,1,0.5293,left,1,0.5087,2.124,0,49,49,5,1,6,congruent,up,up,congruent,Stim/Acon.png,up,0,0.1,0,1,1000,congruent,right,left,incongruent,Stim/Acon.png,left,0.1,0,90,3,2000,stimuli\\,,,,,,,,,,,,
,,,,,,,,,,lga,1,2024-06-27_18h55.33.528,DCT_v1_online,2021.2.3,Win32,163.132137,,,0.334,2.916,67,up,1,0.4956,left,0,0.5001,2.166,0,50,50,47,1,48,congruent,down,up,incongruent,Stim/Acon.png,up,0,-0.1,0,3,1000,incongruent,right,right,congruent,Stim/Aincon.png,right,0.1,0,-90,8,2000,stimuli\\,,,,,,,,,,,,
,,,,,,,,,,lga,1,2024-06-27_18h55.33.528,DCT_v1_online,2021.2.3,Win32,163.132137,,,0.477,1.873,68,down,1,0.7411,left,1,0.8421,2.023,0,51,51,124,1,125,incongruent,down,down,congruent,Stim/Aincon.png,down,0,-0.1,180,8,100,incongruent,right,left,incongruent,Stim/Aincon.png,left,0.1,0,90,7,2000,stimuli\\,,,,,,,,,,,,
,,,,,,,,,,lga,1,2024-06-27_18h55.33.528,DCT_v1_online,2021.2.3,Win32,163.132137,,,0.484,1.866,69,down,1,1.125,left,1,1.1788,2.016,0,52,52,20,1,21,congruent,up,down,incongruent,Stim/Acon.png,down,0,0.1,180,2,100,congruent,right,left,incongruent,Stim/Acon.png,left,0.1,0,90,3,2000,stimuli\\,,,,,,,,,,,,
,,,,,,,,,,lga,1,2024-06-27_18h55.33.528,DCT_v1_online,2021.2.3,Win32,163.132137,,,0.274,2.976,70,down,1,0.643,right,1,0.5389,2.226,0,53,53,23,1,24,congruent,up,down,incongruent,Stim/Acon.png,down,0,0.1,180,2,1000,congruent,right,right,congruent,Stim/Acon.png,right,0.1,0,-90,4,2000,stimuli\\,,,,,,,,,,,,
,,,,,,,,,,lga,1,2024-06-27_18h55.33.528,DCT_v1_online,2021.2.3,Win32,163.132137,,,0.1,3.15,71,up,1,0.5326,right,1,0.4019,2.4,0,54,54,39,1,40,congruent,down,up,incongruent,Stim/Acon.png,up,0,-0.1,0,3,1000,congruent,right,right,congruent,Stim/Acon.png,right,0.1,0,-90,4,2000,stimuli\\,,,,,,,,,,,,
,,,,,,,,,,lga,1,2024-06-27_18h55.33.528,DCT_v1_online,2021.2.3,Win32,163.132137,,,0.119,2.231,72,up,1,0.7209,right,1,0.8159,2.381,0,55,55,66,1,67,incongruent,up,up,congruent,Stim/Aincon.png,up,0,0.1,0,5,100,congruent,left,right,incongruent,Stim/Acon.png,right,-0.1,0,-90,2,2000,stimuli\\,,,,,,,,,,,,
,,,,,,,,,,lga,1,2024-06-27_18h55.33.528,DCT_v1_online,2021.2.3,Win32,163.132137,,,0.354,2.896,73,down,1,0.7493,right,1,0.5777,2.146,0,56,56,91,1,92,incongruent,up,down,incongruent,Stim/Aincon.png,down,0,0.1,180,6,1000,incongruent,left,right,incongruent,Stim/Aincon.png,right,-0.1,0,-90,6,2000,stimuli\\,,,,,,,,,,,,
,,,,,,,,,,lga,1,2024-06-27_18h55.33.528,DCT_v1_online,2021.2.3,Win32,163.132137,,,0.279,2.071,74,down,1,0.6666,left,0,0.752,2.221,0,57,57,90,1,91,incongruent,up,down,incongruent,Stim/Aincon.png,down,0,0.1,180,6,100,incongruent,left,right,incongruent,Stim/Aincon.png,right,-0.1,0,-90,6,2000,stimuli\\,,,,,,,,,,,,
,,,,,,,,,,lga,1,2024-06-27_18h55.33.528,DCT_v1_online,2021.2.3,Win32,163.132137,,,0.22,2.13,75,down,1,0.8207,right,1,0.8909,2.28,0,58,58,50,1,51,congruent,down,down,congruent,Stim/Acon.png,down,0,-0.1,180,4,100,congruent,left,right,incongruent,Stim/Acon.png,right,-0.1,0,-90,2,2000,stimuli\\,,,,,,,,,,,,
,,,,,,,,,,lga,1,2024-06-27_18h55.33.528,DCT_v1_online,2021.2.3,Win32,163.132137,,,0.483,1.867,76,down,1,0.784,left,1,0.8428,2.017,0,59,59,48,1,49,congruent,down,down,congruent,Stim/Acon.png,down,0,-0.1,180,4,100,congruent,left,left,congruent,Stim/Acon.png,left,-0.1,0,90,1,2000,stimuli\\,,,,,,,,,,,,
,,,,,,,,,,lga,1,2024-06-27_18h55.33.528,DCT_v1_online,2021.2.3,Win32,163.132137,,,0.371,2.879,77,up,1,0.5746,right,1,0.5398,2.129,0,60,60,11,1,12,congruent,up,up,congruent,Stim/Acon.png,up,0,0.1,0,1,1000,incongruent,left,right,incongruent,Stim/Aincon.png,right,-0.1,0,-90,6,2000,stimuli\\,,,,,,,,,,,,
,,,,,,,,,,lga,1,2024-06-27_18h55.33.528,DCT_v1_online,2021.2.3,Win32,163.132137,,,0.072,3.178,78,up,0,0.585,right,1,0.6908,2.428,0,61,61,127,1,128,incongruent,down,down,congruent,Stim/Aincon.png,down,0,-0.1,180,8,1000,incongruent,right,right,congruent,Stim/Aincon.png,right,0.1,0,-90,8,2000,stimuli\\,,,,,,,,,,,,
,,,,,,,,,,lga,1,2024-06-27_18h55.33.528,DCT_v1_online,2021.2.3,Win32,163.132137,,,0.476,2.774,79,down,1,0.5187,left,1,0.6441,2.024,0,62,62,29,1,30,congruent,up,down,incongruent,Stim/Acon.png,down,0,0.1,180,2,1000,incongruent,right,left,incongruent,Stim/Aincon.png,left,0.1,0,90,7,2000,stimuli\\,,,,,,,,,,,,
,,,,,,,,,,lga,1,2024-06-27_18h55.33.528,DCT_v1_online,2021.2.3,Win32,163.132137,,,0.022,2.328,80,up,1,0.7259,right,1,0.9092,2.478,0,63,63,74,1,75,incongruent,up,up,congruent,Stim/Aincon.png,up,0,0.1,0,5,100,incongruent,left,right,incongruent,Stim/Aincon.png,right,-0.1,0,-90,6,2000,stimuli\\,,,,,,,,,,,,
,,,,,,,,,,lga,1,2024-06-27_18h55.33.528,DCT_v1_online,2021.2.3,Win32,163.132137,,,0.425,2.825,81,up,1,0.5762,right,1,0.5054,2.075,0,64,64,67,1,68,incongruent,up,up,congruent,Stim/Aincon.png,up,0,0.1,0,5,1000,congruent,left,right,incongruent,Stim/Acon.png,right,-0.1,0,-90,2,2000,stimuli\\,,,,,,,,,,,,
,,,,,,,,,,lga,1,2024-06-27_18h55.33.528,DCT_v1_online,2021.2.3,Win32,163.132137,,,0.199,2.151,82,up,1,0.9652,left,1,1.0154,2.301,0,65,65,108,1,109,incongruent,down,up,incongruent,Stim/Aincon.png,up,0,-0.1,0,7,100,incongruent,right,left,incongruent,Stim/Aincon.png,left,0.1,0,90,7,2000,stimuli\\,,,,,,,,,,,,
,,,,,,,,,,lga,1,2024-06-27_18h55.33.528,DCT_v1_online,2021.2.3,Win32,163.132137,,,0.194,2.156,83,down,1,0.7518,right,1,0.9029,2.306,0,66,66,62,1,63,congruent,down,down,congruent,Stim/Acon.png,down,0,-0.1,180,4,100,incongruent,right,right,congruent,Stim/Aincon.png,right,0.1,0,-90,8,2000,stimuli\\,,,,,,,,,,,,
,,,,,,,,,,lga,1,2024-06-27_18h55.33.528,DCT_v1_online,2021.2.3,Win32,163.132137,,,0.41,1.94,84,up,1,0.7281,left,1,0.819,2.09,0,67,67,12,1,13,congruent,up,up,congruent,Stim/Acon.png,up,0,0.1,0,1,100,incongruent,right,left,incongruent,Stim/Aincon.png,left,0.1,0,90,7,2000,stimuli\\,,,,,,,,,,,,
,,,,,,,,,,lga,1,2024-06-27_18h55.33.528,DCT_v1_online,2021.2.3,Win32,163.132137,,,0.396,1.954,85,down,1,0.8665,left,1,0.939,2.104,0,68,68,84,1,85,incongruent,up,down,incongruent,Stim/Aincon.png,down,0,0.1,180,6,100,congruent,right,left,incongruent,Stim/Acon.png,left,0.1,0,90,3,2000,stimuli\\,,,,,,,,,,,,
,,,,,,,,,,lga,1,2024-06-27_18h55.33.528,DCT_v1_online,2021.2.3,Win32,163.132137,,,0.094,3.156,86,down,1,0.6888,left,1,0.7336,2.406,0,69,69,25,1,26,congruent,up,down,incongruent,Stim/Acon.png,down,0,0.1,180,2,1000,incongruent,left,left,congruent,Stim/Aincon.png,left,-0.1,0,90,5,2000,stimuli\\,,,,,,,,,,,,
,,,,,,,,,,lga,1,2024-06-27_18h55.33.528,DCT_v1_online,2021.2.3,Win32,163.132137,,,0.209,2.141,87,up,1,0.6404,left,1,0.7169,2.291,0,70,70,32,1,33,congruent,down,up,incongruent,Stim/Acon.png,up,0,-0.1,0,3,100,congruent,left,left,congruent,Stim/Acon.png,left,-0.1,0,90,1,2000,stimuli\\,,,,,,,,,,,,
,,,,,,,,,,lga,1,2024-06-27_18h55.33.528,DCT_v1_online,2021.2.3,Win32,163.132137,,,0.139,2.211,88,up,1,0.6468,right,1,0.7221,2.361,0,71,71,38,1,39,congruent,down,up,incongruent,Stim/Acon.png,up,0,-0.1,0,3,100,congruent,right,right,congruent,Stim/Acon.png,right,0.1,0,-90,4,2000,stimuli\\,,,,,,,,,,,,
,,,,,,,,,,lga,1,2024-06-27_18h55.33.528,DCT_v1_online,2021.2.3,Win32,163.132137,,,0.157,3.093,89,down,1,0.6106,right,1,0.4989,2.343,0,72,72,119,1,120,incongruent,down,down,congruent,Stim/Aincon.png,down,0,-0.1,180,8,1000,congruent,right,right,congruent,Stim/Acon.png,right,0.1,0,-90,4,2000,stimuli\\,,,,,,,,,,,,
,,,,,,,,,,lga,1,2024-06-27_18h55.33.528,DCT_v1_online,2021.2.3,Win32,163.132137,,,0.268,2.082,90,down,1,0.8142,left,0,0.9007,2.232,0,73,73,94,1,95,incongruent,up,down,incongruent,Stim/Aincon.png,down,0,0.1,180,6,100,incongruent,right,right,congruent,Stim/Aincon.png,right,0.1,0,-90,8,2000,stimuli\\,,,,,,,,,,,,
,,,,,,,,,,lga,1,2024-06-27_18h55.33.528,DCT_v1_online,2021.2.3,Win32,163.132137,,,0.374,1.976,91,down,1,0.8724,right,1,0.9584,2.126,0,74,74,122,1,123,incongruent,down,down,congruent,Stim/Aincon.png,down,0,-0.1,180,8,100,incongruent,left,right,incongruent,Stim/Aincon.png,right,-0.1,0,-90,6,2000,stimuli\\,,,,,,,,,,,,
,,,,,,,,,,lga,1,2024-06-27_18h55.33.528,DCT_v1_online,2021.2.3,Win32,163.132137,,,0.114,3.136,92,up,1,0.5143,left,1,0.5955,2.386,0,75,75,13,1,14,congruent,up,up,congruent,Stim/Acon.png,up,0,0.1,0,1,1000,incongruent,right,left,incongruent,Stim/Aincon.png,left,0.1,0,90,7,2000,stimuli\\,,,,,,,,,,,,
,,,,,,,,,,lga,1,2024-06-27_18h55.33.528,DCT_v1_online,2021.2.3,Win32,163.132137,,,0.361,1.989,93,up,1,0.6666,left,1,0.7643,2.139,0,76,76,40,1,41,congruent,down,up,incongruent,Stim/Acon.png,up,0,-0.1,0,3,100,incongruent,left,left,congruent,Stim/Aincon.png,left,-0.1,0,90,5,2000,stimuli\\,,,,,,,,,,,,
,,,,,,,,,,lga,1,2024-06-27_18h55.33.528,DCT_v1_online,2021.2.3,Win32,163.132137,,,0.284,2.066,94,down,1,0.6978,right,1,0.788,2.216,0,77,77,54,1,55,congruent,down,down,congruent,Stim/Acon.png,down,0,-0.1,180,4,100,congruent,right,right,congruent,Stim/Acon.png,right,0.1,0,-90,4,2000,stimuli\\,,,,,,,,,,,,
,,,,,,,,,,lga,1,2024-06-27_18h55.33.528,DCT_v1_online,2021.2.3,Win32,163.132137,,,0.14,3.11,95,down,0,0.5694,right,1,0.4992,2.36,0,78,78,103,1,104,incongruent,down,up,incongruent,Stim/Aincon.png,up,0,-0.1,0,7,1000,congruent,right,right,congruent,Stim/Acon.png,right,0.1,0,-90,4,2000,stimuli\\,,,,,,,,,,,,
,,,,,,,,,,lga,1,2024-06-27_18h55.33.528,DCT_v1_online,2021.2.3,Win32,163.132137,,,0.139,3.111,96,down,1,0.5696,left,1,0.4786,2.361,0,79,79,53,1,54,congruent,down,down,congruent,Stim/Acon.png,down,0,-0.1,180,4,1000,congruent,right,left,incongruent,Stim/Acon.png,left,0.1,0,90,3,2000,stimuli\\,,,,,,,,,,,,
,,,,,,,,,,lga,1,2024-06-27_18h55.33.528,DCT_v1_online,2021.2.3,Win32,163.132137,,,0.03,3.22,97,down,1,0.6179,left,1,0.5965,2.47,0,80,80,93,1,94,incongruent,up,down,incongruent,Stim/Aincon.png,down,0,0.1,180,6,1000,incongruent,right,left,incongruent,Stim/Aincon.png,left,0.1,0,90,7,2000,stimuli\\,,,,,,,,,,,,
,,,,,,,,,,lga,1,2024-06-27_18h55.33.528,DCT_v1_online,2021.2.3,Win32,163.132137,,,0.118,2.232,98,up,1,0.9212,left,1,1.039,2.382,0,81,81,96,1,97,incongruent,down,up,incongruent,Stim/Aincon.png,up,0,-0.1,0,7,100,congruent,left,left,congruent,Stim/Acon.png,left,-0.1,0,90,1,2000,stimuli\\,,,,,,,,,,,,
,,,,,,,,,,lga,1,2024-06-27_18h55.33.528,DCT_v1_online,2021.2.3,Win32,163.132137,,,0.245,3.005,99,down,1,0.7852,right,0,0.4656,2.255,0,82,82,125,1,126,incongruent,down,down,congruent,Stim/Aincon.png,down,0,-0.1,180,8,1000,incongruent,right,left,incongruent,Stim/Aincon.png,left,0.1,0,90,7,2000,stimuli\\,,,,,,,,,,,,
,,,,,,,,,,lga,1,2024-06-27_18h55.33.528,DCT_v1_online,2021.2.3,Win32,163.132137,,,0.198,3.052,100,up,1,0.7613,left,1,0.5922,2.302,0,83,83,109,1,110,incongruent,down,up,incongruent,Stim/Aincon.png,up,0,-0.1,0,7,1000,incongruent,right,left,incongruent,Stim/Aincon.png,left,0.1,0,90,7,2000,stimuli\\,,,,,,,,,,,,
,,,,,,,,,,lga,1,2024-06-27_18h55.33.528,DCT_v1_online,2021.2.3,Win32,163.132137,,,0.021,2.329,101,up,1,0.7391,left,1,1.0559,2.479,0,84,84,104,1,105,incongruent,down,up,incongruent,Stim/Aincon.png,up,0,-0.1,0,7,100,incongruent,left,left,congruent,Stim/Aincon.png,left,-0.1,0,90,5,2000,stimuli\\,,,,,,,,,,,,
,,,,,,,,,,lga,1,2024-06-27_18h55.33.528,DCT_v1_online,2021.2.3,Win32,163.132137,,,0.495,1.855,102,down,1,0.7502,right,1,0.8202,2.005,0,85,85,18,1,19,congruent,up,down,incongruent,Stim/Acon.png,down,0,0.1,180,2,100,congruent,left,right,incongruent,Stim/Acon.png,right,-0.1,0,-90,2,2000,stimuli\\,,,,,,,,,,,,
,,,,,,,,,,lga,1,2024-06-27_18h55.33.528,DCT_v1_online,2021.2.3,Win32,163.132137,,,0.18,3.07,103,up,1,0.4792,left,1,0.4626,2.32,0,86,86,9,1,10,congruent,up,up,congruent,Stim/Acon.png,up,0,0.1,0,1,1000,incongruent,left,left,congruent,Stim/Aincon.png,left,-0.1,0,90,5,2000,stimuli\\,,,,,,,,,,,,
,,,,,,,,,,lga,1,2024-06-27_18h55.33.528,DCT_v1_online,2021.2.3,Win32,163.132137,,,0.064,2.286,104,up,1,0.6612,right,1,0.7589,2.436,0,87,87,6,1,7,congruent,up,up,congruent,Stim/Acon.png,up,0,0.1,0,1,100,congruent,right,right,congruent,Stim/Acon.png,right,0.1,0,-90,4,2000,stimuli\\,,,,,,,,,,,,
,,,,,,,,,,lga,1,2024-06-27_18h55.33.528,DCT_v1_online,2021.2.3,Win32,163.132137,,,0.078,3.172,105,down,1,0.6603,left,1,0.453,2.422,0,88,88,81,1,82,incongruent,up,down,incongruent,Stim/Aincon.png,down,0,0.1,180,6,1000,congruent,left,left,congruent,Stim/Acon.png,left,-0.1,0,90,1,2000,stimuli\\,,,,,,,,,,,,
,,,,,,,,,,lga,1,2024-06-27_18h55.33.528,DCT_v1_online,2021.2.3,Win32,163.132137,,,0.263,2.087,106,down,1,0.7237,right,1,0.8284,2.237,0,89,89,118,1,119,incongruent,down,down,congruent,Stim/Aincon.png,down,0,-0.1,180,8,100,congruent,right,right,congruent,Stim/Acon.png,right,0.1,0,-90,4,2000,stimuli\\,,,,,,,,,,,,
,,,,,,,,,,lga,1,2024-06-27_18h55.33.528,DCT_v1_online,2021.2.3,Win32,163.132137,,,0.112,3.138,107,down,1,0.5248,right,0,0.4604,2.388,0,90,90,57,1,58,congruent,down,down,congruent,Stim/Acon.png,down,0,-0.1,180,4,1000,incongruent,left,left,congruent,Stim/Aincon.png,left,-0.1,0,90,5,2000,stimuli\\,,,,,,,,,,,,
,,,,,,,,,,lga,1,2024-06-27_18h55.33.528,DCT_v1_online,2021.2.3,Win32,163.132137,,,0.4,2.85,108,up,1,0.7336,left,1,0.5845,2.1,0,91,91,73,1,74,incongruent,up,up,congruent,Stim/Aincon.png,up,0,0.1,0,5,1000,incongruent,left,left,congruent,Stim/Aincon.png,left,-0.1,0,90,5,2000,stimuli\\,,,,,,,,,,,,
,,,,,,,,,,lga,1,2024-06-27_18h55.33.528,DCT_v1_online,2021.2.3,Win32,163.132137,,,0.299,2.951,109,down,1,0.6363,right,1,0.4615,2.201,0,92,92,115,1,116,incongruent,down,down,congruent,Stim/Aincon.png,down,0,-0.1,180,8,1000,congruent,left,right,incongruent,Stim/Acon.png,right,-0.1,0,-90,2,2000,stimuli\\,,,,,,,,,,,,
,,,,,,,,,,lga,1,2024-06-27_18h55.33.528,DCT_v1_online,2021.2.3,Win32,163.132137,,,0.404,1.946,110,up,1,0.7616,right,1,0.8567,2.096,0,93,93,2,1,3,congruent,up,up,congruent,Stim/Acon.png,up,0,0.1,0,1,100,congruent,left,right,incongruent,Stim/Acon.png,right,-0.1,0,-90,2,2000,stimuli\\,,,,,,,,,,,,
,,,,,,,,,,lga,1,2024-06-27_18h55.33.528,DCT_v1_online,2021.2.3,Win32,163.132137,,,0.316,2.934,111,up,1,0.6157,left,1,0.5781,2.184,0,94,94,41,1,42,congruent,down,up,incongruent,Stim/Acon.png,up,0,-0.1,0,3,1000,incongruent,left,left,congruent,Stim/Aincon.png,left,-0.1,0,90,5,2000,stimuli\\,,,,,,,,,,,,
,,,,,,,,,,lga,1,2024-06-27_18h55.33.528,DCT_v1_online,2021.2.3,Win32,163.132137,,,0.342,2.908,112,down,1,0.6613,left,1,0.4951,2.158,0,95,95,117,1,118,incongruent,down,down,congruent,Stim/Aincon.png,down,0,-0.1,180,8,1000,congruent,right,left,incongruent,Stim/Acon.png,left,0.1,0,90,3,2000,stimuli\\,,,,,,,,,,,,
,,,,,,,,,,lga,1,2024-06-27_18h55.33.528,DCT_v1_online,2021.2.3,Win32,163.132137,,,0.322,2.928,113,down,1,0.6251,left,1,0.5456,2.178,0,96,96,113,1,114,incongruent,down,down,congruent,Stim/Aincon.png,down,0,-0.1,180,8,1000,congruent,left,left,congruent,Stim/Acon.png,left,-0.1,0,90,1,2000,stimuli\\,,,,,,,,,,,,
,,,,,,,,,,lga,1,2024-06-27_18h55.33.528,DCT_v1_online,2021.2.3,Win32,163.132137,,,0.231,3.019,114,up,1,0.5225,left,1,0.4397,2.269,0,97,97,1,1,2,congruent,up,up,congruent,Stim/Acon.png,up,0,0.1,0,1,1000,congruent,left,left,congruent,Stim/Acon.png,left,-0.1,0,90,1,2000,stimuli\\,,,,,,,,,,,,
,,,,,,,,,,lga,1,2024-06-27_18h55.33.528,DCT_v1_online,2021.2.3,Win32,163.132137,,,0.198,3.052,115,down,1,0.5837,right,1,0.4794,2.302,0,98,98,51,1,52,congruent,down,down,congruent,Stim/Acon.png,down,0,-0.1,180,4,1000,congruent,left,right,incongruent,Stim/Acon.png,right,-0.1,0,-90,2,2000,stimuli\\,,,,,,,,,,,,
,,,,,,,,,,lga,1,2024-06-27_18h55.33.528,DCT_v1_online,2021.2.3,Win32,163.132137,,,0.086,3.164,116,down,0,0.4753,right,1,0.5043,2.414,0,99,99,71,1,72,incongruent,up,up,congruent,Stim/Aincon.png,up,0,0.1,0,5,1000,congruent,right,right,congruent,Stim/Acon.png,right,0.1,0,-90,4,2000,stimuli\\,,,,,,,,,,,,
,,,,,,,,,,lga,1,2024-06-27_18h55.33.528,DCT_v1_online,2021.2.3,Win32,163.132137,,,0.052,3.198,117,down,0,0.5221,right,1,0.6027,2.448,0,100,100,99,1,100,incongruent,down,up,incongruent,Stim/Aincon.png,up,0,-0.1,0,7,1000,congruent,left,right,incongruent,Stim/Acon.png,right,-0.1,0,-90,2,2000,stimuli\\,,,,,,,,,,,,
,,,,,,,,,,lga,1,2024-06-27_18h55.33.528,DCT_v1_online,2021.2.3,Win32,163.132137,,,0.164,2.186,118,up,1,0.7135,right,1,0.8875,2.336,0,101,101,14,1,15,congruent,up,up,congruent,Stim/Acon.png,up,0,0.1,0,1,100,incongruent,right,right,congruent,Stim/Aincon.png,right,0.1,0,-90,8,2000,stimuli\\,,,,,,,,,,,,
,,,,,,,,,,lga,1,2024-06-27_18h55.33.528,DCT_v1_online,2021.2.3,Win32,163.132137,,,0.308,2.942,119,down,1,0.5877,left,1,0.527,2.192,0,102,102,17,1,18,congruent,up,down,incongruent,Stim/Acon.png,down,0,0.1,180,2,1000,congruent,left,left,congruent,Stim/Acon.png,left,-0.1,0,90,1,2000,stimuli\\,,,,,,,,,,,,
,,,,,,,,,,lga,1,2024-06-27_18h55.33.528,DCT_v1_online,2021.2.3,Win32,163.132137,,,0.307,2.943,120,up,1,0.6029,right,1,0.7131,2.193,0,103,103,15,1,16,congruent,up,up,congruent,Stim/Acon.png,up,0,0.1,0,1,1000,incongruent,right,right,congruent,Stim/Aincon.png,right,0.1,0,-90,8,2000,stimuli\\,,,,,,,,,,,,
,,,,,,,,,,lga,1,2024-06-27_18h55.33.528,DCT_v1_online,2021.2.3,Win32,163.132137,,,0.261,2.089,121,up,1,0.7814,right,1,0.9069,2.239,0,104,104,102,1,103,incongruent,down,up,incongruent,Stim/Aincon.png,up,0,-0.1,0,7,100,congruent,right,right,congruent,Stim/Acon.png,right,0.1,0,-90,4,2000,stimuli\\,,,,,,,,,,,,
,,,,,,,,,,lga,1,2024-06-27_18h55.33.528,DCT_v1_online,2021.2.3,Win32,163.132137,,,0.151,3.099,122,down,1,0.5989,left,1,0.5411,2.349,0,105,105,89,1,90,incongruent,up,down,incongruent,Stim/Aincon.png,down,0,0.1,180,6,1000,incongruent,left,left,congruent,Stim/Aincon.png,left,-0.1,0,90,5,2000,stimuli\\,,,,,,,,,,,,
,,,,,,,,,,lga,1,2024-06-27_18h55.33.528,DCT_v1_online,2021.2.3,Win32,163.132137,,,0.297,2.053,123,up,1,0.693,right,1,0.838,2.203,0,106,106,70,1,71,incongruent,up,up,congruent,Stim/Aincon.png,up,0,0.1,0,5,100,congruent,right,right,congruent,Stim/Acon.png,right,0.1,0,-90,4,2000,stimuli\\,,,,,,,,,,,,
,,,,,,,,,,lga,1,2024-06-27_18h55.33.528,DCT_v1_online,2021.2.3,Win32,163.132137,,,0.292,2.958,124,up,1,0.6625,left,1,0.4689,2.208,0,107,107,69,1,70,incongruent,up,up,congruent,Stim/Aincon.png,up,0,0.1,0,5,1000,congruent,right,left,incongruent,Stim/Acon.png,left,0.1,0,90,3,2000,stimuli\\,,,,,,,,,,,,
,,,,,,,,,,lga,1,2024-06-27_18h55.33.528,DCT_v1_online,2021.2.3,Win32,163.132137,,,0.187,3.063,125,down,1,0.5522,right,1,0.5823,2.313,0,108,108,95,1,96,incongruent,up,down,incongruent,Stim/Aincon.png,down,0,0.1,180,6,1000,incongruent,right,right,congruent,Stim/Aincon.png,right,0.1,0,-90,8,2000,stimuli\\,,,,,,,,,,,,
,,,,,,,,,,lga,1,2024-06-27_18h55.33.528,DCT_v1_online,2021.2.3,Win32,163.132137,,,0.065,2.285,126,up,1,0.6018,left,1,0.728,2.435,0,109,109,68,1,69,incongruent,up,up,congruent,Stim/Aincon.png,up,0,0.1,0,5,100,congruent,right,left,incongruent,Stim/Acon.png,left,0.1,0,90,3,2000,stimuli\\,,,,,,,,,,,,
,,,,,,,,,,lga,1,2024-06-27_18h55.33.528,DCT_v1_online,2021.2.3,Win32,163.132137,,,0.311,2.039,127,up,1,0.757,right,1,0.8827,2.189,0,110,110,34,1,35,congruent,down,up,incongruent,Stim/Acon.png,up,0,-0.1,0,3,100,congruent,left,right,incongruent,Stim/Acon.png,right,-0.1,0,-90,2,2000,stimuli\\,,,,,,,,,,,,
,,,,,,,,,,lga,1,2024-06-27_18h55.33.528,DCT_v1_online,2021.2.3,Win32,163.132137,,,0.254,2.996,128,up,1,0.5545,left,1,0.4207,2.246,0,111,111,65,1,66,incongruent,up,up,congruent,Stim/Aincon.png,up,0,0.1,0,5,1000,congruent,left,left,congruent,Stim/Acon.png,left,-0.1,0,90,1,2000,stimuli\\,,,,,,,,,,,,
,,,,,,,,,,lga,1,2024-06-27_18h55.33.528,DCT_v1_online,2021.2.3,Win32,163.132137,,,0.219,2.131,129,up,1,0.62,left,1,0.735,2.281,0,112,112,4,1,5,congruent,up,up,congruent,Stim/Acon.png,up,0,0.1,0,1,100,congruent,right,left,incongruent,Stim/Acon.png,left,0.1,0,90,3,2000,stimuli\\,,,,,,,,,,,,
,,,,,,,,,,lga,1,2024-06-27_18h55.33.528,DCT_v1_online,2021.2.3,Win32,163.132137,,,0.45,2.8,130,up,1,0.534,left,1,0.5093,2.05,0,113,113,33,1,34,congruent,down,up,incongruent,Stim/Acon.png,up,0,-0.1,0,3,1000,congruent,left,left,congruent,Stim/Acon.png,left,-0.1,0,90,1,2000,stimuli\\,,,,,,,,,,,,
,,,,,,,,,,lga,1,2024-06-27_18h55.33.528,DCT_v1_online,2021.2.3,Win32,163.132137,,,0.347,2.903,131,up,0,0.513,right,1,0.5099,2.153,0,114,114,19,1,20,congruent,up,down,incongruent,Stim/Acon.png,down,0,0.1,180,2,1000,congruent,left,right,incongruent,Stim/Acon.png,right,-0.1,0,-90,2,2000,stimuli\\,,,,,,,,,,,,
,,,,,,,,,,lga,1,2024-06-27_18h55.33.528,DCT_v1_online,2021.2.3,Win32,163.132137,,,0.456,1.894,132,up,1,0.7056,left,1,0.842,2.044,0,115,115,64,1,65,incongruent,up,up,congruent,Stim/Aincon.png,up,0,0.1,0,5,100,congruent,left,left,congruent,Stim/Acon.png,left,-0.1,0,90,1,2000,stimuli\\,,,,,,,,,,,,
,,,,,,,,,,lga,1,2024-06-27_18h55.33.528,DCT_v1_online,2021.2.3,Win32,163.132137,,,0.227,3.023,133,down,1,0.5614,left,0,0.4906,2.273,0,116,116,31,1,32,congruent,up,down,incongruent,Stim/Acon.png,down,0,0.1,180,2,1000,incongruent,right,right,congruent,Stim/Aincon.png,right,0.1,0,-90,8,2000,stimuli\\,,,,,,,,,,,,
,,,,,,,,,,lga,1,2024-06-27_18h55.33.528,DCT_v1_online,2021.2.3,Win32,163.132137,,,0.449,1.901,134,down,1,0.932,left,1,0.9947,2.051,0,117,117,56,1,57,congruent,down,down,congruent,Stim/Acon.png,down,0,-0.1,180,4,100,incongruent,left,left,congruent,Stim/Aincon.png,left,-0.1,0,90,5,2000,stimuli\\,,,,,,,,,,,,
,,,,,,,,,,lga,1,2024-06-27_18h55.33.528,DCT_v1_online,2021.2.3,Win32,163.132137,,,0.025,2.325,135,up,1,0.5487,left,1,0.6144,2.475,0,118,118,0,1,1,congruent,up,up,congruent,Stim/Acon.png,up,0,0.1,0,1,100,congruent,left,left,congruent,Stim/Acon.png,left,-0.1,0,90,1,2000,stimuli\\,,,,,,,,,,,,
,,,,,,,,,,lga,1,2024-06-27_18h55.33.528,DCT_v1_online,2021.2.3,Win32,163.132137,,,0.306,2.044,136,down,1,0.7264,left,1,0.7733,2.194,0,119,119,92,1,93,incongruent,up,down,incongruent,Stim/Aincon.png,down,0,0.1,180,6,100,incongruent,right,left,incongruent,Stim/Aincon.png,left,0.1,0,90,7,2000,stimuli\\,,,,,,,,,,,,
,,,,,,,,,,lga,1,2024-06-27_18h55.33.528,DCT_v1_online,2021.2.3,Win32,163.132137,,,0.37,2.88,137,down,1,0.6241,left,1,0.4841,2.13,0,120,120,49,1,50,congruent,down,down,congruent,Stim/Acon.png,down,0,-0.1,180,4,1000,congruent,left,left,congruent,Stim/Acon.png,left,-0.1,0,90,1,2000,stimuli\\,,,,,,,,,,,,
,,,,,,,,,,lga,1,2024-06-27_18h55.33.528,DCT_v1_online,2021.2.3,Win32,163.132137,,,0.444,1.906,138,down,1,0.6671,right,1,0.8459,2.056,0,121,121,30,1,31,congruent,up,down,incongruent,Stim/Acon.png,down,0,0.1,180,2,100,incongruent,right,right,congruent,Stim/Aincon.png,right,0.1,0,-90,8,2000,stimuli\\,,,,,,,,,,,,
,,,,,,,,,,lga,1,2024-06-27_18h55.33.528,DCT_v1_online,2021.2.3,Win32,163.132137,,,0.153,2.197,139,down,1,0.6141,right,1,0.8101,2.347,0,122,122,26,1,27,congruent,up,down,incongruent,Stim/Acon.png,down,0,0.1,180,2,100,incongruent,left,right,incongruent,Stim/Aincon.png,right,-0.1,0,-90,6,2000,stimuli\\,,,,,,,,,,,,
,,,,,,,,,,lga,1,2024-06-27_18h55.33.528,DCT_v1_online,2021.2.3,Win32,163.132137,,,0.353,1.997,140,down,1,0.5347,left,1,0.728,2.147,0,123,123,24,1,25,congruent,up,down,incongruent,Stim/Acon.png,down,0,0.1,180,2,100,incongruent,left,left,congruent,Stim/Aincon.png,left,-0.1,0,90,5,2000,stimuli\\,,,,,,,,,,,,
,,,,,,,,,,lga,1,2024-06-27_18h55.33.528,DCT_v1_online,2021.2.3,Win32,163.132137,,,0.353,2.897,141,up,1,0.5587,left,1,0.4819,2.147,0,124,124,37,1,38,congruent,down,up,incongruent,Stim/Acon.png,up,0,-0.1,0,3,1000,congruent,right,left,incongruent,Stim/Acon.png,left,0.1,0,90,3,2000,stimuli\\,,,,,,,,,,,,
,,,,,,,,,,lga,1,2024-06-27_18h55.33.528,DCT_v1_online,2021.2.3,Win32,163.132137,,,0.116,3.134,142,down,1,0.6238,right,1,0.4556,2.384,0,125,125,87,1,88,incongruent,up,down,incongruent,Stim/Aincon.png,down,0,0.1,180,6,1000,congruent,right,right,congruent,Stim/Acon.png,right,0.1,0,-90,4,2000,stimuli\\,,,,,,,,,,,,
,,,,,,,,,,lga,1,2024-06-27_18h55.33.528,DCT_v1_online,2021.2.3,Win32,163.132137,,,0.35,2,143,down,1,0.8166,left,1,0.8776,2.15,0,126,126,88,1,89,incongruent,up,down,incongruent,Stim/Aincon.png,down,0,0.1,180,6,100,incongruent,left,left,congruent,Stim/Aincon.png,left,-0.1,0,90,5,2000,stimuli\\,,,,,,,,,,,,
,,,,,,,,,,lga,1,2024-06-27_18h55.33.528,DCT_v1_online,2021.2.3,Win32,163.132137,,,0.041,2.309,144,down,1,0.6228,right,1,0.7054,2.459,0,127,127,22,1,23,congruent,up,down,incongruent,Stim/Acon.png,down,0,0.1,180,2,100,congruent,right,right,congruent,Stim/Acon.png,right,0.1,0,-90,4,2000,stimuli\\,,,,,,,,,,,,
,,,,,,,,,,lga,1,2024-06-27_18h55.33.528,DCT_v1_online,2021.2.3,Win32,163.132137,,,,,,,,,,,,,,,,,,,,,,,,,,,,,,,,,,,,,,,,,,space,4.3246,0,1,1,1,1,Instructions/i5.png,test,conditions/block1.xlsx,1.2,0.8
,,,,,,,,,,lga,1,2024-06-27_18h55.33.528,DCT_v1_online,2021.2.3,Win32,163.132137,space,13.467,0.02,3.23,145,up,1,0.7177,left,1,0.5092,2.48,0,0,0,69,1,70,incongruent,up,up,congruent,Stim/Aincon.png,up,0,0.1,0,5,1000,congruent,right,left,incongruent,Stim/Acon.png,left,0.1,0,90,3,2000,stimuli\\,,,,,,,,,,,,
,,,,,,,,,,lga,1,2024-06-27_18h55.33.528,DCT_v1_online,2021.2.3,Win32,163.132137,,,0.012,3.238,146,down,1,0.5459,left,1,0.5081,2.488,0,1,1,53,1,54,congruent,down,down,congruent,Stim/Acon.png,down,0,-0.1,180,4,1000,congruent,right,left,incongruent,Stim/Acon.png,left,0.1,0,90,3,2000,stimuli\\,,,,,,,,,,,,
,,,,,,,,,,lga,1,2024-06-27_18h55.33.528,DCT_v1_online,2021.2.3,Win32,163.132137,,,0.246,2.104,147,down,1,0.7021,right,1,0.8269,2.254,0,2,2,26,1,27,congruent,up,down,incongruent,Stim/Acon.png,down,0,0.1,180,2,100,incongruent,left,right,incongruent,Stim/Aincon.png,right,-0.1,0,-90,6,2000,stimuli\\,,,,,,,,,,,,
,,,,,,,,,,lga,1,2024-06-27_18h55.33.528,DCT_v1_online,2021.2.3,Win32,163.132137,,,0.334,2.016,148,up,1,0.9844,left,1,1.0608,2.166,0,3,3,96,1,97,incongruent,down,up,incongruent,Stim/Aincon.png,up,0,-0.1,0,7,100,congruent,left,left,congruent,Stim/Acon.png,left,-0.1,0,90,1,2000,stimuli\\,,,,,,,,,,,,
,,,,,,,,,,lga,1,2024-06-27_18h55.33.528,DCT_v1_online,2021.2.3,Win32,163.132137,,,0.114,2.236,149,up,1,0.7915,left,1,0.8912,2.386,0,4,4,76,1,77,incongruent,up,up,congruent,Stim/Aincon.png,up,0,0.1,0,5,100,incongruent,right,left,incongruent,Stim/Aincon.png,left,0.1,0,90,7,2000,stimuli\\,,,,,,,,,,,,
,,,,,,,,,,lga,1,2024-06-27_18h55.33.528,DCT_v1_online,2021.2.3,Win32,163.132137,,,0.118,3.132,150,up,1,0.419,left,1,0.4272,2.382,0,5,5,5,1,6,congruent,up,up,congruent,Stim/Acon.png,up,0,0.1,0,1,1000,congruent,right,left,incongruent,Stim/Acon.png,left,0.1,0,90,3,2000,stimuli\\,,,,,,,,,,,,
,,,,,,,,,,lga,1,2024-06-27_18h55.33.528,DCT_v1_online,2021.2.3,Win32,163.132137,,,0.275,2.975,151,down,1,0.4927,right,1,0.487,2.225,0,6,6,23,1,24,congruent,up,down,incongruent,Stim/Acon.png,down,0,0.1,180,2,1000,congruent,right,right,congruent,Stim/Acon.png,right,0.1,0,-90,4,2000,stimuli\\,,,,,,,,,,,,
,,,,,,,,,,lga,1,2024-06-27_18h55.33.528,DCT_v1_online,2021.2.3,Win32,163.132137,,,0.262,2.088,152,up,1,0.6786,left,1,0.7639,2.238,0,7,7,8,1,9,congruent,up,up,congruent,Stim/Acon.png,up,0,0.1,0,1,100,incongruent,left,left,congruent,Stim/Aincon.png,left,-0.1,0,90,5,2000,stimuli\\,,,,,,,,,,,,
,,,,,,,,,,lga,1,2024-06-27_18h55.33.528,DCT_v1_online,2021.2.3,Win32,163.132137,,,0.129,2.221,153,up,1,0.5444,left,1,0.5852,2.371,0,8,8,0,1,1,congruent,up,up,congruent,Stim/Acon.png,up,0,0.1,0,1,100,congruent,left,left,congruent,Stim/Acon.png,left,-0.1,0,90,1,2000,stimuli\\,,,,,,,,,,,,
,,,,,,,,,,lga,1,2024-06-27_18h55.33.528,DCT_v1_online,2021.2.3,Win32,163.132137,,,0.4,1.95,154,up,1,0.7838,left,1,0.8873,2.1,0,9,9,40,1,41,congruent,down,up,incongruent,Stim/Acon.png,up,0,-0.1,0,3,100,incongruent,left,left,congruent,Stim/Aincon.png,left,-0.1,0,90,5,2000,stimuli\\,,,,,,,,,,,,
,,,,,,,,,,lga,1,2024-06-27_18h55.33.528,DCT_v1_online,2021.2.3,Win32,163.132137,,,0.037,3.213,155,up,1,0.7539,left,1,0.6175,2.463,0,10,10,105,1,106,incongruent,down,up,incongruent,Stim/Aincon.png,up,0,-0.1,0,7,1000,incongruent,left,left,congruent,Stim/Aincon.png,left,-0.1,0,90,5,2000,stimuli\\,,,,,,,,,,,,
,,,,,,,,,,lga,1,2024-06-27_18h55.33.528,DCT_v1_online,2021.2.3,Win32,163.132137,,,0.17,3.08,156,down,1,0.6675,left,1,0.6183,2.33,0,11,11,93,1,94,incongruent,up,down,incongruent,Stim/Aincon.png,down,0,0.1,180,6,1000,incongruent,right,left,incongruent,Stim/Aincon.png,left,0.1,0,90,7,2000,stimuli\\,,,,,,,,,,,,
,,,,,,,,,,lga,1,2024-06-27_18h55.33.528,DCT_v1_online,2021.2.3,Win32,163.132137,,,0.38,2.87,157,down,1,0.5194,right,1,0.648,2.12,0,12,12,91,1,92,incongruent,up,down,incongruent,Stim/Aincon.png,down,0,0.1,180,6,1000,incongruent,left,right,incongruent,Stim/Aincon.png,right,-0.1,0,-90,6,2000,stimuli\\,,,,,,,,,,,,
,,,,,,,,,,lga,1,2024-06-27_18h55.33.528,DCT_v1_online,2021.2.3,Win32,163.132137,,,0.132,2.218,158,up,1,1.0147,right,1,1.2215,2.368,0,13,13,106,1,107,incongruent,down,up,incongruent,Stim/Aincon.png,up,0,-0.1,0,7,100,incongruent,left,right,incongruent,Stim/Aincon.png,right,-0.1,0,-90,6,2000,stimuli\\,,,,,,,,,,,,
,,,,,,,,,,lga,1,2024-06-27_18h55.33.528,DCT_v1_online,2021.2.3,Win32,163.132137,,,0.487,2.763,159,up,1,0.6612,right,1,0.7035,2.013,0,14,14,111,1,112,incongruent,down,up,incongruent,Stim/Aincon.png,up,0,-0.1,0,7,1000,incongruent,right,right,congruent,Stim/Aincon.png,right,0.1,0,-90,8,2000,stimuli\\,,,,,,,,,,,,
,,,,,,,,,,lga,1,2024-06-27_18h55.33.528,DCT_v1_online,2021.2.3,Win32,163.132137,,,0.158,3.092,160,down,1,0.6616,left,1,0.6283,2.342,0,15,15,125,1,126,incongruent,down,down,congruent,Stim/Aincon.png,down,0,-0.1,180,8,1000,incongruent,right,left,incongruent,Stim/Aincon.png,left,0.1,0,90,7,2000,stimuli\\,,,,,,,,,,,,
,,,,,,,,,,lga,1,2024-06-27_18h55.33.528,DCT_v1_online,2021.2.3,Win32,163.132137,,,0.196,2.154,161,down,1,0.7637,right,1,0.9192,2.304,0,16,16,118,1,119,incongruent,down,down,congruent,Stim/Aincon.png,down,0,-0.1,180,8,100,congruent,right,right,congruent,Stim/Acon.png,right,0.1,0,-90,4,2000,stimuli\\,,,,,,,,,,,,
,,,,,,,,,,lga,1,2024-06-27_18h55.33.528,DCT_v1_online,2021.2.3,Win32,163.132137,,,0.357,1.993,162,down,1,0.7648,right,1,0.9447,2.143,0,17,17,90,1,91,incongruent,up,down,incongruent,Stim/Aincon.png,down,0,0.1,180,6,100,incongruent,left,right,incongruent,Stim/Aincon.png,right,-0.1,0,-90,6,2000,stimuli\\,,,,,,,,,,,,
,,,,,,,,,,lga,1,2024-06-27_18h55.33.528,DCT_v1_online,2021.2.3,Win32,163.132137,,,0.006,3.244,163,up,1,0.5826,right,1,0.46,2.494,0,18,18,7,1,8,congruent,up,up,congruent,Stim/Acon.png,up,0,0.1,0,1,1000,congruent,right,right,congruent,Stim/Acon.png,right,0.1,0,-90,4,2000,stimuli\\,,,,,,,,,,,,
,,,,,,,,,,lga,1,2024-06-27_18h55.33.528,DCT_v1_online,2021.2.3,Win32,163.132137,,,0.031,3.219,164,up,1,0.4828,right,1,0.595,2.469,0,19,19,79,1,80,incongruent,up,up,congruent,Stim/Aincon.png,up,0,0.1,0,5,1000,incongruent,right,right,congruent,Stim/Aincon.png,right,0.1,0,-90,8,2000,stimuli\\,,,,,,,,,,,,
,,,,,,,,,,lga,1,2024-06-27_18h55.33.528,DCT_v1_online,2021.2.3,Win32,163.132137,,,0.257,2.093,165,down,1,0.8999,right,1,1.0977,2.243,0,20,20,58,1,59,congruent,down,down,congruent,Stim/Acon.png,down,0,-0.1,180,4,100,incongruent,left,right,incongruent,Stim/Aincon.png,right,-0.1,0,-90,6,2000,stimuli\\,,,,,,,,,,,,
,,,,,,,,,,lga,1,2024-06-27_18h55.33.528,DCT_v1_online,2021.2.3,Win32,163.132137,,,0.439,2.811,166,down,1,0.5948,left,1,0.4556,2.061,0,21,21,81,1,82,incongruent,up,down,incongruent,Stim/Aincon.png,down,0,0.1,180,6,1000,congruent,left,left,congruent,Stim/Acon.png,left,-0.1,0,90,1,2000,stimuli\\,,,,,,,,,,,,
,,,,,,,,,,lga,1,2024-06-27_18h55.33.528,DCT_v1_online,2021.2.3,Win32,163.132137,,,0.067,2.283,167,down,1,0.6017,right,1,0.6753,2.433,0,22,22,22,1,23,congruent,up,down,incongruent,Stim/Acon.png,down,0,0.1,180,2,100,congruent,right,right,congruent,Stim/Acon.png,right,0.1,0,-90,4,2000,stimuli\\,,,,,,,,,,,,
,,,,,,,,,,lga,1,2024-06-27_18h55.33.528,DCT_v1_online,2021.2.3,Win32,163.132137,,,0.213,3.037,168,up,1,0.6975,right,1,0.4605,2.287,0,23,23,103,1,104,incongruent,down,up,incongruent,Stim/Aincon.png,up,0,-0.1,0,7,1000,congruent,right,right,congruent,Stim/Acon.png,right,0.1,0,-90,4,2000,stimuli\\,,,,,,,,,,,,
,,,,,,,,,,lga,1,2024-06-27_18h55.33.528,DCT_v1_online,2021.2.3,Win32,163.132137,,,0.498,2.752,169,down,1,0.5196,left,1,0.4464,2.002,0,24,24,21,1,22,congruent,up,down,incongruent,Stim/Acon.png,down,0,0.1,180,2,1000,congruent,right,left,incongruent,Stim/Acon.png,left,0.1,0,90,3,2000,stimuli\\,,,,,,,,,,,,
,,,,,,,,,,lga,1,2024-06-27_18h55.33.528,DCT_v1_online,2021.2.3,Win32,163.132137,,,0.065,2.285,170,down,1,0.7832,left,1,0.8878,2.435,0,25,25,120,1,121,incongruent,down,down,congruent,Stim/Aincon.png,down,0,-0.1,180,8,100,incongruent,left,left,congruent,Stim/Aincon.png,left,-0.1,0,90,5,2000,stimuli\\,,,,,,,,,,,,
,,,,,,,,,,lga,1,2024-06-27_18h55.33.528,DCT_v1_online,2021.2.3,Win32,163.132137,,,0.264,2.086,171,down,1,0.5062,left,1,0.7023,2.236,0,26,26,24,1,25,congruent,up,down,incongruent,Stim/Acon.png,down,0,0.1,180,2,100,incongruent,left,left,congruent,Stim/Aincon.png,left,-0.1,0,90,5,2000,stimuli\\,,,,,,,,,,,,
,,,,,,,,,,lga,1,2024-06-27_18h55.33.528,DCT_v1_online,2021.2.3,Win32,163.132137,,,0.346,2.904,172,up,1,0.4731,right,1,0.5712,2.154,0,27,27,47,1,48,congruent,down,up,incongruent,Stim/Acon.png,up,0,-0.1,0,3,1000,incongruent,right,right,congruent,Stim/Aincon.png,right,0.1,0,-90,8,2000,stimuli\\,,,,,,,,,,,,
,,,,,,,,,,lga,1,2024-06-27_18h55.33.528,DCT_v1_online,2021.2.3,Win32,163.132137,,,0.261,2.989,173,up,1,0.5562,left,1,0.4985,2.239,0,28,28,65,1,66,incongruent,up,up,congruent,Stim/Aincon.png,up,0,0.1,0,5,1000,congruent,left,left,congruent,Stim/Acon.png,left,-0.1,0,90,1,2000,stimuli\\,,,,,,,,,,,,
,,,,,,,,,,lga,1,2024-06-27_18h55.33.528,DCT_v1_online,2021.2.3,Win32,163.132137,,,0.16,3.09,174,down,1,0.4484,left,1,0.5109,2.34,0,29,29,61,1,62,congruent,down,down,congruent,Stim/Acon.png,down,0,-0.1,180,4,1000,incongruent,right,left,incongruent,Stim/Aincon.png,left,0.1,0,90,7,2000,stimuli\\,,,,,,,,,,,,
,,,,,,,,,,lga,1,2024-06-27_18h55.33.528,DCT_v1_online,2021.2.3,Win32,163.132137,,,0.215,2.135,175,down,1,0.9148,left,1,1.0499,2.285,0,30,30,60,1,61,congruent,down,down,congruent,Stim/Acon.png,down,0,-0.1,180,4,100,incongruent,right,left,incongruent,Stim/Aincon.png,left,0.1,0,90,7,2000,stimuli\\,,,,,,,,,,,,
,,,,,,,,,,lga,1,2024-06-27_18h55.33.528,DCT_v1_online,2021.2.3,Win32,163.132137,,,0.496,2.754,176,down,1,0.797,left,0,0.4492,2.004,0,31,31,123,1,124,incongruent,down,down,congruent,Stim/Aincon.png,down,0,-0.1,180,8,1000,incongruent,left,right,incongruent,Stim/Aincon.png,right,-0.1,0,-90,6,2000,stimuli\\,,,,,,,,,,,,
,,,,,,,,,,lga,1,2024-06-27_18h55.33.528,DCT_v1_online,2021.2.3,Win32,163.132137,,,0.175,2.175,177,up,1,0.7177,right,1,0.9445,2.325,0,32,32,42,1,43,congruent,down,up,incongruent,Stim/Acon.png,up,0,-0.1,0,3,100,incongruent,left,right,incongruent,Stim/Aincon.png,right,-0.1,0,-90,6,2000,stimuli\\,,,,,,,,,,,,
,,,,,,,,,,lga,1,2024-06-27_18h55.33.528,DCT_v1_online,2021.2.3,Win32,163.132137,,,0.085,3.165,178,down,1,0.6592,left,1,0.5115,2.415,0,33,33,117,1,118,incongruent,down,down,congruent,Stim/Aincon.png,down,0,-0.1,180,8,1000,congruent,right,left,incongruent,Stim/Acon.png,left,0.1,0,90,3,2000,stimuli\\,,,,,,,,,,,,
,,,,,,,,,,lga,1,2024-06-27_18h55.33.528,DCT_v1_online,2021.2.3,Win32,163.132137,,,0.13,3.12,179,down,0,0.549,left,1,0.5115,2.37,0,34,34,101,1,102,incongruent,down,up,incongruent,Stim/Aincon.png,up,0,-0.1,0,7,1000,congruent,right,left,incongruent,Stim/Acon.png,left,0.1,0,90,3,2000,stimuli\\,,,,,,,,,,,,
,,,,,,,,,,lga,1,2024-06-27_18h55.33.528,DCT_v1_online,2021.2.3,Win32,163.132137,,,0.109,3.141,180,up,1,0.5061,left,1,0.5853,2.391,0,35,35,13,1,14,congruent,up,up,congruent,Stim/Acon.png,up,0,0.1,0,1,1000,incongruent,right,left,incongruent,Stim/Aincon.png,left,0.1,0,90,7,2000,stimuli\\,,,,,,,,,,,,
,,,,,,,,,,lga,1,2024-06-27_18h55.33.528,DCT_v1_online,2021.2.3,Win32,163.132137,,,0.187,2.163,181,up,1,0.826,right,1,0.9333,2.313,0,36,36,34,1,35,congruent,down,up,incongruent,Stim/Acon.png,up,0,-0.1,0,3,100,congruent,left,right,incongruent,Stim/Acon.png,right,-0.1,0,-90,2,2000,stimuli\\,,,,,,,,,,,,
,,,,,,,,,,lga,1,2024-06-27_18h55.33.528,DCT_v1_online,2021.2.3,Win32,163.132137,,,0.108,2.242,182,up,1,0.7791,right,1,1.2268,2.392,0,37,37,78,1,79,incongruent,up,up,congruent,Stim/Aincon.png,up,0,0.1,0,5,100,incongruent,right,right,congruent,Stim/Aincon.png,right,0.1,0,-90,8,2000,stimuli\\,,,,,,,,,,,,
,,,,,,,,,,lga,1,2024-06-27_18h55.33.528,DCT_v1_online,2021.2.3,Win32,163.132137,,,0.468,2.782,183,up,1,0.5872,right,1,0.517,2.032,0,38,38,71,1,72,incongruent,up,up,congruent,Stim/Aincon.png,up,0,0.1,0,5,1000,congruent,right,right,congruent,Stim/Acon.png,right,0.1,0,-90,4,2000,stimuli\\,,,,,,,,,,,,
,,,,,,,,,,lga,1,2024-06-27_18h55.33.528,DCT_v1_online,2021.2.3,Win32,163.132137,,,0.125,2.225,184,up,1,0.698,left,1,0.8758,2.375,0,39,39,108,1,109,incongruent,down,up,incongruent,Stim/Aincon.png,up,0,-0.1,0,7,100,incongruent,right,left,incongruent,Stim/Aincon.png,left,0.1,0,90,7,2000,stimuli\\,,,,,,,,,,,,
,,,,,,,,,,lga,1,2024-06-27_18h55.33.528,DCT_v1_online,2021.2.3,Win32,163.132137,,,0.091,3.159,185,up,1,0.5572,right,1,0.6741,2.409,0,40,40,43,1,44,congruent,down,up,incongruent,Stim/Acon.png,up,0,-0.1,0,3,1000,incongruent,left,right,incongruent,Stim/Aincon.png,right,-0.1,0,-90,6,2000,stimuli\\,,,,,,,,,,,,
,,,,,,,,,,lga,1,2024-06-27_18h55.33.528,DCT_v1_online,2021.2.3,Win32,163.132137,,,0.221,2.129,186,down,1,0.7232,right,1,0.848,2.279,0,41,41,114,1,115,incongruent,down,down,congruent,Stim/Aincon.png,down,0,-0.1,180,8,100,congruent,left,right,incongruent,Stim/Acon.png,right,-0.1,0,-90,2,2000,stimuli\\,,,,,,,,,,,,
,,,,,,,,,,lga,1,2024-06-27_18h55.33.528,DCT_v1_online,2021.2.3,Win32,163.132137,,,0.273,2.077,187,up,1,0.7527,left,1,0.836,2.227,0,42,42,68,1,69,incongruent,up,up,congruent,Stim/Aincon.png,up,0,0.1,0,5,100,congruent,right,left,incongruent,Stim/Acon.png,left,0.1,0,90,3,2000,stimuli\\,,,,,,,,,,,,
,,,,,,,,,,lga,1,2024-06-27_18h55.33.528,DCT_v1_online,2021.2.3,Win32,163.132137,,,0.088,3.162,188,up,1,0.7971,left,0,0.4306,2.412,0,43,43,107,1,108,incongruent,down,up,incongruent,Stim/Aincon.png,up,0,-0.1,0,7,1000,incongruent,left,right,incongruent,Stim/Aincon.png,right,-0.1,0,-90,6,2000,stimuli\\,,,,,,,,,,,,
,,,,,,,,,,lga,1,2024-06-27_18h55.33.528,DCT_v1_online,2021.2.3,Win32,163.132137,,,0.257,2.093,189,up,1,0.7382,left,1,0.842,2.243,0,44,44,100,1,101,incongruent,down,up,incongruent,Stim/Aincon.png,up,0,-0.1,0,7,100,congruent,right,left,incongruent,Stim/Acon.png,left,0.1,0,90,3,2000,stimuli\\,,,,,,,,,,,,
,,,,,,,,,,lga,1,2024-06-27_18h55.33.528,DCT_v1_online,2021.2.3,Win32,163.132137,,,0.122,2.228,190,down,1,0.7131,left,1,0.8311,2.378,0,45,45,84,1,85,incongruent,up,down,incongruent,Stim/Aincon.png,down,0,0.1,180,6,100,congruent,right,left,incongruent,Stim/Acon.png,left,0.1,0,90,3,2000,stimuli\\,,,,,,,,,,,,
,,,,,,,,,,lga,1,2024-06-27_18h55.33.528,DCT_v1_online,2021.2.3,Win32,163.132137,,,0.144,2.206,191,down,1,0.8262,left,1,0.9422,2.356,0,46,46,48,1,49,congruent,down,down,congruent,Stim/Acon.png,down,0,-0.1,180,4,100,congruent,left,left,congruent,Stim/Acon.png,left,-0.1,0,90,1,2000,stimuli\\,,,,,,,,,,,,
,,,,,,,,,,lga,1,2024-06-27_18h55.33.528,DCT_v1_online,2021.2.3,Win32,163.132137,,,0.353,1.997,192,up,1,0.7277,left,1,0.7897,2.147,0,47,47,32,1,33,congruent,down,up,incongruent,Stim/Acon.png,up,0,-0.1,0,3,100,congruent,left,left,congruent,Stim/Acon.png,left,-0.1,0,90,1,2000,stimuli\\,,,,,,,,,,,,
,,,,,,,,,,lga,1,2024-06-27_18h55.33.528,DCT_v1_online,2021.2.3,Win32,163.132137,,,0.037,3.213,193,up,1,0.7585,right,1,0.4414,2.463,0,48,48,99,1,100,incongruent,down,up,incongruent,Stim/Aincon.png,up,0,-0.1,0,7,1000,congruent,left,right,incongruent,Stim/Acon.png,right,-0.1,0,-90,2,2000,stimuli\\,,,,,,,,,,,,
,,,,,,,,,,lga,1,2024-06-27_18h55.33.528,DCT_v1_online,2021.2.3,Win32,163.132137,,,0.248,3.002,194,up,1,0.637,right,1,0.551,2.252,0,49,49,75,1,76,incongruent,up,up,congruent,Stim/Aincon.png,up,0,0.1,0,5,1000,incongruent,left,right,incongruent,Stim/Aincon.png,right,-0.1,0,-90,6,2000,stimuli\\,,,,,,,,,,,,
,,,,,,,,,,lga,1,2024-06-27_18h55.33.528,DCT_v1_online,2021.2.3,Win32,163.132137,,,0.317,2.033,195,up,1,0.6106,right,1,0.8436,2.183,0,50,50,14,1,15,congruent,up,up,congruent,Stim/Acon.png,up,0,0.1,0,1,100,incongruent,right,right,congruent,Stim/Aincon.png,right,0.1,0,-90,8,2000,stimuli\\,,,,,,,,,,,,
,,,,,,,,,,lga,1,2024-06-27_18h55.33.528,DCT_v1_online,2021.2.3,Win32,163.132137,,,0.338,2.012,196,up,1,0.6554,right,1,0.7343,2.162,0,51,51,66,1,67,incongruent,up,up,congruent,Stim/Aincon.png,up,0,0.1,0,5,100,congruent,left,right,incongruent,Stim/Acon.png,right,-0.1,0,-90,2,2000,stimuli\\,,,,,,,,,,,,
,,,,,,,,,,lga,1,2024-06-27_18h55.33.528,DCT_v1_online,2021.2.3,Win32,163.132137,,,0.231,3.019,197,down,1,0.5824,left,1,0.5276,2.269,0,52,52,29,1,30,congruent,up,down,incongruent,Stim/Acon.png,down,0,0.1,180,2,1000,incongruent,right,left,incongruent,Stim/Aincon.png,left,0.1,0,90,7,2000,stimuli\\,,,,,,,,,,,,
,,,,,,,,,,lga,1,2024-06-27_18h55.33.528,DCT_v1_online,2021.2.3,Win32,163.132137,,,0.456,1.894,198,up,1,0.7207,left,1,0.8527,2.044,0,53,53,36,1,37,congruent,down,up,incongruent,Stim/Acon.png,up,0,-0.1,0,3,100,congruent,right,left,incongruent,Stim/Acon.png,left,0.1,0,90,3,2000,stimuli\\,,,,,,,,,,,,
,,,,,,,,,,lga,1,2024-06-27_18h55.33.528,DCT_v1_online,2021.2.3,Win32,163.132137,,,0.27,2.08,199,down,1,0.8019,right,1,0.9289,2.23,0,54,54,62,1,63,congruent,down,down,congruent,Stim/Acon.png,down,0,-0.1,180,4,100,incongruent,right,right,congruent,Stim/Aincon.png,right,0.1,0,-90,8,2000,stimuli\\,,,,,,,,,,,,
,,,,,,,,,,lga,1,2024-06-27_18h55.33.528,DCT_v1_online,2021.2.3,Win32,163.132137,,,0.236,3.014,200,up,1,0.5894,left,1,0.4428,2.264,0,55,55,37,1,38,congruent,down,up,incongruent,Stim/Acon.png,up,0,-0.1,0,3,1000,congruent,right,left,incongruent,Stim/Acon.png,left,0.1,0,90,3,2000,stimuli\\,,,,,,,,,,,,
,,,,,,,,,,lga,1,2024-06-27_18h55.33.528,DCT_v1_online,2021.2.3,Win32,163.132137,,,0.256,2.094,201,up,1,0.7148,right,1,0.8231,2.244,0,56,56,74,1,75,incongruent,up,up,congruent,Stim/Aincon.png,up,0,0.1,0,5,100,incongruent,left,right,incongruent,Stim/Aincon.png,right,-0.1,0,-90,6,2000,stimuli\\,,,,,,,,,,,,
,,,,,,,,,,lga,1,2024-06-27_18h55.33.528,DCT_v1_online,2021.2.3,Win32,163.132137,,,0.163,2.187,202,down,1,0.7885,right,1,1.0102,2.337,0,57,57,126,1,127,incongruent,down,down,congruent,Stim/Aincon.png,down,0,-0.1,180,8,100,incongruent,right,right,congruent,Stim/Aincon.png,right,0.1,0,-90,8,2000,stimuli\\,,,,,,,,,,,,
,,,,,,,,,,lga,1,2024-06-27_18h55.33.528,DCT_v1_online,2021.2.3,Win32,163.132137,,,0.325,2.025,203,down,1,0.8287,left,1,0.9106,2.175,0,58,58,16,1,17,congruent,up,down,incongruent,Stim/Acon.png,down,0,0.1,180,2,100,congruent,left,left,congruent,Stim/Acon.png,left,-0.1,0,90,1,2000,stimuli\\,,,,,,,,,,,,
,,,,,,,,,,lga,1,2024-06-27_18h55.33.528,DCT_v1_online,2021.2.3,Win32,163.132137,,,0.364,1.986,204,up,1,0.6938,right,1,0.7609,2.136,0,59,59,70,1,71,incongruent,up,up,congruent,Stim/Aincon.png,up,0,0.1,0,5,100,congruent,right,right,congruent,Stim/Acon.png,right,0.1,0,-90,4,2000,stimuli\\,,,,,,,,,,,,
,,,,,,,,,,lga,1,2024-06-27_18h55.33.528,DCT_v1_online,2021.2.3,Win32,163.132137,,,0.017,2.333,205,down,1,0.9055,left,1,0.9517,2.483,0,60,60,112,1,113,incongruent,down,down,congruent,Stim/Aincon.png,down,0,-0.1,180,8,100,congruent,left,left,congruent,Stim/Acon.png,left,-0.1,0,90,1,2000,stimuli\\,,,,,,,,,,,,
,,,,,,,,,,lga,1,2024-06-27_18h55.33.528,DCT_v1_online,2021.2.3,Win32,163.132137,,,0.066,2.284,206,down,1,0.7233,right,1,0.7945,2.434,0,61,61,82,1,83,incongruent,up,down,incongruent,Stim/Aincon.png,down,0,0.1,180,6,100,congruent,left,right,incongruent,Stim/Acon.png,right,-0.1,0,-90,2,2000,stimuli\\,,,,,,,,,,,,
,,,,,,,,,,lga,1,2024-06-27_18h55.33.528,DCT_v1_online,2021.2.3,Win32,163.132137,,,0.388,2.862,207,down,1,0.683,left,1,0.5202,2.112,0,62,62,89,1,90,incongruent,up,down,incongruent,Stim/Aincon.png,down,0,0.1,180,6,1000,incongruent,left,left,congruent,Stim/Aincon.png,left,-0.1,0,90,5,2000,stimuli\\,,,,,,,,,,,,
,,,,,,,,,,lga,1,2024-06-27_18h55.33.528,DCT_v1_online,2021.2.3,Win32,163.132137,,,0.366,2.884,208,down,1,0.4817,left,1,0.6755,2.134,0,63,63,25,1,26,congruent,up,down,incongruent,Stim/Acon.png,down,0,0.1,180,2,1000,incongruent,left,left,congruent,Stim/Aincon.png,left,-0.1,0,90,5,2000,stimuli\\,,,,,,,,,,,,
,,,,,,,,,,lga,1,2024-06-27_18h55.33.528,DCT_v1_online,2021.2.3,Win32,163.132137,,,0.433,1.917,209,up,1,0.7662,right,1,0.8521,2.067,0,64,64,102,1,103,incongruent,down,up,incongruent,Stim/Aincon.png,up,0,-0.1,0,7,100,congruent,right,right,congruent,Stim/Acon.png,right,0.1,0,-90,4,2000,stimuli\\,,,,,,,,,,,,
,,,,,,,,,,lga,1,2024-06-27_18h55.33.528,DCT_v1_online,2021.2.3,Win32,163.132137,,,0.158,3.092,210,up,1,0.4638,right,1,0.4497,2.342,0,65,65,3,1,4,congruent,up,up,congruent,Stim/Acon.png,up,0,0.1,0,1,1000,congruent,left,right,incongruent,Stim/Acon.png,right,-0.1,0,-90,2,2000,stimuli\\,,,,,,,,,,,,
,,,,,,,,,,lga,1,2024-06-27_18h55.33.528,DCT_v1_online,2021.2.3,Win32,163.132137,,,0.023,2.327,211,up,1,0.9301,left,1,1.0471,2.477,0,66,66,104,1,105,incongruent,down,up,incongruent,Stim/Aincon.png,up,0,-0.1,0,7,100,incongruent,left,left,congruent,Stim/Aincon.png,left,-0.1,0,90,5,2000,stimuli\\,,,,,,,,,,,,
,,,,,,,,,,lga,1,2024-06-27_18h55.33.528,DCT_v1_online,2021.2.3,Win32,163.132137,,,0.173,3.077,212,up,1,0.6963,left,1,0.4574,2.327,0,67,67,97,1,98,incongruent,down,up,incongruent,Stim/Aincon.png,up,0,-0.1,0,7,1000,congruent,left,left,congruent,Stim/Acon.png,left,-0.1,0,90,1,2000,stimuli\\,,,,,,,,,,,,
,,,,,,,,,,lga,1,2024-06-27_18h55.33.528,DCT_v1_online,2021.2.3,Win32,163.132137,,,0.026,3.224,213,down,1,0.5564,right,1,0.4539,2.474,0,68,68,51,1,52,congruent,down,down,congruent,Stim/Acon.png,down,0,-0.1,180,4,1000,congruent,left,right,incongruent,Stim/Acon.png,right,-0.1,0,-90,2,2000,stimuli\\,,,,,,,,,,,,
,,,,,,,,,,lga,1,2024-06-27_18h55.33.528,DCT_v1_online,2021.2.3,Win32,163.132137,,,0.069,2.281,214,up,1,0.6698,right,1,0.7948,2.431,0,69,69,38,1,39,congruent,down,up,incongruent,Stim/Acon.png,up,0,-0.1,0,3,100,congruent,right,right,congruent,Stim/Acon.png,right,0.1,0,-90,4,2000,stimuli\\,,,,,,,,,,,,
,,,,,,,,,,lga,1,2024-06-27_18h55.33.528,DCT_v1_online,2021.2.3,Win32,163.132137,,,0.47,2.78,215,up,1,0.4553,left,1,0.4911,2.03,0,70,70,41,1,42,congruent,down,up,incongruent,Stim/Acon.png,up,0,-0.1,0,3,1000,incongruent,left,left,congruent,Stim/Aincon.png,left,-0.1,0,90,5,2000,stimuli\\,,,,,,,,,,,,
,,,,,,,,,,lga,1,2024-06-27_18h55.33.528,DCT_v1_online,2021.2.3,Win32,163.132137,,,0.322,2.928,216,down,1,0.6546,right,1,0.5256,2.178,0,71,71,55,1,56,congruent,down,down,congruent,Stim/Acon.png,down,0,-0.1,180,4,1000,congruent,right,right,congruent,Stim/Acon.png,right,0.1,0,-90,4,2000,stimuli\\,,,,,,,,,,,,
,,,,,,,,,,lga,1,2024-06-27_18h55.33.528,DCT_v1_online,2021.2.3,Win32,163.132137,,,0.421,2.829,217,down,1,0.4872,left,1,0.5275,2.079,0,72,72,17,1,18,congruent,up,down,incongruent,Stim/Acon.png,down,0,0.1,180,2,1000,congruent,left,left,congruent,Stim/Acon.png,left,-0.1,0,90,1,2000,stimuli\\,,,,,,,,,,,,
,,,,,,,,,,lga,1,2024-06-27_18h55.33.528,DCT_v1_online,2021.2.3,Win32,163.132137,,,0.306,2.044,218,down,1,0.6509,left,1,0.8216,2.194,0,73,73,20,1,21,congruent,up,down,incongruent,Stim/Acon.png,down,0,0.1,180,2,100,congruent,right,left,incongruent,Stim/Acon.png,left,0.1,0,90,3,2000,stimuli\\,,,,,,,,,,,,
,,,,,,,,,,lga,1,2024-06-27_18h55.33.528,DCT_v1_online,2021.2.3,Win32,163.132137,,,0.284,2.066,219,down,1,0.8981,left,1,1.0431,2.216,0,74,74,56,1,57,congruent,down,down,congruent,Stim/Acon.png,down,0,-0.1,180,4,100,incongruent,left,left,congruent,Stim/Aincon.png,left,-0.1,0,90,5,2000,stimuli\\,,,,,,,,,,,,
,,,,,,,,,,lga,1,2024-06-27_18h55.33.528,DCT_v1_online,2021.2.3,Win32,163.132137,,,0.176,3.074,220,down,1,0.6268,right,1,0.6005,2.324,0,75,75,119,1,120,incongruent,down,down,congruent,Stim/Aincon.png,down,0,-0.1,180,8,1000,congruent,right,right,congruent,Stim/Acon.png,right,0.1,0,-90,4,2000,stimuli\\,,,,,,,,,,,,
,,,,,,,,,,lga,1,2024-06-27_18h55.33.528,DCT_v1_online,2021.2.3,Win32,163.132137,,,0.084,3.166,221,up,1,0.5623,left,1,0.5078,2.416,0,76,76,33,1,34,congruent,down,up,incongruent,Stim/Acon.png,up,0,-0.1,0,3,1000,congruent,left,left,congruent,Stim/Acon.png,left,-0.1,0,90,1,2000,stimuli\\,,,,,,,,,,,,
,,,,,,,,,,lga,1,2024-06-27_18h55.33.528,DCT_v1_online,2021.2.3,Win32,163.132137,,,0.292,2.958,222,up,1,0.5756,right,1,0.4348,2.208,0,77,77,67,1,68,incongruent,up,up,congruent,Stim/Aincon.png,up,0,0.1,0,5,1000,congruent,left,right,incongruent,Stim/Acon.png,right,-0.1,0,-90,2,2000,stimuli\\,,,,,,,,,,,,
,,,,,,,,,,lga,1,2024-06-27_18h55.33.528,DCT_v1_online,2021.2.3,Win32,163.132137,,,0.331,2.919,223,down,1,0.5402,right,1,0.5823,2.169,0,78,78,63,1,64,congruent,down,down,congruent,Stim/Acon.png,down,0,-0.1,180,4,1000,incongruent,right,right,congruent,Stim/Aincon.png,right,0.1,0,-90,8,2000,stimuli\\,,,,,,,,,,,,
,,,,,,,,,,lga,1,2024-06-27_18h55.33.528,DCT_v1_online,2021.2.3,Win32,163.132137,,,0.148,3.102,224,up,0,0.6688,left,1,0.6179,2.352,0,79,79,121,1,122,incongruent,down,down,congruent,Stim/Aincon.png,down,0,-0.1,180,8,1000,incongruent,left,left,congruent,Stim/Aincon.png,left,-0.1,0,90,5,2000,stimuli\\,,,,,,,,,,,,
,,,,,,,,,,lga,1,2024-06-27_18h55.33.528,DCT_v1_online,2021.2.3,Win32,163.132137,,,0.332,2.918,225,up,1,0.5964,right,1,0.4729,2.168,0,80,80,35,1,36,congruent,down,up,incongruent,Stim/Acon.png,up,0,-0.1,0,3,1000,congruent,left,right,incongruent,Stim/Acon.png,right,-0.1,0,-90,2,2000,stimuli\\,,,,,,,,,,,,
,,,,,,,,,,lga,1,2024-06-27_18h55.33.528,DCT_v1_online,2021.2.3,Win32,163.132137,,,0.124,2.226,226,up,1,0.7,left,1,0.8222,2.376,0,81,81,64,1,65,incongruent,up,up,congruent,Stim/Aincon.png,up,0,0.1,0,5,100,congruent,left,left,congruent,Stim/Acon.png,left,-0.1,0,90,1,2000,stimuli\\,,,,,,,,,,,,
,,,,,,,,,,lga,1,2024-06-27_18h55.33.528,DCT_v1_online,2021.2.3,Win32,163.132137,,,0.213,2.137,227,up,1,0.6836,right,1,0.7851,2.287,0,82,82,2,1,3,congruent,up,up,congruent,Stim/Acon.png,up,0,0.1,0,1,100,congruent,left,right,incongruent,Stim/Acon.png,right,-0.1,0,-90,2,2000,stimuli\\,,,,,,,,,,,,
,,,,,,,,,,lga,1,2024-06-27_18h55.33.528,DCT_v1_online,2021.2.3,Win32,163.132137,,,0.165,3.085,228,up,1,0.5118,left,1,0.5725,2.335,0,83,83,73,1,74,incongruent,up,up,congruent,Stim/Aincon.png,up,0,0.1,0,5,1000,incongruent,left,left,congruent,Stim/Aincon.png,left,-0.1,0,90,5,2000,stimuli\\,,,,,,,,,,,,
,,,,,,,,,,lga,1,2024-06-27_18h55.33.528,DCT_v1_online,2021.2.3,Win32,163.132137,,,0.32,2.93,229,down,1,0.7071,right,1,0.5408,2.18,0,84,84,87,1,88,incongruent,up,down,incongruent,Stim/Aincon.png,down,0,0.1,180,6,1000,congruent,right,right,congruent,Stim/Acon.png,right,0.1,0,-90,4,2000,stimuli\\,,,,,,,,,,,,
,,,,,,,,,,lga,1,2024-06-27_18h55.33.528,DCT_v1_online,2021.2.3,Win32,163.132137,,,0.189,3.061,230,down,1,0.7154,right,1,0.4125,2.311,0,85,85,115,1,116,incongruent,down,down,congruent,Stim/Aincon.png,down,0,-0.1,180,8,1000,congruent,left,right,incongruent,Stim/Acon.png,right,-0.1,0,-90,2,2000,stimuli\\,,,,,,,,,,,,
,,,,,,,,,,lga,1,2024-06-27_18h55.33.528,DCT_v1_online,2021.2.3,Win32,163.132137,,,0.465,2.785,231,,0,,,0,,,0,86,86,77,1,78,incongruent,up,up,congruent,Stim/Aincon.png,up,0,0.1,0,5,1000,incongruent,right,left,incongruent,Stim/Aincon.png,left,0.1,0,90,7,2000,stimuli\\,,,,,,,,,,,,
,,,,,,,,,,lga,1,2024-06-27_18h55.33.528,DCT_v1_online,2021.2.3,Win32,163.132137,,,0.297,2.053,232,,0,,,0,,,0,87,87,92,1,93,incongruent,up,down,incongruent,Stim/Aincon.png,down,0,0.1,180,6,100,incongruent,right,left,incongruent,Stim/Aincon.png,left,0.1,0,90,7,2000,stimuli\\,,,,,,,,,,,,
,,,,,,,,,,lga,1,2024-06-27_18h55.33.528,DCT_v1_online,2021.2.3,Win32,163.132137,,,0.257,2.993,233,,0,,right,0,0.4658,,0,88,88,109,1,110,incongruent,down,up,incongruent,Stim/Aincon.png,up,0,-0.1,0,7,1000,incongruent,right,left,incongruent,Stim/Aincon.png,left,0.1,0,90,7,2000,stimuli\\,,,,,,,,,,,,
,,,,,,,,,,lga,1,2024-06-27_18h55.33.528,DCT_v1_online,2021.2.3,Win32,163.132137,,,0.326,2.924,234,down,1,0.6436,right,1,0.6656,2.174,0,89,89,31,1,32,congruent,up,down,incongruent,Stim/Acon.png,down,0,0.1,180,2,1000,incongruent,right,right,congruent,Stim/Aincon.png,right,0.1,0,-90,8,2000,stimuli\\,,,,,,,,,,,,
,,,,,,,,,,lga,1,2024-06-27_18h55.33.528,DCT_v1_online,2021.2.3,Win32,163.132137,,,0.177,2.173,235,down,1,0.6259,right,1,0.752,2.323,0,90,90,30,1,31,congruent,up,down,incongruent,Stim/Acon.png,down,0,0.1,180,2,100,incongruent,right,right,congruent,Stim/Aincon.png,right,0.1,0,-90,8,2000,stimuli\\,,,,,,,,,,,,
,,,,,,,,,,lga,1,2024-06-27_18h55.33.528,DCT_v1_online,2021.2.3,Win32,163.132137,,,0.274,2.976,236,down,1,0.6985,right,1,0.6265,2.226,0,91,91,127,1,128,incongruent,down,down,congruent,Stim/Aincon.png,down,0,-0.1,180,8,1000,incongruent,right,right,congruent,Stim/Aincon.png,right,0.1,0,-90,8,2000,stimuli\\,,,,,,,,,,,,
,,,,,,,,,,lga,1,2024-06-27_18h55.33.528,DCT_v1_online,2021.2.3,Win32,163.132137,,,0.337,2.913,237,down,1,0.4386,left,0,0.4372,2.163,0,92,92,27,1,28,congruent,up,down,incongruent,Stim/Acon.png,down,0,0.1,180,2,1000,incongruent,left,right,incongruent,Stim/Aincon.png,right,-0.1,0,-90,6,2000,stimuli\\,,,,,,,,,,,,
,,,,,,,,,,lga,1,2024-06-27_18h55.33.528,DCT_v1_online,2021.2.3,Win32,163.132137,,,0.388,2.862,238,up,1,0.5426,right,1,0.4851,2.112,0,93,93,39,1,40,congruent,down,up,incongruent,Stim/Acon.png,up,0,-0.1,0,3,1000,congruent,right,right,congruent,Stim/Acon.png,right,0.1,0,-90,4,2000,stimuli\\,,,,,,,,,,,,
,,,,,,,,,,lga,1,2024-06-27_18h55.33.528,DCT_v1_online,2021.2.3,Win32,163.132137,,,0.014,2.336,239,down,1,0.6995,left,1,0.8067,2.486,0,94,94,28,1,29,congruent,up,down,incongruent,Stim/Acon.png,down,0,0.1,180,2,100,incongruent,right,left,incongruent,Stim/Aincon.png,left,0.1,0,90,7,2000,stimuli\\,,,,,,,,,,,,
,,,,,,,,,,lga,1,2024-06-27_18h55.33.528,DCT_v1_online,2021.2.3,Win32,163.132137,,,0.101,3.149,240,down,1,0.7536,right,1,0.4996,2.399,0,95,95,83,1,84,incongruent,up,down,incongruent,Stim/Aincon.png,down,0,0.1,180,6,1000,congruent,left,right,incongruent,Stim/Acon.png,right,-0.1,0,-90,2,2000,stimuli\\,,,,,,,,,,,,
,,,,,,,,,,lga,1,2024-06-27_18h55.33.528,DCT_v1_online,2021.2.3,Win32,163.132137,,,0.348,2.002,241,up,1,0.7559,left,1,0.8823,2.152,0,96,96,44,1,45,congruent,down,up,incongruent,Stim/Acon.png,up,0,-0.1,0,3,100,incongruent,right,left,incongruent,Stim/Aincon.png,left,0.1,0,90,7,2000,stimuli\\,,,,,,,,,,,,
,,,,,,,,,,lga,1,2024-06-27_18h55.33.528,DCT_v1_online,2021.2.3,Win32,163.132137,,,0.438,1.912,242,up,1,0.6062,right,1,0.7758,2.062,0,97,97,10,1,11,congruent,up,up,congruent,Stim/Acon.png,up,0,0.1,0,1,100,incongruent,left,right,incongruent,Stim/Aincon.png,right,-0.1,0,-90,6,2000,stimuli\\,,,,,,,,,,,,
,,,,,,,,,,lga,1,2024-06-27_18h55.33.528,DCT_v1_online,2021.2.3,Win32,163.132137,,,0.026,2.324,243,up,1,0.6155,right,1,0.7034,2.474,0,98,98,6,1,7,congruent,up,up,congruent,Stim/Acon.png,up,0,0.1,0,1,100,congruent,right,right,congruent,Stim/Acon.png,right,0.1,0,-90,4,2000,stimuli\\,,,,,,,,,,,,
,,,,,,,,,,lga,1,2024-06-27_18h55.33.528,DCT_v1_online,2021.2.3,Win32,163.132137,,,0.455,1.895,244,down,1,1.2086,left,1,1.2993,2.045,0,99,99,52,1,53,congruent,down,down,congruent,Stim/Acon.png,down,0,-0.1,180,4,100,congruent,right,left,incongruent,Stim/Acon.png,left,0.1,0,90,3,2000,stimuli\\,,,,,,,,,,,,
,,,,,,,,,,lga,1,2024-06-27_18h55.33.528,DCT_v1_online,2021.2.3,Win32,163.132137,,,0.041,3.209,245,down,1,0.5939,right,1,0.6487,2.459,0,100,100,95,1,96,incongruent,up,down,incongruent,Stim/Aincon.png,down,0,0.1,180,6,1000,incongruent,right,right,congruent,Stim/Aincon.png,right,0.1,0,-90,8,2000,stimuli\\,,,,,,,,,,,,
,,,,,,,,,,lga,1,2024-06-27_18h55.33.528,DCT_v1_online,2021.2.3,Win32,163.132137,,,0.195,2.155,246,down,1,0.7729,left,1,0.8991,2.305,0,101,101,88,1,89,incongruent,up,down,incongruent,Stim/Aincon.png,down,0,0.1,180,6,100,incongruent,left,left,congruent,Stim/Aincon.png,left,-0.1,0,90,5,2000,stimuli\\,,,,,,,,,,,,
,,,,,,,,,,lga,1,2024-06-27_18h55.33.528,DCT_v1_online,2021.2.3,Win32,163.132137,,,0.111,2.239,247,up,1,0.7045,left,1,0.8064,2.389,0,102,102,4,1,5,congruent,up,up,congruent,Stim/Acon.png,up,0,0.1,0,1,100,congruent,right,left,incongruent,Stim/Acon.png,left,0.1,0,90,3,2000,stimuli\\,,,,,,,,,,,,
,,,,,,,,,,lga,1,2024-06-27_18h55.33.528,DCT_v1_online,2021.2.3,Win32,163.132137,,,0.457,2.793,248,down,1,0.6851,left,1,0.4568,2.043,0,103,103,113,1,114,incongruent,down,down,congruent,Stim/Aincon.png,down,0,-0.1,180,8,1000,congruent,left,left,congruent,Stim/Acon.png,left,-0.1,0,90,1,2000,stimuli\\,,,,,,,,,,,,
,,,,,,,,,,lga,1,2024-06-27_18h55.33.528,DCT_v1_online,2021.2.3,Win32,163.132137,,,0.205,2.145,249,up,1,0.6457,left,1,0.7878,2.295,0,104,104,12,1,13,congruent,up,up,congruent,Stim/Acon.png,up,0,0.1,0,1,100,incongruent,right,left,incongruent,Stim/Aincon.png,left,0.1,0,90,7,2000,stimuli\\,,,,,,,,,,,,
,,,,,,,,,,lga,1,2024-06-27_18h55.33.528,DCT_v1_online,2021.2.3,Win32,163.132137,,,0.195,2.155,250,down,1,0.6946,right,1,0.8334,2.305,0,105,105,50,1,51,congruent,down,down,congruent,Stim/Acon.png,down,0,-0.1,180,4,100,congruent,left,right,incongruent,Stim/Acon.png,right,-0.1,0,-90,2,2000,stimuli\\,,,,,,,,,,,,
,,,,,,,,,,lga,1,2024-06-27_18h55.33.528,DCT_v1_online,2021.2.3,Win32,163.132137,,,0.473,1.877,251,up,1,0.7817,right,1,0.9465,2.027,0,106,106,110,1,111,incongruent,down,up,incongruent,Stim/Aincon.png,up,0,-0.1,0,7,100,incongruent,right,right,congruent,Stim/Aincon.png,right,0.1,0,-90,8,2000,stimuli\\,,,,,,,,,,,,
,,,,,,,,,,lga,1,2024-06-27_18h55.33.528,DCT_v1_online,2021.2.3,Win32,163.132137,,,0.021,2.329,252,down,1,0.6879,right,1,0.8017,2.479,0,107,107,18,1,19,congruent,up,down,incongruent,Stim/Acon.png,down,0,0.1,180,2,100,congruent,left,right,incongruent,Stim/Acon.png,right,-0.1,0,-90,2,2000,stimuli\\,,,,,,,,,,,,
,,,,,,,,,,lga,1,2024-06-27_18h55.33.528,DCT_v1_online,2021.2.3,Win32,163.132137,,,0.05,2.3,253,down,1,1.0005,right,1,1.0484,2.45,0,108,108,54,1,55,congruent,down,down,congruent,Stim/Acon.png,down,0,-0.1,180,4,100,congruent,right,right,congruent,Stim/Acon.png,right,0.1,0,-90,4,2000,stimuli\\,,,,,,,,,,,,
,,,,,,,,,,lga,1,2024-06-27_18h55.33.528,DCT_v1_online,2021.2.3,Win32,163.132137,,,0.012,2.338,254,down,1,0.8286,right,1,0.9321,2.488,0,109,109,86,1,87,incongruent,up,down,incongruent,Stim/Aincon.png,down,0,0.1,180,6,100,congruent,right,right,congruent,Stim/Acon.png,right,0.1,0,-90,4,2000,stimuli\\,,,,,,,,,,,,
,,,,,,,,,,lga,1,2024-06-27_18h55.33.528,DCT_v1_online,2021.2.3,Win32,163.132137,,,0.394,2.856,255,down,1,0.6116,left,1,0.4725,2.106,0,110,110,49,1,50,congruent,down,down,congruent,Stim/Acon.png,down,0,-0.1,180,4,1000,congruent,left,left,congruent,Stim/Acon.png,left,-0.1,0,90,1,2000,stimuli\\,,,,,,,,,,,,
,,,,,,,,,,lga,1,2024-06-27_18h55.33.528,DCT_v1_online,2021.2.3,Win32,163.132137,,,0.496,2.754,256,down,1,0.4772,right,1,0.6667,2.004,0,111,111,59,1,60,congruent,down,down,congruent,Stim/Acon.png,down,0,-0.1,180,4,1000,incongruent,left,right,incongruent,Stim/Aincon.png,right,-0.1,0,-90,6,2000,stimuli\\,,,,,,,,,,,,
,,,,,,,,,,lga,1,2024-06-27_18h55.33.528,DCT_v1_online,2021.2.3,Win32,163.132137,,,0.183,2.167,257,up,1,0.6736,right,1,0.8612,2.317,0,112,112,46,1,47,congruent,down,up,incongruent,Stim/Acon.png,up,0,-0.1,0,3,100,incongruent,right,right,congruent,Stim/Aincon.png,right,0.1,0,-90,8,2000,stimuli\\,,,,,,,,,,,,
,,,,,,,,,,lga,1,2024-06-27_18h55.33.528,DCT_v1_online,2021.2.3,Win32,163.132137,,,0.071,2.279,258,down,1,0.6691,left,1,0.8,2.429,0,113,113,124,1,125,incongruent,down,down,congruent,Stim/Aincon.png,down,0,-0.1,180,8,100,incongruent,right,left,incongruent,Stim/Aincon.png,left,0.1,0,90,7,2000,stimuli\\,,,,,,,,,,,,
,,,,,,,,,,lga,1,2024-06-27_18h55.33.528,DCT_v1_online,2021.2.3,Win32,163.132137,,,0.09,2.26,259,down,1,0.7902,right,1,0.9566,2.41,0,114,114,122,1,123,incongruent,down,down,congruent,Stim/Aincon.png,down,0,-0.1,180,8,100,incongruent,left,right,incongruent,Stim/Aincon.png,right,-0.1,0,-90,6,2000,stimuli\\,,,,,,,,,,,,
,,,,,,,,,,lga,1,2024-06-27_18h55.33.528,DCT_v1_online,2021.2.3,Win32,163.132137,,,0.132,2.218,260,down,1,0.8343,right,1,0.9799,2.368,0,115,115,94,1,95,incongruent,up,down,incongruent,Stim/Aincon.png,down,0,0.1,180,6,100,incongruent,right,right,congruent,Stim/Aincon.png,right,0.1,0,-90,8,2000,stimuli\\,,,,,,,,,,,,
,,,,,,,,,,lga,1,2024-06-27_18h55.33.528,DCT_v1_online,2021.2.3,Win32,163.132137,,,0.164,3.086,261,down,1,0.7464,left,1,0.5537,2.336,0,116,116,85,1,86,incongruent,up,down,incongruent,Stim/Aincon.png,down,0,0.1,180,6,1000,congruent,right,left,incongruent,Stim/Acon.png,left,0.1,0,90,3,2000,stimuli\\,,,,,,,,,,,,
,,,,,,,,,,lga,1,2024-06-27_18h55.33.528,DCT_v1_online,2021.2.3,Win32,163.132137,,,0.377,2.873,262,up,1,0.4708,left,1,0.6259,2.123,0,117,117,45,1,46,congruent,down,up,incongruent,Stim/Acon.png,up,0,-0.1,0,3,1000,incongruent,right,left,incongruent,Stim/Aincon.png,left,0.1,0,90,7,2000,stimuli\\,,,,,,,,,,,,
,,,,,,,,,,lga,1,2024-06-27_18h55.33.528,DCT_v1_online,2021.2.3,Win32,163.132137,,,0.02,3.23,263,down,1,0.6031,right,1,0.4588,2.48,0,118,118,19,1,20,congruent,up,down,incongruent,Stim/Acon.png,down,0,0.1,180,2,1000,congruent,left,right,incongruent,Stim/Acon.png,right,-0.1,0,-90,2,2000,stimuli\\,,,,,,,,,,,,
,,,,,,,,,,lga,1,2024-06-27_18h55.33.528,DCT_v1_online,2021.2.3,Win32,163.132137,,,0.179,2.171,264,down,1,0.953,left,1,1.0404,2.321,0,119,119,116,1,117,incongruent,down,down,congruent,Stim/Aincon.png,down,0,-0.1,180,8,100,congruent,right,left,incongruent,Stim/Acon.png,left,0.1,0,90,3,2000,stimuli\\,,,,,,,,,,,,
,,,,,,,,,,lga,1,2024-06-27_18h55.33.528,DCT_v1_online,2021.2.3,Win32,163.132137,,,0.334,2.016,265,down,1,0.7794,left,1,1.133,2.166,0,120,120,80,1,81,incongruent,up,down,incongruent,Stim/Aincon.png,down,0,0.1,180,6,100,congruent,left,left,congruent,Stim/Acon.png,left,-0.1,0,90,1,2000,stimuli\\,,,,,,,,,,,,
,,,,,,,,,,lga,1,2024-06-27_18h55.33.528,DCT_v1_online,2021.2.3,Win32,163.132137,,,0.335,2.915,266,up,1,0.4786,left,1,0.5125,2.165,0,121,121,9,1,10,congruent,up,up,congruent,Stim/Acon.png,up,0,0.1,0,1,1000,incongruent,left,left,congruent,Stim/Aincon.png,left,-0.1,0,90,5,2000,stimuli\\,,,,,,,,,,,,
,,,,,,,,,,lga,1,2024-06-27_18h55.33.528,DCT_v1_online,2021.2.3,Win32,163.132137,,,0.333,2.917,267,up,1,0.4927,left,1,0.4425,2.167,0,122,122,1,1,2,congruent,up,up,congruent,Stim/Acon.png,up,0,0.1,0,1,1000,congruent,left,left,congruent,Stim/Acon.png,left,-0.1,0,90,1,2000,stimuli\\,,,,,,,,,,,,
,,,,,,,,,,lga,1,2024-06-27_18h55.33.528,DCT_v1_online,2021.2.3,Win32,163.132137,,,0.057,3.193,268,down,1,0.5343,left,1,0.5947,2.443,0,123,123,57,1,58,congruent,down,down,congruent,Stim/Acon.png,down,0,-0.1,180,4,1000,incongruent,left,left,congruent,Stim/Aincon.png,left,-0.1,0,90,5,2000,stimuli\\,,,,,,,,,,,,
,,,,,,,,,,lga,1,2024-06-27_18h55.33.528,DCT_v1_online,2021.2.3,Win32,163.132137,,,0.312,2.038,269,up,1,0.6795,left,1,0.7834,2.188,0,124,124,72,1,73,incongruent,up,up,congruent,Stim/Aincon.png,up,0,0.1,0,5,100,incongruent,left,left,congruent,Stim/Aincon.png,left,-0.1,0,90,5,2000,stimuli\\,,,,,,,,,,,,
,,,,,,,,,,lga,1,2024-06-27_18h55.33.528,DCT_v1_online,2021.2.3,Win32,163.132137,,,0.041,2.309,270,up,1,0.9254,right,1,1.0685,2.459,0,125,125,98,1,99,incongruent,down,up,incongruent,Stim/Aincon.png,up,0,-0.1,0,7,100,congruent,left,right,incongruent,Stim/Acon.png,right,-0.1,0,-90,2,2000,stimuli\\,,,,,,,,,,,,
,,,,,,,,,,lga,1,2024-06-27_18h55.33.528,DCT_v1_online,2021.2.3,Win32,163.132137,,,0.112,3.138,271,up,1,0.5024,right,1,0.6694,2.388,0,126,126,11,1,12,congruent,up,up,congruent,Stim/Acon.png,up,0,0.1,0,1,1000,incongruent,left,right,incongruent,Stim/Aincon.png,right,-0.1,0,-90,6,2000,stimuli\\,,,,,,,,,,,,
,,,,,,,,,,lga,1,2024-06-27_18h55.33.528,DCT_v1_online,2021.2.3,Win32,163.132137,,,0.304,2.946,272,up,1,0.523,right,1,0.6108,2.196,0,127,127,15,1,16,congruent,up,up,congruent,Stim/Acon.png,up,0,0.1,0,1,1000,incongruent,right,right,congruent,Stim/Aincon.png,right,0.1,0,-90,8,2000,stimuli\\,,,,,,,,,,,,
,,,,,,,,,,lga,1,2024-06-27_18h55.33.528,DCT_v1_online,2021.2.3,Win32,163.132137,,,,,,,,,,,,,,,,,,,,,,,,,,,,,,,,,,,,,,,,,,space,33.0468,0,2,2,2,1,Instructions/i6.png,test,conditions/block1.xlsx,1.2,0.5
,,,,,,,,,,lga,1,2024-06-27_18h55.33.528,DCT_v1_online,2021.2.3,Win32,163.132137,space,2.1196,0.196,3.054,273,down,0,0.5259,right,1,0.4927,2.304,0,0,0,107,1,108,incongruent,down,up,incongruent,Stim/Aincon.png,up,0,-0.1,0,7,1000,incongruent,left,right,incongruent,Stim/Aincon.png,right,-0.1,0,-90,6,2000,stimuli\\,,,,,,,,,,,,
,,,,,,,,,,lga,1,2024-06-27_18h55.33.528,DCT_v1_online,2021.2.3,Win32,163.132137,,,0.465,1.885,274,down,1,0.7552,right,1,0.8309,2.035,0,1,1,54,1,55,congruent,down,down,congruent,Stim/Acon.png,down,0,-0.1,180,4,100,congruent,right,right,congruent,Stim/Acon.png,right,0.1,0,-90,4,2000,stimuli\\,,,,,,,,,,,,
,,,,,,,,,,lga,1,2024-06-27_18h55.33.528,DCT_v1_online,2021.2.3,Win32,163.132137,,,0.123,2.227,275,down,1,0.7686,left,1,0.8291,2.377,0,2,2,80,1,81,incongruent,up,down,incongruent,Stim/Aincon.png,down,0,0.1,180,6,100,congruent,left,left,congruent,Stim/Acon.png,left,-0.1,0,90,1,2000,stimuli\\,,,,,,,,,,,,
,,,,,,,,,,lga,1,2024-06-27_18h55.33.528,DCT_v1_online,2021.2.3,Win32,163.132137,,,0.379,1.971,276,up,1,0.564,right,1,0.6837,2.121,0,3,3,2,1,3,congruent,up,up,congruent,Stim/Acon.png,up,0,0.1,0,1,100,congruent,left,right,incongruent,Stim/Acon.png,right,-0.1,0,-90,2,2000,stimuli\\,,,,,,,,,,,,
,,,,,,,,,,lga,1,2024-06-27_18h55.33.528,DCT_v1_online,2021.2.3,Win32,163.132137,,,0.269,2.081,277,down,1,0.486,right,1,0.5741,2.231,0,4,4,22,1,23,congruent,up,down,incongruent,Stim/Acon.png,down,0,0.1,180,2,100,congruent,right,right,congruent,Stim/Acon.png,right,0.1,0,-90,4,2000,stimuli\\,,,,,,,,,,,,
,,,,,,,,,,lga,1,2024-06-27_18h55.33.528,DCT_v1_online,2021.2.3,Win32,163.132137,,,0.245,3.005,278,down,1,0.6358,right,1,0.5285,2.255,0,5,5,63,1,64,congruent,down,down,congruent,Stim/Acon.png,down,0,-0.1,180,4,1000,incongruent,right,right,congruent,Stim/Aincon.png,right,0.1,0,-90,8,2000,stimuli\\,,,,,,,,,,,,
,,,,,,,,,,lga,1,2024-06-27_18h55.33.528,DCT_v1_online,2021.2.3,Win32,163.132137,,,0.416,2.834,279,down,1,0.5203,left,1,0.5453,2.084,0,6,6,61,1,62,congruent,down,down,congruent,Stim/Acon.png,down,0,-0.1,180,4,1000,incongruent,right,left,incongruent,Stim/Aincon.png,left,0.1,0,90,7,2000,stimuli\\,,,,,,,,,,,,
,,,,,,,,,,lga,1,2024-06-27_18h55.33.528,DCT_v1_online,2021.2.3,Win32,163.132137,,,0.199,3.051,280,up,1,0.5447,left,1,0.5998,2.301,0,7,7,45,1,46,congruent,down,up,incongruent,Stim/Acon.png,up,0,-0.1,0,3,1000,incongruent,right,left,incongruent,Stim/Aincon.png,left,0.1,0,90,7,2000,stimuli\\,,,,,,,,,,,,
,,,,,,,,,,lga,1,2024-06-27_18h55.33.528,DCT_v1_online,2021.2.3,Win32,163.132137,,,0.076,2.274,281,up,1,0.9216,left,1,1.0847,2.424,0,8,8,104,1,105,incongruent,down,up,incongruent,Stim/Aincon.png,up,0,-0.1,0,7,100,incongruent,left,left,congruent,Stim/Aincon.png,left,-0.1,0,90,5,2000,stimuli\\,,,,,,,,,,,,
,,,,,,,,,,lga,1,2024-06-27_18h55.33.528,DCT_v1_online,2021.2.3,Win32,163.132137,,,0.244,3.006,282,down,1,0.6058,left,1,0.5334,2.256,0,9,9,53,1,54,congruent,down,down,congruent,Stim/Acon.png,down,0,-0.1,180,4,1000,congruent,right,left,incongruent,Stim/Acon.png,left,0.1,0,90,3,2000,stimuli\\,,,,,,,,,,,,
,,,,,,,,,,lga,1,2024-06-27_18h55.33.528,DCT_v1_online,2021.2.3,Win32,163.132137,,,0.424,2.826,283,up,1,0.5688,left,1,0.4639,2.076,0,10,10,69,1,70,incongruent,up,up,congruent,Stim/Aincon.png,up,0,0.1,0,5,1000,congruent,right,left,incongruent,Stim/Acon.png,left,0.1,0,90,3,2000,stimuli\\,,,,,,,,,,,,
,,,,,,,,,,lga,1,2024-06-27_18h55.33.528,DCT_v1_online,2021.2.3,Win32,163.132137,,,0.409,2.841,284,up,1,0.4485,right,1,0.509,2.091,0,11,11,15,1,16,congruent,up,up,congruent,Stim/Acon.png,up,0,0.1,0,1,1000,incongruent,right,right,congruent,Stim/Aincon.png,right,0.1,0,-90,8,2000,stimuli\\,,,,,,,,,,,,
,,,,,,,,,,lga,1,2024-06-27_18h55.33.528,DCT_v1_online,2021.2.3,Win32,163.132137,,,0.234,2.116,285,down,1,0.7515,left,1,0.9267,2.266,0,12,12,56,1,57,congruent,down,down,congruent,Stim/Acon.png,down,0,-0.1,180,4,100,incongruent,left,left,congruent,Stim/Aincon.png,left,-0.1,0,90,5,2000,stimuli\\,,,,,,,,,,,,
,,,,,,,,,,lga,1,2024-06-27_18h55.33.528,DCT_v1_online,2021.2.3,Win32,163.132137,,,0.274,2.976,286,up,1,0.8396,right,1,0.5731,2.226,0,13,13,99,1,100,incongruent,down,up,incongruent,Stim/Aincon.png,up,0,-0.1,0,7,1000,congruent,left,right,incongruent,Stim/Acon.png,right,-0.1,0,-90,2,2000,stimuli\\,,,,,,,,,,,,
,,,,,,,,,,lga,1,2024-06-27_18h55.33.528,DCT_v1_online,2021.2.3,Win32,163.132137,,,0.133,3.117,287,up,1,0.5051,left,1,0.4959,2.367,0,14,14,5,1,6,congruent,up,up,congruent,Stim/Acon.png,up,0,0.1,0,1,1000,congruent,right,left,incongruent,Stim/Acon.png,left,0.1,0,90,3,2000,stimuli\\,,,,,,,,,,,,
,,,,,,,,,,lga,1,2024-06-27_18h55.33.528,DCT_v1_online,2021.2.3,Win32,163.132137,,,0.181,2.169,288,up,1,0.7018,right,1,0.7803,2.319,0,15,15,34,1,35,congruent,down,up,incongruent,Stim/Acon.png,up,0,-0.1,0,3,100,congruent,left,right,incongruent,Stim/Acon.png,right,-0.1,0,-90,2,2000,stimuli\\,,,,,,,,,,,,
,,,,,,,,,,lga,1,2024-06-27_18h55.33.528,DCT_v1_online,2021.2.3,Win32,163.132137,,,0.358,1.992,289,up,1,0.8706,left,1,0.9524,2.142,0,16,16,68,1,69,incongruent,up,up,congruent,Stim/Aincon.png,up,0,0.1,0,5,100,congruent,right,left,incongruent,Stim/Acon.png,left,0.1,0,90,3,2000,stimuli\\,,,,,,,,,,,,
,,,,,,,,,,lga,1,2024-06-27_18h55.33.528,DCT_v1_online,2021.2.3,Win32,163.132137,,,0.312,2.938,290,up,1,0.5569,right,1,0.4581,2.188,0,17,17,35,1,36,congruent,down,up,incongruent,Stim/Acon.png,up,0,-0.1,0,3,1000,congruent,left,right,incongruent,Stim/Acon.png,right,-0.1,0,-90,2,2000,stimuli\\,,,,,,,,,,,,
,,,,,,,,,,lga,1,2024-06-27_18h55.33.528,DCT_v1_online,2021.2.3,Win32,163.132137,,,0.455,1.895,291,up,1,0.8214,right,1,0.9013,2.045,0,18,18,70,1,71,incongruent,up,up,congruent,Stim/Aincon.png,up,0,0.1,0,5,100,congruent,right,right,congruent,Stim/Acon.png,right,0.1,0,-90,4,2000,stimuli\\,,,,,,,,,,,,
,,,,,,,,,,lga,1,2024-06-27_18h55.33.528,DCT_v1_online,2021.2.3,Win32,163.132137,,,0.172,3.078,292,down,1,0.6846,right,1,0.6385,2.328,0,19,19,59,1,60,congruent,down,down,congruent,Stim/Acon.png,down,0,-0.1,180,4,1000,incongruent,left,right,incongruent,Stim/Aincon.png,right,-0.1,0,-90,6,2000,stimuli\\,,,,,,,,,,,,
,,,,,,,,,,lga,1,2024-06-27_18h55.33.528,DCT_v1_online,2021.2.3,Win32,163.132137,,,0.002,3.248,293,up,1,0.5251,left,0,0.445,2.498,0,20,20,43,1,44,congruent,down,up,incongruent,Stim/Acon.png,up,0,-0.1,0,3,1000,incongruent,left,right,incongruent,Stim/Aincon.png,right,-0.1,0,-90,6,2000,stimuli\\,,,,,,,,,,,,
,,,,,,,,,,lga,1,2024-06-27_18h55.33.528,DCT_v1_online,2021.2.3,Win32,163.132137,,,0.195,2.155,294,down,1,0.8671,right,1,1.0541,2.305,0,21,21,126,1,127,incongruent,down,down,congruent,Stim/Aincon.png,down,0,-0.1,180,8,100,incongruent,right,right,congruent,Stim/Aincon.png,right,0.1,0,-90,8,2000,stimuli\\,,,,,,,,,,,,
,,,,,,,,,,lga,1,2024-06-27_18h55.33.528,DCT_v1_online,2021.2.3,Win32,163.132137,,,0.109,2.241,295,up,1,1.0235,right,1,1.2299,2.391,0,22,22,110,1,111,incongruent,down,up,incongruent,Stim/Aincon.png,up,0,-0.1,0,7,100,incongruent,right,right,congruent,Stim/Aincon.png,right,0.1,0,-90,8,2000,stimuli\\,,,,,,,,,,,,
,,,,,,,,,,lga,1,2024-06-27_18h55.33.528,DCT_v1_online,2021.2.3,Win32,163.132137,,,0.135,2.215,296,down,1,0.7095,right,1,0.8286,2.365,0,23,23,18,1,19,congruent,up,down,incongruent,Stim/Acon.png,down,0,0.1,180,2,100,congruent,left,right,incongruent,Stim/Acon.png,right,-0.1,0,-90,2,2000,stimuli\\,,,,,,,,,,,,
,,,,,,,,,,lga,1,2024-06-27_18h55.33.528,DCT_v1_online,2021.2.3,Win32,163.132137,,,0.386,1.964,297,down,1,0.8164,left,1,0.94,2.114,0,24,24,20,1,21,congruent,up,down,incongruent,Stim/Acon.png,down,0,0.1,180,2,100,congruent,right,left,incongruent,Stim/Acon.png,left,0.1,0,90,3,2000,stimuli\\,,,,,,,,,,,,
,,,,,,,,,,lga,1,2024-06-27_18h55.33.528,DCT_v1_online,2021.2.3,Win32,163.132137,,,0.381,1.969,298,up,1,0.7476,right,1,0.8507,2.119,0,25,25,98,1,99,incongruent,down,up,incongruent,Stim/Aincon.png,up,0,-0.1,0,7,100,congruent,left,right,incongruent,Stim/Acon.png,right,-0.1,0,-90,2,2000,stimuli\\,,,,,,,,,,,,
,,,,,,,,,,lga,1,2024-06-27_18h55.33.528,DCT_v1_online,2021.2.3,Win32,163.132137,,,0.037,2.313,299,up,1,0.6106,left,1,0.6862,2.463,0,26,26,0,1,1,congruent,up,up,congruent,Stim/Acon.png,up,0,0.1,0,1,100,congruent,left,left,congruent,Stim/Acon.png,left,-0.1,0,90,1,2000,stimuli\\,,,,,,,,,,,,
,,,,,,,,,,lga,1,2024-06-27_18h55.33.528,DCT_v1_online,2021.2.3,Win32,163.132137,,,0.297,2.053,300,up,1,0.6125,right,1,0.6684,2.203,0,27,27,6,1,7,congruent,up,up,congruent,Stim/Acon.png,up,0,0.1,0,1,100,congruent,right,right,congruent,Stim/Acon.png,right,0.1,0,-90,4,2000,stimuli\\,,,,,,,,,,,,
,,,,,,,,,,lga,1,2024-06-27_18h55.33.528,DCT_v1_online,2021.2.3,Win32,163.132137,,,0.216,3.034,301,down,1,0.6928,left,1,0.4534,2.284,0,28,28,117,1,118,incongruent,down,down,congruent,Stim/Aincon.png,down,0,-0.1,180,8,1000,congruent,right,left,incongruent,Stim/Acon.png,left,0.1,0,90,3,2000,stimuli\\,,,,,,,,,,,,
,,,,,,,,,,lga,1,2024-06-27_18h55.33.528,DCT_v1_online,2021.2.3,Win32,163.132137,,,0.126,3.124,302,up,1,0.675,left,1,0.6085,2.374,0,29,29,77,1,78,incongruent,up,up,congruent,Stim/Aincon.png,up,0,0.1,0,5,1000,incongruent,right,left,incongruent,Stim/Aincon.png,left,0.1,0,90,7,2000,stimuli\\,,,,,,,,,,,,
,,,,,,,,,,lga,1,2024-06-27_18h55.33.528,DCT_v1_online,2021.2.3,Win32,163.132137,,,0.109,2.241,303,down,1,0.5667,left,1,0.686,2.391,0,30,30,24,1,25,congruent,up,down,incongruent,Stim/Acon.png,down,0,0.1,180,2,100,incongruent,left,left,congruent,Stim/Aincon.png,left,-0.1,0,90,5,2000,stimuli\\,,,,,,,,,,,,
,,,,,,,,,,lga,1,2024-06-27_18h55.33.528,DCT_v1_online,2021.2.3,Win32,163.132137,,,0.22,3.03,304,down,1,0.4959,left,1,0.4603,2.28,0,31,31,21,1,22,congruent,up,down,incongruent,Stim/Acon.png,down,0,0.1,180,2,1000,congruent,right,left,incongruent,Stim/Acon.png,left,0.1,0,90,3,2000,stimuli\\,,,,,,,,,,,,
,,,,,,,,,,lga,1,2024-06-27_18h55.33.528,DCT_v1_online,2021.2.3,Win32,163.132137,,,0.322,2.028,305,down,1,0.7633,left,1,0.8761,2.178,0,32,32,116,1,117,incongruent,down,down,congruent,Stim/Aincon.png,down,0,-0.1,180,8,100,congruent,right,left,incongruent,Stim/Acon.png,left,0.1,0,90,3,2000,stimuli\\,,,,,,,,,,,,
,,,,,,,,,,lga,1,2024-06-27_18h55.33.528,DCT_v1_online,2021.2.3,Win32,163.132137,,,0.255,2.095,306,up,1,0.6278,right,1,0.8173,2.245,0,33,33,42,1,43,congruent,down,up,incongruent,Stim/Acon.png,up,0,-0.1,0,3,100,incongruent,left,right,incongruent,Stim/Aincon.png,right,-0.1,0,-90,6,2000,stimuli\\,,,,,,,,,,,,
,,,,,,,,,,lga,1,2024-06-27_18h55.33.528,DCT_v1_online,2021.2.3,Win32,163.132137,,,0.238,2.112,307,down,1,0.8452,left,1,0.9901,2.262,0,34,34,120,1,121,incongruent,down,down,congruent,Stim/Aincon.png,down,0,-0.1,180,8,100,incongruent,left,left,congruent,Stim/Aincon.png,left,-0.1,0,90,5,2000,stimuli\\,,,,,,,,,,,,
,,,,,,,,,,lga,1,2024-06-27_18h55.33.528,DCT_v1_online,2021.2.3,Win32,163.132137,,,0.092,2.258,308,down,1,0.7711,right,1,0.8679,2.408,0,35,35,94,1,95,incongruent,up,down,incongruent,Stim/Aincon.png,down,0,0.1,180,6,100,incongruent,right,right,congruent,Stim/Aincon.png,right,0.1,0,-90,8,2000,stimuli\\,,,,,,,,,,,,
,,,,,,,,,,lga,1,2024-06-27_18h55.33.528,DCT_v1_online,2021.2.3,Win32,163.132137,,,0.112,2.238,309,up,1,0.6367,right,1,0.8242,2.388,0,36,36,10,1,11,congruent,up,up,congruent,Stim/Acon.png,up,0,0.1,0,1,100,incongruent,left,right,incongruent,Stim/Aincon.png,right,-0.1,0,-90,6,2000,stimuli\\,,,,,,,,,,,,
,,,,,,,,,,lga,1,2024-06-27_18h55.33.528,DCT_v1_online,2021.2.3,Win32,163.132137,,,0.111,3.139,310,up,1,0.5952,left,1,0.3949,2.389,0,37,37,33,1,34,congruent,down,up,incongruent,Stim/Acon.png,up,0,-0.1,0,3,1000,congruent,left,left,congruent,Stim/Acon.png,left,-0.1,0,90,1,2000,stimuli\\,,,,,,,,,,,,
,,,,,,,,,,lga,1,2024-06-27_18h55.33.528,DCT_v1_online,2021.2.3,Win32,163.132137,,,0.358,2.892,311,up,1,0.5334,right,1,0.6212,2.142,0,38,38,75,1,76,incongruent,up,up,congruent,Stim/Aincon.png,up,0,0.1,0,5,1000,incongruent,left,right,incongruent,Stim/Aincon.png,right,-0.1,0,-90,6,2000,stimuli\\,,,,,,,,,,,,
,,,,,,,,,,lga,1,2024-06-27_18h55.33.528,DCT_v1_online,2021.2.3,Win32,163.132137,,,0.449,2.801,312,up,1,0.7782,left,1,0.5262,2.051,0,39,39,97,1,98,incongruent,down,up,incongruent,Stim/Aincon.png,up,0,-0.1,0,7,1000,congruent,left,left,congruent,Stim/Acon.png,left,-0.1,0,90,1,2000,stimuli\\,,,,,,,,,,,,
,,,,,,,,,,lga,1,2024-06-27_18h55.33.528,DCT_v1_online,2021.2.3,Win32,163.132137,,,0.16,3.09,313,down,1,0.5071,left,1,0.5117,2.34,0,40,40,85,1,86,incongruent,up,down,incongruent,Stim/Aincon.png,down,0,0.1,180,6,1000,congruent,right,left,incongruent,Stim/Acon.png,left,0.1,0,90,3,2000,stimuli\\,,,,,,,,,,,,
,,,,,,,,,,lga,1,2024-06-27_18h55.33.528,DCT_v1_online,2021.2.3,Win32,163.132137,,,0.14,2.21,314,up,1,0.729,right,1,0.8962,2.36,0,41,41,78,1,79,incongruent,up,up,congruent,Stim/Aincon.png,up,0,0.1,0,5,100,incongruent,right,right,congruent,Stim/Aincon.png,right,0.1,0,-90,8,2000,stimuli\\,,,,,,,,,,,,
,,,,,,,,,,lga,1,2024-06-27_18h55.33.528,DCT_v1_online,2021.2.3,Win32,163.132137,,,0.283,2.067,315,down,1,0.8128,left,1,0.9394,2.217,0,42,42,112,1,113,incongruent,down,down,congruent,Stim/Aincon.png,down,0,-0.1,180,8,100,congruent,left,left,congruent,Stim/Acon.png,left,-0.1,0,90,1,2000,stimuli\\,,,,,,,,,,,,
,,,,,,,,,,lga,1,2024-06-27_18h55.33.528,DCT_v1_online,2021.2.3,Win32,163.132137,,,0.097,2.253,316,down,1,0.8005,left,1,0.909,2.403,0,43,43,88,1,89,incongruent,up,down,incongruent,Stim/Aincon.png,down,0,0.1,180,6,100,incongruent,left,left,congruent,Stim/Aincon.png,left,-0.1,0,90,5,2000,stimuli\\,,,,,,,,,,,,
,,,,,,,,,,lga,1,2024-06-27_18h55.33.528,DCT_v1_online,2021.2.3,Win32,163.132137,,,0.361,2.889,317,down,1,0.4983,left,1,0.3708,2.139,0,44,44,81,1,82,incongruent,up,down,incongruent,Stim/Aincon.png,down,0,0.1,180,6,1000,congruent,left,left,congruent,Stim/Acon.png,left,-0.1,0,90,1,2000,stimuli\\,,,,,,,,,,,,
,,,,,,,,,,lga,1,2024-06-27_18h55.33.528,DCT_v1_online,2021.2.3,Win32,163.132137,,,0.292,2.958,318,down,1,0.4726,right,1,0.5866,2.208,0,45,45,95,1,96,incongruent,up,down,incongruent,Stim/Aincon.png,down,0,0.1,180,6,1000,incongruent,right,right,congruent,Stim/Aincon.png,right,0.1,0,-90,8,2000,stimuli\\,,,,,,,,,,,,
,,,,,,,,,,lga,1,2024-06-27_18h55.33.528,DCT_v1_online,2021.2.3,Win32,163.132137,,,0.22,3.03,319,up,1,0.5513,left,1,0.6154,2.28,0,46,46,13,1,14,congruent,up,up,congruent,Stim/Acon.png,up,0,0.1,0,1,1000,incongruent,right,left,incongruent,Stim/Aincon.png,left,0.1,0,90,7,2000,stimuli\\,,,,,,,,,,,,
,,,,,,,,,,lga,1,2024-06-27_18h55.33.528,DCT_v1_online,2021.2.3,Win32,163.132137,,,0.225,2.125,320,down,1,0.7824,left,1,1.0328,2.275,0,47,47,60,1,61,congruent,down,down,congruent,Stim/Acon.png,down,0,-0.1,180,4,100,incongruent,right,left,incongruent,Stim/Aincon.png,left,0.1,0,90,7,2000,stimuli\\,,,,,,,,,,,,
,,,,,,,,,,lga,1,2024-06-27_18h55.33.528,DCT_v1_online,2021.2.3,Win32,163.132137,,,0.102,2.248,321,down,1,0.6245,right,1,0.7775,2.398,0,48,48,30,1,31,congruent,up,down,incongruent,Stim/Acon.png,down,0,0.1,180,2,100,incongruent,right,right,congruent,Stim/Aincon.png,right,0.1,0,-90,8,2000,stimuli\\,,,,,,,,,,,,
