﻿key_resp.keys,key_resp.rt,trials_2.thisRepN,trials_2.thisTrialN,trials_2.thisN,trials_2.thisIndex,trials_2.ran,stim_ins,size_insrx,size_insry,name,session,date,expName,psychopyVersion,OS,frameRate,key_resp_2.keys,key_resp_2.rt,注视点1,试次呈现时间+注视点2,count,key_resp_T1.keys,key_resp_T1.corr,key_resp_T1.rt,key_resp_T2.keys,key_resp_T2.corr,key_resp_T2.rt,注视点2,trials.thisRepN,trials.thisTrialN,trials.thisN,trials.thisIndex,trials.ran,TrialNumber,FlankerConditionT1,LocationT1,DirectionT1,LocationConditionT1,ImageT1,CorrectAnswerT1,PositionT1x,PositionT1y,anglefilpT1,ConditionT1,IntervalT1toT2,FlankerConditionT2,LocationT2,DirectionT2,LocationConditionT2,ImageT2,CorrectAnswerT2,PositionT2x,PositionT2y,anglefilpT2,ConditionT2,DurationFixation,TargetFilePath,key_resp_3.keys,key_resp_3.rt,trials_3.thisRepN,trials_3.thisTrialN,trials_3.thisN,trials_3.thisIndex,trials_3.ran,instr_p_t,block_type,cond,size_p_tx,size_p_ty
space,2.2523,0,0,0,0,1,Instructions/i1.png,1,0.4,,1,2024-06-28_13h36.55.568,DCT_v1_online,2021.2.3,Win32,60.04563468,,,,,,,,,,,,,,,,,,,,,,,,,,,,,,,,,,,,,,,,,,,,,,,,,,,,,
space,1.8258,0,1,1,1,1,Instructions/i2.png,1.4,0.85,,1,2024-06-28_13h36.55.568,DCT_v1_online,2021.2.3,Win32,60.04563468,,,,,,,,,,,,,,,,,,,,,,,,,,,,,,,,,,,,,,,,,,,,,,,,,,,,,
space,1.1362,0,2,2,2,1,Instructions/i3.png,1.2,0.85,,1,2024-06-28_13h36.55.568,DCT_v1_online,2021.2.3,Win32,60.04563468,,,,,,,,,,,,,,,,,,,,,,,,,,,,,,,,,,,,,,,,,,,,,,,,,,,,,
,,,,,,,,,,,1,2024-06-28_13h36.55.568,DCT_v1_online,2021.2.3,Win32,60.04563468,space,2.4923,0.252,2.098,1,up,1,0.671,right,1,0.7869,2.248,0,0,0,0,1,1,congruent,up,up,congruent,Stim/Acon.png,up,0,0.1,0,1,100,congruent,left,right,congruent,Stim/Acon.png,right,-0.1,0,-90,1,2000,stimuli\\,,,,,,,,,,,,
,,,,,,,,,,,1,2024-06-28_13h36.55.568,DCT_v1_online,2021.2.3,Win32,60.04563468,,,0.004,3.246,2,down,1,0.6726,left,1,0.6239,2.496,0,1,1,7,1,50,congruent,down,down,congruent,Stim/Acon.png,down,0,-0.1,180,4,1000,incongruent,left,left,congruent,Stim/Aincon.png,left,-0.1,0,90,1,2000,stimuli\\,,,,,,,,,,,,
,,,,,,,,,,,1,2024-06-28_13h36.55.568,DCT_v1_online,2021.2.3,Win32,60.04563468,,,0.014,2.336,3,down,1,0.7651,left,0,0.8586,2.486,0,2,2,14,1,113,incongruent,down,down,congruent,Stim/Aincon.png,down,0,-0.1,180,8,100,incongruent,left,right,congruent,Stim/Aincon.png,right,-0.1,0,-90,1,2000,stimuli\\,,,,,,,,,,,,
,,,,,,,,,,,1,2024-06-28_13h36.55.568,DCT_v1_online,2021.2.3,Win32,60.04563468,,,0.383,1.967,4,down,1,0.6755,left,1,0.8339,2.117,0,3,3,6,1,49,congruent,down,down,congruent,Stim/Acon.png,down,0,-0.1,180,4,100,incongruent,left,left,congruent,Stim/Aincon.png,left,-0.1,0,90,1,2000,stimuli\\,,,,,,,,,,,,
,,,,,,,,,,,1,2024-06-28_13h36.55.568,DCT_v1_online,2021.2.3,Win32,60.04563468,,,0.234,2.116,5,up,1,0.6388,right,1,0.7544,2.266,0,4,4,8,1,65,incongruent,up,up,congruent,Stim/Aincon.png,up,0,0.1,0,5,100,congruent,left,right,congruent,Stim/Acon.png,right,-0.1,0,-90,1,2000,stimuli\\,,,,,,,,,,,,
,,,,,,,,,,,1,2024-06-28_13h36.55.568,DCT_v1_online,2021.2.3,Win32,60.04563468,,,0.366,1.984,6,down,1,0.6339,right,1,0.7458,2.134,0,5,5,10,1,81,incongruent,up,down,incongruent,Stim/Aincon.png,down,0,0.1,180,6,100,congruent,left,right,congruent,Stim/Acon.png,right,-0.1,0,-90,1,2000,stimuli\\,,,,,,,,,,,,
,,,,,,,,,,,1,2024-06-28_13h36.55.568,DCT_v1_online,2021.2.3,Win32,60.04563468,,,0.489,2.761,7,down,1,0.5196,right,1,0.5341,2.011,0,6,6,3,1,18,congruent,up,down,incongruent,Stim/Acon.png,down,0,0.1,180,2,1000,congruent,left,right,congruent,Stim/Acon.png,right,-0.1,0,-90,1,2000,stimuli\\,,,,,,,,,,,,
,,,,,,,,,,,1,2024-06-28_13h36.55.568,DCT_v1_online,2021.2.3,Win32,60.04563468,,,0.225,3.025,8,up,1,0.4377,right,1,0.4932,2.275,0,7,7,1,1,2,congruent,up,up,congruent,Stim/Acon.png,up,0,0.1,0,1,1000,congruent,left,right,congruent,Stim/Acon.png,right,-0.1,0,-90,1,2000,stimuli\\,,,,,,,,,,,,
,,,,,,,,,,,1,2024-06-28_13h36.55.568,DCT_v1_online,2021.2.3,Win32,60.04563468,,,0.187,2.163,9,down,1,0.4601,right,1,0.6004,2.313,0,8,8,2,1,17,congruent,up,down,incongruent,Stim/Acon.png,down,0,0.1,180,2,100,congruent,left,right,congruent,Stim/Acon.png,right,-0.1,0,-90,1,2000,stimuli\\,,,,,,,,,,,,
,,,,,,,,,,,1,2024-06-28_13h36.55.568,DCT_v1_online,2021.2.3,Win32,60.04563468,,,0.456,2.794,10,up,1,0.607,left,1,0.4731,2.044,0,9,9,5,1,34,congruent,down,up,incongruent,Stim/Acon.png,up,0,-0.1,0,3,1000,incongruent,left,left,congruent,Stim/Aincon.png,left,-0.1,0,90,1,2000,stimuli\\,,,,,,,,,,,,
,,,,,,,,,,,1,2024-06-28_13h36.55.568,DCT_v1_online,2021.2.3,Win32,60.04563468,,,0.312,2.938,11,down,1,0.5874,right,1,0.4351,2.188,0,10,10,11,1,82,incongruent,up,down,incongruent,Stim/Aincon.png,down,0,0.1,180,6,1000,congruent,left,right,congruent,Stim/Acon.png,right,-0.1,0,-90,1,2000,stimuli\\,,,,,,,,,,,,
,,,,,,,,,,,1,2024-06-28_13h36.55.568,DCT_v1_online,2021.2.3,Win32,60.04563468,,,0.461,1.889,12,up,1,0.6061,left,1,0.7591,2.039,0,11,11,4,1,33,congruent,down,up,incongruent,Stim/Acon.png,up,0,-0.1,0,3,100,incongruent,left,left,congruent,Stim/Aincon.png,left,-0.1,0,90,1,2000,stimuli\\,,,,,,,,,,,,
,,,,,,,,,,,1,2024-06-28_13h36.55.568,DCT_v1_online,2021.2.3,Win32,60.04563468,,,0.341,2.909,13,up,1,0.7216,left,1,0.7105,2.159,0,12,12,13,1,112,incongruent,down,up,incongruent,Stim/Aincon.png,up,0,-0.1,0,7,1000,incongruent,right,left,congruent,Stim/Aincon.png,left,0.1,0,90,8,2000,stimuli\\,,,,,,,,,,,,
,,,,,,,,,,,1,2024-06-28_13h36.55.568,DCT_v1_online,2021.2.3,Win32,60.04563468,,,0.427,2.823,14,down,1,0.726,right,1,0.5045,2.073,0,13,13,15,1,114,incongruent,down,down,congruent,Stim/Aincon.png,down,0,-0.1,180,8,1000,incongruent,left,right,congruent,Stim/Aincon.png,right,-0.1,0,-90,1,2000,stimuli\\,,,,,,,,,,,,
,,,,,,,,,,,1,2024-06-28_13h36.55.568,DCT_v1_online,2021.2.3,Win32,60.04563468,,,0.498,2.752,15,up,1,0.6442,right,1,0.5685,2.002,0,14,14,9,1,66,incongruent,up,up,congruent,Stim/Aincon.png,up,0,0.1,0,5,1000,congruent,left,right,congruent,Stim/Acon.png,right,-0.1,0,-90,1,2000,stimuli\\,,,,,,,,,,,,
,,,,,,,,,,,1,2024-06-28_13h36.55.568,DCT_v1_online,2021.2.3,Win32,60.04563468,,,0.197,2.153,16,up,1,0.8829,left,1,1.0398,2.303,0,15,15,12,1,111,incongruent,down,up,incongruent,Stim/Aincon.png,up,0,-0.1,0,7,100,incongruent,right,left,congruent,Stim/Aincon.png,left,0.1,0,90,8,2000,stimuli\\,,,,,,,,,,,,
,,,,,,,,,,,1,2024-06-28_13h36.55.568,DCT_v1_online,2021.2.3,Win32,60.04563468,,,,,,,,,,,,,,,,,,,,,,,,,,,,,,,,,,,,,,,,,,space,3.4516,0,0,0,0,1,Instructions/i4.png,pra,conditions/blockpra.xlsx,0.8,0.45
,,,,,,,,,,,1,2024-06-28_13h36.55.568,DCT_v1_online,2021.2.3,Win32,60.04563468,space,7.0095,0.429,1.921,17,up,1,0.7693,left,1,0.8421,2.071,0,0,0,104,1,105,incongruent,down,up,incongruent,Stim/Aincon.png,up,0,-0.1,0,7,100,incongruent,left,left,congruent,Stim/Aincon.png,left,-0.1,0,90,5,2000,stimuli\\,,,,,,,,,,,,
,,,,,,,,,,,1,2024-06-28_13h36.55.568,DCT_v1_online,2021.2.3,Win32,60.04563468,,,0.185,3.065,18,down,1,0.8121,left,1,0.5866,2.315,0,1,1,125,1,126,incongruent,down,down,congruent,Stim/Aincon.png,down,0,-0.1,180,8,1000,incongruent,right,left,incongruent,Stim/Aincon.png,left,0.1,0,90,7,2000,stimuli\\,,,,,,,,,,,,
,,,,,,,,,,,1,2024-06-28_13h36.55.568,DCT_v1_online,2021.2.3,Win32,60.04563468,,,0.201,3.049,19,up,1,0.4433,left,1,0.5839,2.299,0,2,2,13,1,14,congruent,up,up,congruent,Stim/Acon.png,up,0,0.1,0,1,1000,incongruent,right,left,incongruent,Stim/Aincon.png,left,0.1,0,90,7,2000,stimuli\\,,,,,,,,,,,,
,,,,,,,,,,,1,2024-06-28_13h36.55.568,DCT_v1_online,2021.2.3,Win32,60.04563468,,,0.129,2.221,20,down,1,0.8717,right,1,0.9611,2.371,0,3,3,30,1,31,congruent,up,down,incongruent,Stim/Acon.png,down,0,0.1,180,2,100,incongruent,right,right,congruent,Stim/Aincon.png,right,0.1,0,-90,8,2000,stimuli\\,,,,,,,,,,,,
,,,,,,,,,,,1,2024-06-28_13h36.55.568,DCT_v1_online,2021.2.3,Win32,60.04563468,,,0.137,3.113,21,down,1,0.6082,right,1,0.4839,2.363,0,4,4,115,1,116,incongruent,down,down,congruent,Stim/Aincon.png,down,0,-0.1,180,8,1000,congruent,left,right,incongruent,Stim/Acon.png,right,-0.1,0,-90,2,2000,stimuli\\,,,,,,,,,,,,
,,,,,,,,,,,1,2024-06-28_13h36.55.568,DCT_v1_online,2021.2.3,Win32,60.04563468,,,0.468,1.882,22,down,1,0.6973,right,1,0.8335,2.032,0,5,5,62,1,63,congruent,down,down,congruent,Stim/Acon.png,down,0,-0.1,180,4,100,incongruent,right,right,congruent,Stim/Aincon.png,right,0.1,0,-90,8,2000,stimuli\\,,,,,,,,,,,,
,,,,,,,,,,,1,2024-06-28_13h36.55.568,DCT_v1_online,2021.2.3,Win32,60.04563468,,,0.481,2.769,23,up,1,0.5185,left,1,0.4381,2.019,0,6,6,65,1,66,incongruent,up,up,congruent,Stim/Aincon.png,up,0,0.1,0,5,1000,congruent,left,left,congruent,Stim/Acon.png,left,-0.1,0,90,1,2000,stimuli\\,,,,,,,,,,,,
,,,,,,,,,,,1,2024-06-28_13h36.55.568,DCT_v1_online,2021.2.3,Win32,60.04563468,,,0.369,1.981,24,up,1,0.5937,left,1,0.7323,2.131,0,7,7,64,1,65,incongruent,up,up,congruent,Stim/Aincon.png,up,0,0.1,0,5,100,congruent,left,left,congruent,Stim/Acon.png,left,-0.1,0,90,1,2000,stimuli\\,,,,,,,,,,,,
,,,,,,,,,,,1,2024-06-28_13h36.55.568,DCT_v1_online,2021.2.3,Win32,60.04563468,,,0.435,1.915,25,down,1,0.6398,left,1,0.7555,2.065,0,8,8,80,1,81,incongruent,up,down,incongruent,Stim/Aincon.png,down,0,0.1,180,6,100,congruent,left,left,congruent,Stim/Acon.png,left,-0.1,0,90,1,2000,stimuli\\,,,,,,,,,,,,
,,,,,,,,,,,1,2024-06-28_13h36.55.568,DCT_v1_online,2021.2.3,Win32,60.04563468,,,0.213,2.137,26,down,1,0.6648,left,1,0.7817,2.287,0,9,9,24,1,25,congruent,up,down,incongruent,Stim/Acon.png,down,0,0.1,180,2,100,incongruent,left,left,congruent,Stim/Aincon.png,left,-0.1,0,90,5,2000,stimuli\\,,,,,,,,,,,,
,,,,,,,,,,,1,2024-06-28_13h36.55.568,DCT_v1_online,2021.2.3,Win32,60.04563468,,,0.004,3.246,27,down,1,0.6787,left,1,0.3944,2.496,0,10,10,49,1,50,congruent,down,down,congruent,Stim/Acon.png,down,0,-0.1,180,4,1000,congruent,left,left,congruent,Stim/Acon.png,left,-0.1,0,90,1,2000,stimuli\\,,,,,,,,,,,,
,,,,,,,,,,,1,2024-06-28_13h36.55.568,DCT_v1_online,2021.2.3,Win32,60.04563468,,,0.298,2.952,28,down,1,0.5306,left,1,0.4089,2.202,0,11,11,81,1,82,incongruent,up,down,incongruent,Stim/Aincon.png,down,0,0.1,180,6,1000,congruent,left,left,congruent,Stim/Acon.png,left,-0.1,0,90,1,2000,stimuli\\,,,,,,,,,,,,
,,,,,,,,,,,1,2024-06-28_13h36.55.568,DCT_v1_online,2021.2.3,Win32,60.04563468,,,0.348,2.002,29,up,1,0.4601,left,1,0.5516,2.152,0,12,12,0,1,1,congruent,up,up,congruent,Stim/Acon.png,up,0,0.1,0,1,100,congruent,left,left,congruent,Stim/Acon.png,left,-0.1,0,90,1,2000,stimuli\\,,,,,,,,,,,,
,,,,,,,,,,,1,2024-06-28_13h36.55.568,DCT_v1_online,2021.2.3,Win32,60.04563468,,,0.186,3.064,30,up,1,0.4664,right,1,0.5627,2.314,0,13,13,71,1,72,incongruent,up,up,congruent,Stim/Aincon.png,up,0,0.1,0,5,1000,congruent,right,right,congruent,Stim/Acon.png,right,0.1,0,-90,4,2000,stimuli\\,,,,,,,,,,,,
,,,,,,,,,,,1,2024-06-28_13h36.55.568,DCT_v1_online,2021.2.3,Win32,60.04563468,,,0.282,2.968,31,up,1,0.4506,left,1,0.5292,2.218,0,14,14,9,1,10,congruent,up,up,congruent,Stim/Acon.png,up,0,0.1,0,1,1000,incongruent,left,left,congruent,Stim/Aincon.png,left,-0.1,0,90,5,2000,stimuli\\,,,,,,,,,,,,
,,,,,,,,,,,1,2024-06-28_13h36.55.568,DCT_v1_online,2021.2.3,Win32,60.04563468,,,0.056,3.194,32,down,1,0.6561,left,1,0.4302,2.444,0,15,15,113,1,114,incongruent,down,down,congruent,Stim/Aincon.png,down,0,-0.1,180,8,1000,congruent,left,left,congruent,Stim/Acon.png,left,-0.1,0,90,1,2000,stimuli\\,,,,,,,,,,,,
,,,,,,,,,,,1,2024-06-28_13h36.55.568,DCT_v1_online,2021.2.3,Win32,60.04563468,,,0.191,3.059,33,down,1,0.4579,left,1,0.6186,2.309,0,16,16,29,1,30,congruent,up,down,incongruent,Stim/Acon.png,down,0,0.1,180,2,1000,incongruent,right,left,incongruent,Stim/Aincon.png,left,0.1,0,90,7,2000,stimuli\\,,,,,,,,,,,,
,,,,,,,,,,,1,2024-06-28_13h36.55.568,DCT_v1_online,2021.2.3,Win32,60.04563468,,,0.477,1.873,34,down,1,0.467,right,1,0.7068,2.023,0,17,17,94,1,95,incongruent,up,down,incongruent,Stim/Aincon.png,down,0,0.1,180,6,100,incongruent,right,right,congruent,Stim/Aincon.png,right,0.1,0,-90,8,2000,stimuli\\,,,,,,,,,,,,
,,,,,,,,,,,1,2024-06-28_13h36.55.568,DCT_v1_online,2021.2.3,Win32,60.04563468,,,0.477,1.873,35,up,1,0.5727,left,1,0.7292,2.023,0,18,18,12,1,13,congruent,up,up,congruent,Stim/Acon.png,up,0,0.1,0,1,100,incongruent,right,left,incongruent,Stim/Aincon.png,left,0.1,0,90,7,2000,stimuli\\,,,,,,,,,,,,
,,,,,,,,,,,1,2024-06-28_13h36.55.568,DCT_v1_online,2021.2.3,Win32,60.04563468,,,0.268,2.082,36,up,1,0.8169,right,1,0.9865,2.232,0,19,19,106,1,107,incongruent,down,up,incongruent,Stim/Aincon.png,up,0,-0.1,0,7,100,incongruent,left,right,incongruent,Stim/Aincon.png,right,-0.1,0,-90,6,2000,stimuli\\,,,,,,,,,,,,
,,,,,,,,,,,1,2024-06-28_13h36.55.568,DCT_v1_online,2021.2.3,Win32,60.04563468,,,0.097,2.253,37,down,1,0.5411,left,1,0.6765,2.403,0,20,20,88,1,89,incongruent,up,down,incongruent,Stim/Aincon.png,down,0,0.1,180,6,100,incongruent,left,left,congruent,Stim/Aincon.png,left,-0.1,0,90,5,2000,stimuli\\,,,,,,,,,,,,
,,,,,,,,,,,1,2024-06-28_13h36.55.568,DCT_v1_online,2021.2.3,Win32,60.04563468,,,0.34,2.91,38,up,1,0.6608,right,1,0.551,2.16,0,21,21,103,1,104,incongruent,down,up,incongruent,Stim/Aincon.png,up,0,-0.1,0,7,1000,congruent,right,right,congruent,Stim/Acon.png,right,0.1,0,-90,4,2000,stimuli\\,,,,,,,,,,,,
,,,,,,,,,,,1,2024-06-28_13h36.55.568,DCT_v1_online,2021.2.3,Win32,60.04563468,,,0.002,3.248,39,up,1,0.7708,left,1,0.5313,2.498,0,22,22,105,1,106,incongruent,down,up,incongruent,Stim/Aincon.png,up,0,-0.1,0,7,1000,incongruent,left,left,congruent,Stim/Aincon.png,left,-0.1,0,90,5,2000,stimuli\\,,,,,,,,,,,,
,,,,,,,,,,,1,2024-06-28_13h36.55.568,DCT_v1_online,2021.2.3,Win32,60.04563468,,,0.169,3.081,40,down,1,0.6503,right,1,0.6007,2.331,0,23,23,119,1,120,incongruent,down,down,congruent,Stim/Aincon.png,down,0,-0.1,180,8,1000,congruent,right,right,congruent,Stim/Acon.png,right,0.1,0,-90,4,2000,stimuli\\,,,,,,,,,,,,
,,,,,,,,,,,1,2024-06-28_13h36.55.568,DCT_v1_online,2021.2.3,Win32,60.04563468,,,0.332,2.918,41,up,1,0.592,left,1,0.5364,2.168,0,24,24,45,1,46,congruent,down,up,incongruent,Stim/Acon.png,up,0,-0.1,0,3,1000,incongruent,right,left,incongruent,Stim/Aincon.png,left,0.1,0,90,7,2000,stimuli\\,,,,,,,,,,,,
,,,,,,,,,,,1,2024-06-28_13h36.55.568,DCT_v1_online,2021.2.3,Win32,60.04563468,,,0.058,2.292,42,up,1,0.6109,right,1,0.7042,2.442,0,25,25,34,1,35,congruent,down,up,incongruent,Stim/Acon.png,up,0,-0.1,0,3,100,congruent,left,right,incongruent,Stim/Acon.png,right,-0.1,0,-90,2,2000,stimuli\\,,,,,,,,,,,,
,,,,,,,,,,,1,2024-06-28_13h36.55.568,DCT_v1_online,2021.2.3,Win32,60.04563468,,,0.105,3.145,43,up,1,0.7663,right,1,0.5596,2.395,0,26,26,99,1,100,incongruent,down,up,incongruent,Stim/Aincon.png,up,0,-0.1,0,7,1000,congruent,left,right,incongruent,Stim/Acon.png,right,-0.1,0,-90,2,2000,stimuli\\,,,,,,,,,,,,
,,,,,,,,,,,1,2024-06-28_13h36.55.568,DCT_v1_online,2021.2.3,Win32,60.04563468,,,0.461,2.789,44,up,1,0.5004,right,1,0.6217,2.039,0,27,27,15,1,16,congruent,up,up,congruent,Stim/Acon.png,up,0,0.1,0,1,1000,incongruent,right,right,congruent,Stim/Aincon.png,right,0.1,0,-90,8,2000,stimuli\\,,,,,,,,,,,,
,,,,,,,,,,,1,2024-06-28_13h36.55.568,DCT_v1_online,2021.2.3,Win32,60.04563468,,,0.028,3.222,45,up,1,0.5156,right,1,0.5948,2.472,0,28,28,7,1,8,congruent,up,up,congruent,Stim/Acon.png,up,0,0.1,0,1,1000,congruent,right,right,congruent,Stim/Acon.png,right,0.1,0,-90,4,2000,stimuli\\,,,,,,,,,,,,
,,,,,,,,,,,1,2024-06-28_13h36.55.568,DCT_v1_online,2021.2.3,Win32,60.04563468,,,0.458,1.892,46,down,1,0.5486,right,1,0.6584,2.042,0,29,29,22,1,23,congruent,up,down,incongruent,Stim/Acon.png,down,0,0.1,180,2,100,congruent,right,right,congruent,Stim/Acon.png,right,0.1,0,-90,4,2000,stimuli\\,,,,,,,,,,,,
,,,,,,,,,,,1,2024-06-28_13h36.55.568,DCT_v1_online,2021.2.3,Win32,60.04563468,,,0.468,2.782,47,down,1,0.6303,right,1,0.69,2.032,0,30,30,91,1,92,incongruent,up,down,incongruent,Stim/Aincon.png,down,0,0.1,180,6,1000,incongruent,left,right,incongruent,Stim/Aincon.png,right,-0.1,0,-90,6,2000,stimuli\\,,,,,,,,,,,,
,,,,,,,,,,,1,2024-06-28_13h36.55.568,DCT_v1_online,2021.2.3,Win32,60.04563468,,,0.497,2.753,48,up,0,0.6005,left,1,0.5958,2.003,0,31,31,121,1,122,incongruent,down,down,congruent,Stim/Aincon.png,down,0,-0.1,180,8,1000,incongruent,left,left,congruent,Stim/Aincon.png,left,-0.1,0,90,5,2000,stimuli\\,,,,,,,,,,,,
,,,,,,,,,,,1,2024-06-28_13h36.55.568,DCT_v1_online,2021.2.3,Win32,60.04563468,,,0.011,2.339,49,up,1,0.6512,left,1,0.7448,2.489,0,32,32,36,1,37,congruent,down,up,incongruent,Stim/Acon.png,up,0,-0.1,0,3,100,congruent,right,left,incongruent,Stim/Acon.png,left,0.1,0,90,3,2000,stimuli\\,,,,,,,,,,,,
,,,,,,,,,,,1,2024-06-28_13h36.55.568,DCT_v1_online,2021.2.3,Win32,60.04563468,,,0.003,2.347,50,up,1,0.6665,left,1,0.8192,2.497,0,33,33,68,1,69,incongruent,up,up,congruent,Stim/Aincon.png,up,0,0.1,0,5,100,congruent,right,left,incongruent,Stim/Acon.png,left,0.1,0,90,3,2000,stimuli\\,,,,,,,,,,,,
,,,,,,,,,,,1,2024-06-28_13h36.55.568,DCT_v1_online,2021.2.3,Win32,60.04563468,,,0.041,2.309,51,down,1,0.7242,left,1,0.8379,2.459,0,34,34,124,1,125,incongruent,down,down,congruent,Stim/Aincon.png,down,0,-0.1,180,8,100,incongruent,right,left,incongruent,Stim/Aincon.png,left,0.1,0,90,7,2000,stimuli\\,,,,,,,,,,,,
,,,,,,,,,,,1,2024-06-28_13h36.55.568,DCT_v1_online,2021.2.3,Win32,60.04563468,,,0.373,2.877,52,down,1,0.6345,right,1,0.5182,2.127,0,35,35,55,1,56,congruent,down,down,congruent,Stim/Acon.png,down,0,-0.1,180,4,1000,congruent,right,right,congruent,Stim/Acon.png,right,0.1,0,-90,4,2000,stimuli\\,,,,,,,,,,,,
,,,,,,,,,,,1,2024-06-28_13h36.55.568,DCT_v1_online,2021.2.3,Win32,60.04563468,,,0,2.35,53,up,1,0.5032,right,1,0.7025,2.5,0,36,36,10,1,11,congruent,up,up,congruent,Stim/Acon.png,up,0,0.1,0,1,100,incongruent,left,right,incongruent,Stim/Aincon.png,right,-0.1,0,-90,6,2000,stimuli\\,,,,,,,,,,,,
,,,,,,,,,,,1,2024-06-28_13h36.55.568,DCT_v1_online,2021.2.3,Win32,60.04563468,,,0.288,2.962,54,up,1,0.6173,right,1,0.6452,2.212,0,37,37,107,1,108,incongruent,down,up,incongruent,Stim/Aincon.png,up,0,-0.1,0,7,1000,incongruent,left,right,incongruent,Stim/Aincon.png,right,-0.1,0,-90,6,2000,stimuli\\,,,,,,,,,,,,
,,,,,,,,,,,1,2024-06-28_13h36.55.568,DCT_v1_online,2021.2.3,Win32,60.04563468,,,0.287,2.963,55,up,1,0.6026,left,1,0.4923,2.213,0,38,38,73,1,74,incongruent,up,up,congruent,Stim/Aincon.png,up,0,0.1,0,5,1000,incongruent,left,left,congruent,Stim/Aincon.png,left,-0.1,0,90,5,2000,stimuli\\,,,,,,,,,,,,
,,,,,,,,,,,1,2024-06-28_13h36.55.568,DCT_v1_online,2021.2.3,Win32,60.04563468,,,0.498,2.752,56,down,1,0.6427,right,1,0.5507,2.002,0,39,39,123,1,124,incongruent,down,down,congruent,Stim/Aincon.png,down,0,-0.1,180,8,1000,incongruent,left,right,incongruent,Stim/Aincon.png,right,-0.1,0,-90,6,2000,stimuli\\,,,,,,,,,,,,
,,,,,,,,,,,1,2024-06-28_13h36.55.568,DCT_v1_online,2021.2.3,Win32,60.04563468,,,0.309,2.941,57,down,1,0.5517,left,1,0.6015,2.191,0,40,40,61,1,62,congruent,down,down,congruent,Stim/Acon.png,down,0,-0.1,180,4,1000,incongruent,right,left,incongruent,Stim/Aincon.png,left,0.1,0,90,7,2000,stimuli\\,,,,,,,,,,,,
,,,,,,,,,,,1,2024-06-28_13h36.55.568,DCT_v1_online,2021.2.3,Win32,60.04563468,,,0.131,2.219,58,up,1,0.5348,right,1,0.6686,2.369,0,41,41,2,1,3,congruent,up,up,congruent,Stim/Acon.png,up,0,0.1,0,1,100,congruent,left,right,incongruent,Stim/Acon.png,right,-0.1,0,-90,2,2000,stimuli\\,,,,,,,,,,,,
,,,,,,,,,,,1,2024-06-28_13h36.55.568,DCT_v1_online,2021.2.3,Win32,60.04563468,,,0.462,1.888,59,up,1,0.6569,right,1,0.7917,2.038,0,42,42,74,1,75,incongruent,up,up,congruent,Stim/Aincon.png,up,0,0.1,0,5,100,incongruent,left,right,incongruent,Stim/Aincon.png,right,-0.1,0,-90,6,2000,stimuli\\,,,,,,,,,,,,
,,,,,,,,,,,1,2024-06-28_13h36.55.568,DCT_v1_online,2021.2.3,Win32,60.04563468,,,0.407,2.843,60,down,1,0.5617,right,1,0.5893,2.093,0,43,43,31,1,32,congruent,up,down,incongruent,Stim/Acon.png,down,0,0.1,180,2,1000,incongruent,right,right,congruent,Stim/Aincon.png,right,0.1,0,-90,8,2000,stimuli\\,,,,,,,,,,,,
,,,,,,,,,,,1,2024-06-28_13h36.55.568,DCT_v1_online,2021.2.3,Win32,60.04563468,,,0.134,2.216,61,up,1,0.9507,right,1,1.066,2.366,0,44,44,98,1,99,incongruent,down,up,incongruent,Stim/Aincon.png,up,0,-0.1,0,7,100,congruent,left,right,incongruent,Stim/Acon.png,right,-0.1,0,-90,2,2000,stimuli\\,,,,,,,,,,,,
,,,,,,,,,,,1,2024-06-28_13h36.55.568,DCT_v1_online,2021.2.3,Win32,60.04563468,,,0.156,2.194,62,up,1,0.7309,left,1,0.8242,2.344,0,45,45,40,1,41,congruent,down,up,incongruent,Stim/Acon.png,up,0,-0.1,0,3,100,incongruent,left,left,congruent,Stim/Aincon.png,left,-0.1,0,90,5,2000,stimuli\\,,,,,,,,,,,,
,,,,,,,,,,,1,2024-06-28_13h36.55.568,DCT_v1_online,2021.2.3,Win32,60.04563468,,,0.178,2.172,63,up,1,0.8176,right,1,0.9377,2.322,0,46,46,110,1,111,incongruent,down,up,incongruent,Stim/Aincon.png,up,0,-0.1,0,7,100,incongruent,right,right,congruent,Stim/Aincon.png,right,0.1,0,-90,8,2000,stimuli\\,,,,,,,,,,,,
,,,,,,,,,,,1,2024-06-28_13h36.55.568,DCT_v1_online,2021.2.3,Win32,60.04563468,,,0.304,2.046,64,up,1,0.7033,right,1,0.8123,2.196,0,47,47,78,1,79,incongruent,up,up,congruent,Stim/Aincon.png,up,0,0.1,0,5,100,incongruent,right,right,congruent,Stim/Aincon.png,right,0.1,0,-90,8,2000,stimuli\\,,,,,,,,,,,,
,,,,,,,,,,,1,2024-06-28_13h36.55.568,DCT_v1_online,2021.2.3,Win32,60.04563468,,,0.423,1.927,65,down,1,0.6064,right,1,0.6744,2.077,0,48,48,18,1,19,congruent,up,down,incongruent,Stim/Acon.png,down,0,0.1,180,2,100,congruent,left,right,incongruent,Stim/Acon.png,right,-0.1,0,-90,2,2000,stimuli\\,,,,,,,,,,,,
,,,,,,,,,,,1,2024-06-28_13h36.55.568,DCT_v1_online,2021.2.3,Win32,60.04563468,,,0.353,2.897,66,up,1,0.4862,left,1,0.4983,2.147,0,49,49,1,1,2,congruent,up,up,congruent,Stim/Acon.png,up,0,0.1,0,1,1000,congruent,left,left,congruent,Stim/Acon.png,left,-0.1,0,90,1,2000,stimuli\\,,,,,,,,,,,,
,,,,,,,,,,,1,2024-06-28_13h36.55.568,DCT_v1_online,2021.2.3,Win32,60.04563468,,,0.056,3.194,67,down,1,0.5768,right,1,0.5275,2.444,0,50,50,87,1,88,incongruent,up,down,incongruent,Stim/Aincon.png,down,0,0.1,180,6,1000,congruent,right,right,congruent,Stim/Acon.png,right,0.1,0,-90,4,2000,stimuli\\,,,,,,,,,,,,
,,,,,,,,,,,1,2024-06-28_13h36.55.568,DCT_v1_online,2021.2.3,Win32,60.04563468,,,0.422,2.828,68,up,1,0.5515,right,1,0.4507,2.078,0,51,51,35,1,36,congruent,down,up,incongruent,Stim/Acon.png,up,0,-0.1,0,3,1000,congruent,left,right,incongruent,Stim/Acon.png,right,-0.1,0,-90,2,2000,stimuli\\,,,,,,,,,,,,
,,,,,,,,,,,1,2024-06-28_13h36.55.568,DCT_v1_online,2021.2.3,Win32,60.04563468,,,0.071,2.279,69,up,1,0.6084,left,1,0.6811,2.429,0,52,52,32,1,33,congruent,down,up,incongruent,Stim/Acon.png,up,0,-0.1,0,3,100,congruent,left,left,congruent,Stim/Acon.png,left,-0.1,0,90,1,2000,stimuli\\,,,,,,,,,,,,
,,,,,,,,,,,1,2024-06-28_13h36.55.568,DCT_v1_online,2021.2.3,Win32,60.04563468,,,0.276,2.974,70,down,1,0.5927,right,1,0.5843,2.224,0,53,53,63,1,64,congruent,down,down,congruent,Stim/Acon.png,down,0,-0.1,180,4,1000,incongruent,right,right,congruent,Stim/Aincon.png,right,0.1,0,-90,8,2000,stimuli\\,,,,,,,,,,,,
,,,,,,,,,,,1,2024-06-28_13h36.55.568,DCT_v1_online,2021.2.3,Win32,60.04563468,,,0.04,2.31,71,down,1,0.9356,right,1,1.0916,2.46,0,54,54,114,1,115,incongruent,down,down,congruent,Stim/Aincon.png,down,0,-0.1,180,8,100,congruent,left,right,incongruent,Stim/Acon.png,right,-0.1,0,-90,2,2000,stimuli\\,,,,,,,,,,,,
,,,,,,,,,,,1,2024-06-28_13h36.55.568,DCT_v1_online,2021.2.3,Win32,60.04563468,,,0.063,3.187,72,up,0,0.624,right,1,0.5069,2.437,0,55,55,83,1,84,incongruent,up,down,incongruent,Stim/Aincon.png,down,0,0.1,180,6,1000,congruent,left,right,incongruent,Stim/Acon.png,right,-0.1,0,-90,2,2000,stimuli\\,,,,,,,,,,,,
,,,,,,,,,,,1,2024-06-28_13h36.55.568,DCT_v1_online,2021.2.3,Win32,60.04563468,,,0.28,2.07,73,down,1,0.6259,right,1,0.7401,2.22,0,56,56,26,1,27,congruent,up,down,incongruent,Stim/Acon.png,down,0,0.1,180,2,100,incongruent,left,right,incongruent,Stim/Aincon.png,right,-0.1,0,-90,6,2000,stimuli\\,,,,,,,,,,,,
,,,,,,,,,,,1,2024-06-28_13h36.55.568,DCT_v1_online,2021.2.3,Win32,60.04563468,,,0.192,2.158,74,up,1,0.5348,left,1,0.7343,2.308,0,57,57,8,1,9,congruent,up,up,congruent,Stim/Acon.png,up,0,0.1,0,1,100,incongruent,left,left,congruent,Stim/Aincon.png,left,-0.1,0,90,5,2000,stimuli\\,,,,,,,,,,,,
,,,,,,,,,,,1,2024-06-28_13h36.55.568,DCT_v1_online,2021.2.3,Win32,60.04563468,,,0.171,2.179,75,down,1,0.8283,left,1,0.9162,2.329,0,58,58,116,1,117,incongruent,down,down,congruent,Stim/Aincon.png,down,0,-0.1,180,8,100,congruent,right,left,incongruent,Stim/Acon.png,left,0.1,0,90,3,2000,stimuli\\,,,,,,,,,,,,
,,,,,,,,,,,1,2024-06-28_13h36.55.568,DCT_v1_online,2021.2.3,Win32,60.04563468,,,0.19,2.16,76,down,1,0.6786,right,1,0.7726,2.31,0,59,59,90,1,91,incongruent,up,down,incongruent,Stim/Aincon.png,down,0,0.1,180,6,100,incongruent,left,right,incongruent,Stim/Aincon.png,right,-0.1,0,-90,6,2000,stimuli\\,,,,,,,,,,,,
,,,,,,,,,,,1,2024-06-28_13h36.55.568,DCT_v1_online,2021.2.3,Win32,60.04563468,,,0.317,2.033,77,up,1,0.5526,left,1,0.6873,2.183,0,60,60,4,1,5,congruent,up,up,congruent,Stim/Acon.png,up,0,0.1,0,1,100,congruent,right,left,incongruent,Stim/Acon.png,left,0.1,0,90,3,2000,stimuli\\,,,,,,,,,,,,
,,,,,,,,,,,1,2024-06-28_13h36.55.568,DCT_v1_online,2021.2.3,Win32,60.04563468,,,0.37,2.88,78,up,1,0.6266,left,1,0.5336,2.13,0,61,61,97,1,98,incongruent,down,up,incongruent,Stim/Aincon.png,up,0,-0.1,0,7,1000,congruent,left,left,congruent,Stim/Acon.png,left,-0.1,0,90,1,2000,stimuli\\,,,,,,,,,,,,
,,,,,,,,,,,1,2024-06-28_13h36.55.568,DCT_v1_online,2021.2.3,Win32,60.04563468,,,0.084,2.266,79,up,1,0.8143,left,1,0.9444,2.416,0,62,62,100,1,101,incongruent,down,up,incongruent,Stim/Aincon.png,up,0,-0.1,0,7,100,congruent,right,left,incongruent,Stim/Acon.png,left,0.1,0,90,3,2000,stimuli\\,,,,,,,,,,,,
,,,,,,,,,,,1,2024-06-28_13h36.55.568,DCT_v1_online,2021.2.3,Win32,60.04563468,,,0.34,2.91,80,down,1,0.4791,left,1,0.5232,2.16,0,63,63,21,1,22,congruent,up,down,incongruent,Stim/Acon.png,down,0,0.1,180,2,1000,congruent,right,left,incongruent,Stim/Acon.png,left,0.1,0,90,3,2000,stimuli\\,,,,,,,,,,,,
,,,,,,,,,,,1,2024-06-28_13h36.55.568,DCT_v1_online,2021.2.3,Win32,60.04563468,,,0.318,2.032,81,down,1,0.6467,right,0,0.7408,2.182,0,64,64,92,1,93,incongruent,up,down,incongruent,Stim/Aincon.png,down,0,0.1,180,6,100,incongruent,right,left,incongruent,Stim/Aincon.png,left,0.1,0,90,7,2000,stimuli\\,,,,,,,,,,,,
,,,,,,,,,,,1,2024-06-28_13h36.55.568,DCT_v1_online,2021.2.3,Win32,60.04563468,,,0.254,2.996,82,down,1,0.5871,left,1,0.4762,2.246,0,65,65,53,1,54,congruent,down,down,congruent,Stim/Acon.png,down,0,-0.1,180,4,1000,congruent,right,left,incongruent,Stim/Acon.png,left,0.1,0,90,3,2000,stimuli\\,,,,,,,,,,,,
,,,,,,,,,,,1,2024-06-28_13h36.55.568,DCT_v1_online,2021.2.3,Win32,60.04563468,,,0.184,3.066,83,up,1,0.598,right,1,0.5676,2.316,0,66,66,39,1,40,congruent,down,up,incongruent,Stim/Acon.png,up,0,-0.1,0,3,1000,congruent,right,right,congruent,Stim/Acon.png,right,0.1,0,-90,4,2000,stimuli\\,,,,,,,,,,,,
,,,,,,,,,,,1,2024-06-28_13h36.55.568,DCT_v1_online,2021.2.3,Win32,60.04563468,,,0.233,3.017,84,down,1,0.5969,right,1,0.5252,2.267,0,67,67,95,1,96,incongruent,up,down,incongruent,Stim/Aincon.png,down,0,0.1,180,6,1000,incongruent,right,right,congruent,Stim/Aincon.png,right,0.1,0,-90,8,2000,stimuli\\,,,,,,,,,,,,
,,,,,,,,,,,1,2024-06-28_13h36.55.568,DCT_v1_online,2021.2.3,Win32,60.04563468,,,0.308,2.042,85,down,1,0.8847,right,1,1.0382,2.192,0,68,68,126,1,127,incongruent,down,down,congruent,Stim/Aincon.png,down,0,-0.1,180,8,100,incongruent,right,right,congruent,Stim/Aincon.png,right,0.1,0,-90,8,2000,stimuli\\,,,,,,,,,,,,
,,,,,,,,,,,1,2024-06-28_13h36.55.568,DCT_v1_online,2021.2.3,Win32,60.04563468,,,0.146,2.204,86,up,1,0.5413,right,1,0.7664,2.354,0,69,69,14,1,15,congruent,up,up,congruent,Stim/Acon.png,up,0,0.1,0,1,100,incongruent,right,right,congruent,Stim/Aincon.png,right,0.1,0,-90,8,2000,stimuli\\,,,,,,,,,,,,
,,,,,,,,,,,1,2024-06-28_13h36.55.568,DCT_v1_online,2021.2.3,Win32,60.04563468,,,0.006,3.244,87,down,1,0.4914,right,1,0.4836,2.494,0,70,70,19,1,20,congruent,up,down,incongruent,Stim/Acon.png,down,0,0.1,180,2,1000,congruent,left,right,incongruent,Stim/Acon.png,right,-0.1,0,-90,2,2000,stimuli\\,,,,,,,,,,,,
,,,,,,,,,,,1,2024-06-28_13h36.55.568,DCT_v1_online,2021.2.3,Win32,60.04563468,,,0.454,1.896,88,up,1,0.623,left,1,0.7793,2.046,0,71,71,44,1,45,congruent,down,up,incongruent,Stim/Acon.png,up,0,-0.1,0,3,100,incongruent,right,left,incongruent,Stim/Aincon.png,left,0.1,0,90,7,2000,stimuli\\,,,,,,,,,,,,
,,,,,,,,,,,1,2024-06-28_13h36.55.568,DCT_v1_online,2021.2.3,Win32,60.04563468,,,0.181,2.169,89,down,1,0.7155,right,1,0.7666,2.319,0,72,72,54,1,55,congruent,down,down,congruent,Stim/Acon.png,down,0,-0.1,180,4,100,congruent,right,right,congruent,Stim/Acon.png,right,0.1,0,-90,4,2000,stimuli\\,,,,,,,,,,,,
,,,,,,,,,,,1,2024-06-28_13h36.55.568,DCT_v1_online,2021.2.3,Win32,60.04563468,,,0.457,2.793,90,down,1,0.6237,left,1,0.5057,2.043,0,73,73,85,1,86,incongruent,up,down,incongruent,Stim/Aincon.png,down,0,0.1,180,6,1000,congruent,right,left,incongruent,Stim/Acon.png,left,0.1,0,90,3,2000,stimuli\\,,,,,,,,,,,,
,,,,,,,,,,,1,2024-06-28_13h36.55.568,DCT_v1_online,2021.2.3,Win32,60.04563468,,,0.069,2.281,91,up,1,0.8143,right,1,0.993,2.431,0,74,74,66,1,67,incongruent,up,up,congruent,Stim/Aincon.png,up,0,0.1,0,5,100,congruent,left,right,incongruent,Stim/Acon.png,right,-0.1,0,-90,2,2000,stimuli\\,,,,,,,,,,,,
,,,,,,,,,,,1,2024-06-28_13h36.55.568,DCT_v1_online,2021.2.3,Win32,60.04563468,,,0.063,2.287,92,down,1,0.6736,right,1,0.8299,2.437,0,75,75,58,1,59,congruent,down,down,congruent,Stim/Acon.png,down,0,-0.1,180,4,100,incongruent,left,right,incongruent,Stim/Aincon.png,right,-0.1,0,-90,6,2000,stimuli\\,,,,,,,,,,,,
,,,,,,,,,,,1,2024-06-28_13h36.55.568,DCT_v1_online,2021.2.3,Win32,60.04563468,,,0.008,3.242,93,down,1,0.487,left,1,0.5458,2.492,0,76,76,17,1,18,congruent,up,down,incongruent,Stim/Acon.png,down,0,0.1,180,2,1000,congruent,left,left,congruent,Stim/Acon.png,left,-0.1,0,90,1,2000,stimuli\\,,,,,,,,,,,,
,,,,,,,,,,,1,2024-06-28_13h36.55.568,DCT_v1_online,2021.2.3,Win32,60.04563468,,,0.343,2.907,94,down,1,0.4947,left,1,0.5635,2.157,0,77,77,89,1,90,incongruent,up,down,incongruent,Stim/Aincon.png,down,0,0.1,180,6,1000,incongruent,left,left,congruent,Stim/Aincon.png,left,-0.1,0,90,5,2000,stimuli\\,,,,,,,,,,,,
,,,,,,,,,,,1,2024-06-28_13h36.55.568,DCT_v1_online,2021.2.3,Win32,60.04563468,,,0.437,1.913,95,down,1,0.9846,right,1,1.0731,2.063,0,78,78,82,1,83,incongruent,up,down,incongruent,Stim/Aincon.png,down,0,0.1,180,6,100,congruent,left,right,incongruent,Stim/Acon.png,right,-0.1,0,-90,2,2000,stimuli\\,,,,,,,,,,,,
,,,,,,,,,,,1,2024-06-28_13h36.55.568,DCT_v1_online,2021.2.3,Win32,60.04563468,,,0.134,3.116,96,up,1,0.8209,left,1,0.6656,2.366,0,79,79,109,1,110,incongruent,down,up,incongruent,Stim/Aincon.png,up,0,-0.1,0,7,1000,incongruent,right,left,incongruent,Stim/Aincon.png,left,0.1,0,90,7,2000,stimuli\\,,,,,,,,,,,,
,,,,,,,,,,,1,2024-06-28_13h36.55.568,DCT_v1_online,2021.2.3,Win32,60.04563468,,,0.116,3.134,97,down,1,0.511,right,1,0.5234,2.384,0,80,80,27,1,28,congruent,up,down,incongruent,Stim/Acon.png,down,0,0.1,180,2,1000,incongruent,left,right,incongruent,Stim/Aincon.png,right,-0.1,0,-90,6,2000,stimuli\\,,,,,,,,,,,,
,,,,,,,,,,,1,2024-06-28_13h36.55.568,DCT_v1_online,2021.2.3,Win32,60.04563468,,,0.248,3.002,98,up,1,0.5478,left,1,0.4797,2.252,0,81,81,33,1,34,congruent,down,up,incongruent,Stim/Acon.png,up,0,-0.1,0,3,1000,congruent,left,left,congruent,Stim/Acon.png,left,-0.1,0,90,1,2000,stimuli\\,,,,,,,,,,,,
,,,,,,,,,,,1,2024-06-28_13h36.55.568,DCT_v1_online,2021.2.3,Win32,60.04563468,,,0.399,1.951,99,up,1,0.6546,right,1,0.8077,2.101,0,82,82,42,1,43,congruent,down,up,incongruent,Stim/Acon.png,up,0,-0.1,0,3,100,incongruent,left,right,incongruent,Stim/Aincon.png,right,-0.1,0,-90,6,2000,stimuli\\,,,,,,,,,,,,
,,,,,,,,,,,1,2024-06-28_13h36.55.568,DCT_v1_online,2021.2.3,Win32,60.04563468,,,0.411,1.939,100,down,1,0.7454,right,1,0.8344,2.089,0,83,83,122,1,123,incongruent,down,down,congruent,Stim/Aincon.png,down,0,-0.1,180,8,100,incongruent,left,right,incongruent,Stim/Aincon.png,right,-0.1,0,-90,6,2000,stimuli\\,,,,,,,,,,,,
,,,,,,,,,,,1,2024-06-28_13h36.55.568,DCT_v1_online,2021.2.3,Win32,60.04563468,,,0.223,2.127,101,up,1,0.4645,right,1,0.5159,2.277,0,84,84,6,1,7,congruent,up,up,congruent,Stim/Acon.png,up,0,0.1,0,1,100,congruent,right,right,congruent,Stim/Acon.png,right,0.1,0,-90,4,2000,stimuli\\,,,,,,,,,,,,
,,,,,,,,,,,1,2024-06-28_13h36.55.568,DCT_v1_online,2021.2.3,Win32,60.04563468,,,0.194,3.056,102,up,1,0.8493,left,1,0.5291,2.306,0,85,85,101,1,102,incongruent,down,up,incongruent,Stim/Aincon.png,up,0,-0.1,0,7,1000,congruent,right,left,incongruent,Stim/Acon.png,left,0.1,0,90,3,2000,stimuli\\,,,,,,,,,,,,
,,,,,,,,,,,1,2024-06-28_13h36.55.568,DCT_v1_online,2021.2.3,Win32,60.04563468,,,0.148,3.102,103,up,1,0.5871,right,1,0.4761,2.352,0,86,86,67,1,68,incongruent,up,up,congruent,Stim/Aincon.png,up,0,0.1,0,5,1000,congruent,left,right,incongruent,Stim/Acon.png,right,-0.1,0,-90,2,2000,stimuli\\,,,,,,,,,,,,
,,,,,,,,,,,1,2024-06-28_13h36.55.568,DCT_v1_online,2021.2.3,Win32,60.04563468,,,0.286,2.064,104,down,1,0.6971,right,1,0.7701,2.214,0,87,87,50,1,51,congruent,down,down,congruent,Stim/Acon.png,down,0,-0.1,180,4,100,congruent,left,right,incongruent,Stim/Acon.png,right,-0.1,0,-90,2,2000,stimuli\\,,,,,,,,,,,,
,,,,,,,,,,,1,2024-06-28_13h36.55.568,DCT_v1_online,2021.2.3,Win32,60.04563468,,,0.104,2.246,105,up,1,0.5004,left,1,0.629,2.396,0,88,88,76,1,77,incongruent,up,up,congruent,Stim/Aincon.png,up,0,0.1,0,5,100,incongruent,right,left,incongruent,Stim/Aincon.png,left,0.1,0,90,7,2000,stimuli\\,,,,,,,,,,,,
,,,,,,,,,,,1,2024-06-28_13h36.55.568,DCT_v1_online,2021.2.3,Win32,60.04563468,,,0.198,3.052,106,up,1,0.5328,right,1,0.545,2.302,0,89,89,75,1,76,incongruent,up,up,congruent,Stim/Aincon.png,up,0,0.1,0,5,1000,incongruent,left,right,incongruent,Stim/Aincon.png,right,-0.1,0,-90,6,2000,stimuli\\,,,,,,,,,,,,
,,,,,,,,,,,1,2024-06-28_13h36.55.568,DCT_v1_online,2021.2.3,Win32,60.04563468,,,0.008,3.242,107,down,1,0.5874,right,1,0.3881,2.492,0,90,90,51,1,52,congruent,down,down,congruent,Stim/Acon.png,down,0,-0.1,180,4,1000,congruent,left,right,incongruent,Stim/Acon.png,right,-0.1,0,-90,2,2000,stimuli\\,,,,,,,,,,,,
,,,,,,,,,,,1,2024-06-28_13h36.55.568,DCT_v1_online,2021.2.3,Win32,60.04563468,,,0.372,2.878,108,down,1,0.4776,right,1,0.5673,2.128,0,91,91,23,1,24,congruent,up,down,incongruent,Stim/Acon.png,down,0,0.1,180,2,1000,congruent,right,right,congruent,Stim/Acon.png,right,0.1,0,-90,4,2000,stimuli\\,,,,,,,,,,,,
,,,,,,,,,,,1,2024-06-28_13h36.55.568,DCT_v1_online,2021.2.3,Win32,60.04563468,,,0.044,3.206,109,up,1,0.435,left,1,0.5309,2.456,0,92,92,5,1,6,congruent,up,up,congruent,Stim/Acon.png,up,0,0.1,0,1,1000,congruent,right,left,incongruent,Stim/Acon.png,left,0.1,0,90,3,2000,stimuli\\,,,,,,,,,,,,
,,,,,,,,,,,1,2024-06-28_13h36.55.568,DCT_v1_online,2021.2.3,Win32,60.04563468,,,0.034,3.216,110,down,1,0.579,right,1,0.5693,2.466,0,93,93,127,1,128,incongruent,down,down,congruent,Stim/Aincon.png,down,0,-0.1,180,8,1000,incongruent,right,right,congruent,Stim/Aincon.png,right,0.1,0,-90,8,2000,stimuli\\,,,,,,,,,,,,
,,,,,,,,,,,1,2024-06-28_13h36.55.568,DCT_v1_online,2021.2.3,Win32,60.04563468,,,0.127,3.123,111,up,1,0.6308,right,1,0.6015,2.373,0,94,94,111,1,112,incongruent,down,up,incongruent,Stim/Aincon.png,up,0,-0.1,0,7,1000,incongruent,right,right,congruent,Stim/Aincon.png,right,0.1,0,-90,8,2000,stimuli\\,,,,,,,,,,,,
,,,,,,,,,,,1,2024-06-28_13h36.55.568,DCT_v1_online,2021.2.3,Win32,60.04563468,,,0.143,2.207,112,up,1,0.8437,right,1,0.9561,2.357,0,95,95,102,1,103,incongruent,down,up,incongruent,Stim/Aincon.png,up,0,-0.1,0,7,100,congruent,right,right,congruent,Stim/Acon.png,right,0.1,0,-90,4,2000,stimuli\\,,,,,,,,,,,,
,,,,,,,,,,,1,2024-06-28_13h36.55.568,DCT_v1_online,2021.2.3,Win32,60.04563468,,,0.253,2.097,113,down,1,0.453,right,0,0.4995,2.247,0,96,96,28,1,29,congruent,up,down,incongruent,Stim/Acon.png,down,0,0.1,180,2,100,incongruent,right,left,incongruent,Stim/Aincon.png,left,0.1,0,90,7,2000,stimuli\\,,,,,,,,,,,,
,,,,,,,,,,,1,2024-06-28_13h36.55.568,DCT_v1_online,2021.2.3,Win32,60.04563468,,,0.47,1.88,114,down,1,0.7163,right,1,0.788,2.03,0,97,97,86,1,87,incongruent,up,down,incongruent,Stim/Aincon.png,down,0,0.1,180,6,100,congruent,right,right,congruent,Stim/Acon.png,right,0.1,0,-90,4,2000,stimuli\\,,,,,,,,,,,,
,,,,,,,,,,,1,2024-06-28_13h36.55.568,DCT_v1_online,2021.2.3,Win32,60.04563468,,,0.183,2.167,115,up,1,0.6727,left,1,0.7674,2.317,0,98,98,72,1,73,incongruent,up,up,congruent,Stim/Aincon.png,up,0,0.1,0,5,100,incongruent,left,left,congruent,Stim/Aincon.png,left,-0.1,0,90,5,2000,stimuli\\,,,,,,,,,,,,
,,,,,,,,,,,1,2024-06-28_13h36.55.568,DCT_v1_online,2021.2.3,Win32,60.04563468,,,0.332,2.918,116,down,1,0.6692,left,1,0.538,2.168,0,99,99,117,1,118,incongruent,down,down,congruent,Stim/Aincon.png,down,0,-0.1,180,8,1000,congruent,right,left,incongruent,Stim/Acon.png,left,0.1,0,90,3,2000,stimuli\\,,,,,,,,,,,,
,,,,,,,,,,,1,2024-06-28_13h36.55.568,DCT_v1_online,2021.2.3,Win32,60.04563468,,,0.418,1.932,117,down,1,0.5743,left,1,0.6623,2.082,0,100,100,20,1,21,congruent,up,down,incongruent,Stim/Acon.png,down,0,0.1,180,2,100,congruent,right,left,incongruent,Stim/Acon.png,left,0.1,0,90,3,2000,stimuli\\,,,,,,,,,,,,
,,,,,,,,,,,1,2024-06-28_13h36.55.568,DCT_v1_online,2021.2.3,Win32,60.04563468,,,0.23,2.12,118,up,1,0.8403,left,1,0.9978,2.27,0,101,101,108,1,109,incongruent,down,up,incongruent,Stim/Aincon.png,up,0,-0.1,0,7,100,incongruent,right,left,incongruent,Stim/Aincon.png,left,0.1,0,90,7,2000,stimuli\\,,,,,,,,,,,,
,,,,,,,,,,,1,2024-06-28_13h36.55.568,DCT_v1_online,2021.2.3,Win32,60.04563468,,,0.136,3.114,119,down,1,0.6094,right,1,0.5725,2.364,0,102,102,59,1,60,congruent,down,down,congruent,Stim/Acon.png,down,0,-0.1,180,4,1000,incongruent,left,right,incongruent,Stim/Aincon.png,right,-0.1,0,-90,6,2000,stimuli\\,,,,,,,,,,,,
,,,,,,,,,,,1,2024-06-28_13h36.55.568,DCT_v1_online,2021.2.3,Win32,60.04563468,,,0.359,2.891,120,up,1,0.4399,right,1,0.6534,2.141,0,103,103,79,1,80,incongruent,up,up,congruent,Stim/Aincon.png,up,0,0.1,0,5,1000,incongruent,right,right,congruent,Stim/Aincon.png,right,0.1,0,-90,8,2000,stimuli\\,,,,,,,,,,,,
,,,,,,,,,,,1,2024-06-28_13h36.55.568,DCT_v1_online,2021.2.3,Win32,60.04563468,,,0.298,2.052,121,down,1,0.7032,right,1,0.8075,2.202,0,104,104,118,1,119,incongruent,down,down,congruent,Stim/Aincon.png,down,0,-0.1,180,8,100,congruent,right,right,congruent,Stim/Acon.png,right,0.1,0,-90,4,2000,stimuli\\,,,,,,,,,,,,
,,,,,,,,,,,1,2024-06-28_13h36.55.568,DCT_v1_online,2021.2.3,Win32,60.04563468,,,0.25,3,122,down,1,0.5024,left,1,0.6409,2.25,0,105,105,93,1,94,incongruent,up,down,incongruent,Stim/Aincon.png,down,0,0.1,180,6,1000,incongruent,right,left,incongruent,Stim/Aincon.png,left,0.1,0,90,7,2000,stimuli\\,,,,,,,,,,,,
,,,,,,,,,,,1,2024-06-28_13h36.55.568,DCT_v1_online,2021.2.3,Win32,60.04563468,,,0.302,2.948,123,up,1,0.4534,right,1,0.5914,2.198,0,106,106,3,1,4,congruent,up,up,congruent,Stim/Acon.png,up,0,0.1,0,1,1000,congruent,left,right,incongruent,Stim/Acon.png,right,-0.1,0,-90,2,2000,stimuli\\,,,,,,,,,,,,
,,,,,,,,,,,1,2024-06-28_13h36.55.568,DCT_v1_online,2021.2.3,Win32,60.04563468,,,0.478,1.872,124,up,1,0.7588,left,1,0.8732,2.022,0,107,107,96,1,97,incongruent,down,up,incongruent,Stim/Aincon.png,up,0,-0.1,0,7,100,congruent,left,left,congruent,Stim/Acon.png,left,-0.1,0,90,1,2000,stimuli\\,,,,,,,,,,,,
,,,,,,,,,,,1,2024-06-28_13h36.55.568,DCT_v1_online,2021.2.3,Win32,60.04563468,,,0.283,2.067,125,up,1,0.7058,right,1,0.7993,2.217,0,108,108,38,1,39,congruent,down,up,incongruent,Stim/Acon.png,up,0,-0.1,0,3,100,congruent,right,right,congruent,Stim/Acon.png,right,0.1,0,-90,4,2000,stimuli\\,,,,,,,,,,,,
,,,,,,,,,,,1,2024-06-28_13h36.55.568,DCT_v1_online,2021.2.3,Win32,60.04563468,,,0.372,1.978,126,down,1,0.6485,left,1,0.6798,2.128,0,109,109,48,1,49,congruent,down,down,congruent,Stim/Acon.png,down,0,-0.1,180,4,100,congruent,left,left,congruent,Stim/Acon.png,left,-0.1,0,90,1,2000,stimuli\\,,,,,,,,,,,,
,,,,,,,,,,,1,2024-06-28_13h36.55.568,DCT_v1_online,2021.2.3,Win32,60.04563468,,,0.35,2.9,127,down,1,0.555,left,1,0.5878,2.15,0,110,110,57,1,58,congruent,down,down,congruent,Stim/Acon.png,down,0,-0.1,180,4,1000,incongruent,left,left,congruent,Stim/Aincon.png,left,-0.1,0,90,5,2000,stimuli\\,,,,,,,,,,,,
,,,,,,,,,,,1,2024-06-28_13h36.55.568,DCT_v1_online,2021.2.3,Win32,60.04563468,,,0.433,1.917,128,down,1,0.6904,left,1,0.7598,2.067,0,111,111,84,1,85,incongruent,up,down,incongruent,Stim/Aincon.png,down,0,0.1,180,6,100,congruent,right,left,incongruent,Stim/Acon.png,left,0.1,0,90,3,2000,stimuli\\,,,,,,,,,,,,
,,,,,,,,,,,1,2024-06-28_13h36.55.568,DCT_v1_online,2021.2.3,Win32,60.04563468,,,0.288,2.062,129,up,1,0.6919,left,0,0.7657,2.212,0,112,112,46,1,47,congruent,down,up,incongruent,Stim/Acon.png,up,0,-0.1,0,3,100,incongruent,right,right,congruent,Stim/Aincon.png,right,0.1,0,-90,8,2000,stimuli\\,,,,,,,,,,,,
,,,,,,,,,,,1,2024-06-28_13h36.55.568,DCT_v1_online,2021.2.3,Win32,60.04563468,,,0.305,2.945,130,up,1,0.5096,left,1,0.5372,2.195,0,113,113,37,1,38,congruent,down,up,incongruent,Stim/Acon.png,up,0,-0.1,0,3,1000,congruent,right,left,incongruent,Stim/Acon.png,left,0.1,0,90,3,2000,stimuli\\,,,,,,,,,,,,
,,,,,,,,,,,1,2024-06-28_13h36.55.568,DCT_v1_online,2021.2.3,Win32,60.04563468,,,0.303,2.947,131,down,1,0.4899,left,1,0.6495,2.197,0,114,114,25,1,26,congruent,up,down,incongruent,Stim/Acon.png,down,0,0.1,180,2,1000,incongruent,left,left,congruent,Stim/Aincon.png,left,-0.1,0,90,5,2000,stimuli\\,,,,,,,,,,,,
,,,,,,,,,,,1,2024-06-28_13h36.55.568,DCT_v1_online,2021.2.3,Win32,60.04563468,,,0.116,3.134,132,up,1,0.4676,left,1,0.4938,2.384,0,115,115,69,1,70,incongruent,up,up,congruent,Stim/Aincon.png,up,0,0.1,0,5,1000,congruent,right,left,incongruent,Stim/Acon.png,left,0.1,0,90,3,2000,stimuli\\,,,,,,,,,,,,
,,,,,,,,,,,1,2024-06-28_13h36.55.568,DCT_v1_online,2021.2.3,Win32,60.04563468,,,0.334,2.916,133,up,1,0.5309,right,1,0.5007,2.166,0,116,116,43,1,44,congruent,down,up,incongruent,Stim/Acon.png,up,0,-0.1,0,3,1000,incongruent,left,right,incongruent,Stim/Aincon.png,right,-0.1,0,-90,6,2000,stimuli\\,,,,,,,,,,,,
,,,,,,,,,,,1,2024-06-28_13h36.55.568,DCT_v1_online,2021.2.3,Win32,60.04563468,,,0.113,2.237,134,down,1,0.7075,left,1,0.7788,2.387,0,117,117,112,1,113,incongruent,down,down,congruent,Stim/Aincon.png,down,0,-0.1,180,8,100,congruent,left,left,congruent,Stim/Acon.png,left,-0.1,0,90,1,2000,stimuli\\,,,,,,,,,,,,
,,,,,,,,,,,1,2024-06-28_13h36.55.568,DCT_v1_online,2021.2.3,Win32,60.04563468,,,0.222,2.128,135,down,1,0.7815,left,1,0.8064,2.278,0,118,118,52,1,53,congruent,down,down,congruent,Stim/Acon.png,down,0,-0.1,180,4,100,congruent,right,left,incongruent,Stim/Acon.png,left,0.1,0,90,3,2000,stimuli\\,,,,,,,,,,,,
,,,,,,,,,,,1,2024-06-28_13h36.55.568,DCT_v1_online,2021.2.3,Win32,60.04563468,,,0.248,3.002,136,up,1,0.5318,right,1,0.6069,2.252,0,119,119,47,1,48,congruent,down,up,incongruent,Stim/Acon.png,up,0,-0.1,0,3,1000,incongruent,right,right,congruent,Stim/Aincon.png,right,0.1,0,-90,8,2000,stimuli\\,,,,,,,,,,,,
,,,,,,,,,,,1,2024-06-28_13h36.55.568,DCT_v1_online,2021.2.3,Win32,60.04563468,,,0.427,1.923,137,down,1,0.621,left,1,0.7956,2.073,0,120,120,60,1,61,congruent,down,down,congruent,Stim/Acon.png,down,0,-0.1,180,4,100,incongruent,right,left,incongruent,Stim/Aincon.png,left,0.1,0,90,7,2000,stimuli\\,,,,,,,,,,,,
,,,,,,,,,,,1,2024-06-28_13h36.55.568,DCT_v1_online,2021.2.3,Win32,60.04563468,,,0.259,2.091,138,down,1,0.6697,left,1,0.8377,2.241,0,121,121,56,1,57,congruent,down,down,congruent,Stim/Acon.png,down,0,-0.1,180,4,100,incongruent,left,left,congruent,Stim/Aincon.png,left,-0.1,0,90,5,2000,stimuli\\,,,,,,,,,,,,
,,,,,,,,,,,1,2024-06-28_13h36.55.568,DCT_v1_online,2021.2.3,Win32,60.04563468,,,0.321,2.929,139,up,1,0.5334,left,1,0.5103,2.179,0,122,122,41,1,42,congruent,down,up,incongruent,Stim/Acon.png,up,0,-0.1,0,3,1000,incongruent,left,left,congruent,Stim/Aincon.png,left,-0.1,0,90,5,2000,stimuli\\,,,,,,,,,,,,
,,,,,,,,,,,1,2024-06-28_13h36.55.568,DCT_v1_online,2021.2.3,Win32,60.04563468,,,0.27,2.98,140,up,1,0.4384,right,1,0.4925,2.23,0,123,123,11,1,12,congruent,up,up,congruent,Stim/Acon.png,up,0,0.1,0,1,1000,incongruent,left,right,incongruent,Stim/Aincon.png,right,-0.1,0,-90,6,2000,stimuli\\,,,,,,,,,,,,
,,,,,,,,,,,1,2024-06-28_13h36.55.568,DCT_v1_online,2021.2.3,Win32,60.04563468,,,0.241,2.109,141,down,1,0.6836,left,1,0.8596,2.259,0,124,124,120,1,121,incongruent,down,down,congruent,Stim/Aincon.png,down,0,-0.1,180,8,100,incongruent,left,left,congruent,Stim/Aincon.png,left,-0.1,0,90,5,2000,stimuli\\,,,,,,,,,,,,
,,,,,,,,,,,1,2024-06-28_13h36.55.568,DCT_v1_online,2021.2.3,Win32,60.04563468,,,0.338,2.912,142,up,1,0.6271,left,1,0.613,2.162,0,125,125,77,1,78,incongruent,up,up,congruent,Stim/Aincon.png,up,0,0.1,0,5,1000,incongruent,right,left,incongruent,Stim/Aincon.png,left,0.1,0,90,7,2000,stimuli\\,,,,,,,,,,,,
,,,,,,,,,,,1,2024-06-28_13h36.55.568,DCT_v1_online,2021.2.3,Win32,60.04563468,,,0.215,2.135,143,up,1,0.5104,right,1,0.6248,2.285,0,126,126,70,1,71,incongruent,up,up,congruent,Stim/Aincon.png,up,0,0.1,0,5,100,congruent,right,right,congruent,Stim/Acon.png,right,0.1,0,-90,4,2000,stimuli\\,,,,,,,,,,,,
,,,,,,,,,,,1,2024-06-28_13h36.55.568,DCT_v1_online,2021.2.3,Win32,60.04563468,,,0.075,2.275,144,down,1,0.5816,left,1,0.6706,2.425,0,127,127,16,1,17,congruent,up,down,incongruent,Stim/Acon.png,down,0,0.1,180,2,100,congruent,left,left,congruent,Stim/Acon.png,left,-0.1,0,90,1,2000,stimuli\\,,,,,,,,,,,,
,,,,,,,,,,,1,2024-06-28_13h36.55.568,DCT_v1_online,2021.2.3,Win32,60.04563468,,,,,,,,,,,,,,,,,,,,,,,,,,,,,,,,,,,,,,,,,,space,12.3828,0,1,1,1,1,Instructions/i5.png,test,conditions/block1.xlsx,1.2,0.8
,,,,,,,,,,,1,2024-06-28_13h36.55.568,DCT_v1_online,2021.2.3,Win32,60.04563468,space,1.5835,0.446,1.904,145,down,1,0.6026,left,1,0.671,2.054,0,0,0,48,1,49,congruent,down,down,congruent,Stim/Acon.png,down,0,-0.1,180,4,100,congruent,left,left,congruent,Stim/Acon.png,left,-0.1,0,90,1,2000,stimuli\\,,,,,,,,,,,,
,,,,,,,,,,,1,2024-06-28_13h36.55.568,DCT_v1_online,2021.2.3,Win32,60.04563468,,,0.008,3.242,146,up,1,0.5675,right,1,0.5381,2.492,0,1,1,47,1,48,congruent,down,up,incongruent,Stim/Acon.png,up,0,-0.1,0,3,1000,incongruent,right,right,congruent,Stim/Aincon.png,right,0.1,0,-90,8,2000,stimuli\\,,,,,,,,,,,,
,,,,,,,,,,,1,2024-06-28_13h36.55.568,DCT_v1_online,2021.2.3,Win32,60.04563468,,,0.24,3.01,147,down,1,0.4868,right,1,0.5622,2.26,0,2,2,27,1,28,congruent,up,down,incongruent,Stim/Acon.png,down,0,0.1,180,2,1000,incongruent,left,right,incongruent,Stim/Aincon.png,right,-0.1,0,-90,6,2000,stimuli\\,,,,,,,,,,,,
,,,,,,,,,,,1,2024-06-28_13h36.55.568,DCT_v1_online,2021.2.3,Win32,60.04563468,,,0.494,1.856,148,up,1,0.6144,left,1,0.7077,2.006,0,3,3,72,1,73,incongruent,up,up,congruent,Stim/Aincon.png,up,0,0.1,0,5,100,incongruent,left,left,congruent,Stim/Aincon.png,left,-0.1,0,90,5,2000,stimuli\\,,,,,,,,,,,,
,,,,,,,,,,,1,2024-06-28_13h36.55.568,DCT_v1_online,2021.2.3,Win32,60.04563468,,,0.201,3.049,149,up,1,0.4777,right,1,0.427,2.299,0,4,4,67,1,68,incongruent,up,up,congruent,Stim/Aincon.png,up,0,0.1,0,5,1000,congruent,left,right,incongruent,Stim/Acon.png,right,-0.1,0,-90,2,2000,stimuli\\,,,,,,,,,,,,
,,,,,,,,,,,1,2024-06-28_13h36.55.568,DCT_v1_online,2021.2.3,Win32,60.04563468,,,0.346,2.904,150,up,1,0.5647,right,1,0.5978,2.154,0,5,5,79,1,80,incongruent,up,up,congruent,Stim/Aincon.png,up,0,0.1,0,5,1000,incongruent,right,right,congruent,Stim/Aincon.png,right,0.1,0,-90,8,2000,stimuli\\,,,,,,,,,,,,
,,,,,,,,,,,1,2024-06-28_13h36.55.568,DCT_v1_online,2021.2.3,Win32,60.04563468,,,0.381,2.869,151,up,1,0.4683,right,1,0.6316,2.119,0,6,6,11,1,12,congruent,up,up,congruent,Stim/Acon.png,up,0,0.1,0,1,1000,incongruent,left,right,incongruent,Stim/Aincon.png,right,-0.1,0,-90,6,2000,stimuli\\,,,,,,,,,,,,
,,,,,,,,,,,1,2024-06-28_13h36.55.568,DCT_v1_online,2021.2.3,Win32,60.04563468,,,0.331,2.919,152,down,1,0.655,left,1,0.5209,2.169,0,7,7,49,1,50,congruent,down,down,congruent,Stim/Acon.png,down,0,-0.1,180,4,1000,congruent,left,left,congruent,Stim/Acon.png,left,-0.1,0,90,1,2000,stimuli\\,,,,,,,,,,,,
,,,,,,,,,,,1,2024-06-28_13h36.55.568,DCT_v1_online,2021.2.3,Win32,60.04563468,,,0.413,2.837,153,down,1,0.6154,right,1,0.5893,2.087,0,8,8,51,1,52,congruent,down,down,congruent,Stim/Acon.png,down,0,-0.1,180,4,1000,congruent,left,right,incongruent,Stim/Acon.png,right,-0.1,0,-90,2,2000,stimuli\\,,,,,,,,,,,,
,,,,,,,,,,,1,2024-06-28_13h36.55.568,DCT_v1_online,2021.2.3,Win32,60.04563468,,,0.491,2.759,154,up,1,0.473,right,1,0.526,2.009,0,9,9,3,1,4,congruent,up,up,congruent,Stim/Acon.png,up,0,0.1,0,1,1000,congruent,left,right,incongruent,Stim/Acon.png,right,-0.1,0,-90,2,2000,stimuli\\,,,,,,,,,,,,
,,,,,,,,,,,1,2024-06-28_13h36.55.568,DCT_v1_online,2021.2.3,Win32,60.04563468,,,0.114,2.236,155,up,1,0.5902,left,0,0.662,2.386,0,10,10,10,1,11,congruent,up,up,congruent,Stim/Acon.png,up,0,0.1,0,1,100,incongruent,left,right,incongruent,Stim/Aincon.png,right,-0.1,0,-90,6,2000,stimuli\\,,,,,,,,,,,,
,,,,,,,,,,,1,2024-06-28_13h36.55.568,DCT_v1_online,2021.2.3,Win32,60.04563468,,,0.061,2.289,156,down,1,0.6768,right,1,0.7359,2.439,0,11,11,50,1,51,congruent,down,down,congruent,Stim/Acon.png,down,0,-0.1,180,4,100,congruent,left,right,incongruent,Stim/Acon.png,right,-0.1,0,-90,2,2000,stimuli\\,,,,,,,,,,,,
,,,,,,,,,,,1,2024-06-28_13h36.55.568,DCT_v1_online,2021.2.3,Win32,60.04563468,,,0.459,1.891,157,down,1,0.6136,right,1,0.7079,2.041,0,12,12,86,1,87,incongruent,up,down,incongruent,Stim/Aincon.png,down,0,0.1,180,6,100,congruent,right,right,congruent,Stim/Acon.png,right,0.1,0,-90,4,2000,stimuli\\,,,,,,,,,,,,
,,,,,,,,,,,1,2024-06-28_13h36.55.568,DCT_v1_online,2021.2.3,Win32,60.04563468,,,0.482,2.768,158,down,1,0.5161,right,1,0.6499,2.018,0,13,13,63,1,64,congruent,down,down,congruent,Stim/Acon.png,down,0,-0.1,180,4,1000,incongruent,right,right,congruent,Stim/Aincon.png,right,0.1,0,-90,8,2000,stimuli\\,,,,,,,,,,,,
,,,,,,,,,,,1,2024-06-28_13h36.55.568,DCT_v1_online,2021.2.3,Win32,60.04563468,,,0.272,2.978,159,up,1,0.5499,left,1,0.6253,2.228,0,14,14,41,1,42,congruent,down,up,incongruent,Stim/Acon.png,up,0,-0.1,0,3,1000,incongruent,left,left,congruent,Stim/Aincon.png,left,-0.1,0,90,5,2000,stimuli\\,,,,,,,,,,,,
,,,,,,,,,,,1,2024-06-28_13h36.55.568,DCT_v1_online,2021.2.3,Win32,60.04563468,,,0.294,2.056,160,up,1,0.6368,right,1,0.7717,2.206,0,15,15,74,1,75,incongruent,up,up,congruent,Stim/Aincon.png,up,0,0.1,0,5,100,incongruent,left,right,incongruent,Stim/Aincon.png,right,-0.1,0,-90,6,2000,stimuli\\,,,,,,,,,,,,
,,,,,,,,,,,1,2024-06-28_13h36.55.568,DCT_v1_online,2021.2.3,Win32,60.04563468,,,0.424,2.826,161,down,1,0.5869,right,1,0.5131,2.076,0,16,16,59,1,60,congruent,down,down,congruent,Stim/Acon.png,down,0,-0.1,180,4,1000,incongruent,left,right,incongruent,Stim/Aincon.png,right,-0.1,0,-90,6,2000,stimuli\\,,,,,,,,,,,,
,,,,,,,,,,,1,2024-06-28_13h36.55.568,DCT_v1_online,2021.2.3,Win32,60.04563468,,,0.465,2.785,162,up,1,0.6843,right,1,0.7198,2.035,0,17,17,111,1,112,incongruent,down,up,incongruent,Stim/Aincon.png,up,0,-0.1,0,7,1000,incongruent,right,right,congruent,Stim/Aincon.png,right,0.1,0,-90,8,2000,stimuli\\,,,,,,,,,,,,
,,,,,,,,,,,1,2024-06-28_13h36.55.568,DCT_v1_online,2021.2.3,Win32,60.04563468,,,0.068,3.182,163,down,1,0.6259,left,1,0.5937,2.432,0,18,18,61,1,62,congruent,down,down,congruent,Stim/Acon.png,down,0,-0.1,180,4,1000,incongruent,right,left,incongruent,Stim/Aincon.png,left,0.1,0,90,7,2000,stimuli\\,,,,,,,,,,,,
,,,,,,,,,,,1,2024-06-28_13h36.55.568,DCT_v1_online,2021.2.3,Win32,60.04563468,,,0.359,2.891,164,down,1,0.6662,left,1,0.6558,2.141,0,19,19,125,1,126,incongruent,down,down,congruent,Stim/Aincon.png,down,0,-0.1,180,8,1000,incongruent,right,left,incongruent,Stim/Aincon.png,left,0.1,0,90,7,2000,stimuli\\,,,,,,,,,,,,
,,,,,,,,,,,1,2024-06-28_13h36.55.568,DCT_v1_online,2021.2.3,Win32,60.04563468,,,0.15,3.1,165,down,1,0.6351,right,1,0.5438,2.35,0,20,20,123,1,124,incongruent,down,down,congruent,Stim/Aincon.png,down,0,-0.1,180,8,1000,incongruent,left,right,incongruent,Stim/Aincon.png,right,-0.1,0,-90,6,2000,stimuli\\,,,,,,,,,,,,
,,,,,,,,,,,1,2024-06-28_13h36.55.568,DCT_v1_online,2021.2.3,Win32,60.04563468,,,0.083,3.167,166,down,1,0.559,right,1,0.5498,2.417,0,21,21,55,1,56,congruent,down,down,congruent,Stim/Acon.png,down,0,-0.1,180,4,1000,congruent,right,right,congruent,Stim/Acon.png,right,0.1,0,-90,4,2000,stimuli\\,,,,,,,,,,,,
,,,,,,,,,,,1,2024-06-28_13h36.55.568,DCT_v1_online,2021.2.3,Win32,60.04563468,,,0.12,2.23,167,down,1,0.5338,left,1,0.6893,2.38,0,22,22,56,1,57,congruent,down,down,congruent,Stim/Acon.png,down,0,-0.1,180,4,100,incongruent,left,left,congruent,Stim/Aincon.png,left,-0.1,0,90,5,2000,stimuli\\,,,,,,,,,,,,
,,,,,,,,,,,1,2024-06-28_13h36.55.568,DCT_v1_online,2021.2.3,Win32,60.04563468,,,0.067,2.283,168,down,1,0.7518,left,1,0.846,2.433,0,23,23,88,1,89,incongruent,up,down,incongruent,Stim/Aincon.png,down,0,0.1,180,6,100,incongruent,left,left,congruent,Stim/Aincon.png,left,-0.1,0,90,5,2000,stimuli\\,,,,,,,,,,,,
,,,,,,,,,,,1,2024-06-28_13h36.55.568,DCT_v1_online,2021.2.3,Win32,60.04563468,,,0.344,2.906,169,up,1,0.468,left,1,0.5843,2.156,0,24,24,5,1,6,congruent,up,up,congruent,Stim/Acon.png,up,0,0.1,0,1,1000,congruent,right,left,incongruent,Stim/Acon.png,left,0.1,0,90,3,2000,stimuli\\,,,,,,,,,,,,
,,,,,,,,,,,1,2024-06-28_13h36.55.568,DCT_v1_online,2021.2.3,Win32,60.04563468,,,0.303,2.047,170,down,1,0.5637,right,1,0.7206,2.197,0,25,25,26,1,27,congruent,up,down,incongruent,Stim/Acon.png,down,0,0.1,180,2,100,incongruent,left,right,incongruent,Stim/Aincon.png,right,-0.1,0,-90,6,2000,stimuli\\,,,,,,,,,,,,
,,,,,,,,,,,1,2024-06-28_13h36.55.568,DCT_v1_online,2021.2.3,Win32,60.04563468,,,0.195,3.055,171,up,1,0.5384,left,1,0.5089,2.305,0,26,26,73,1,74,incongruent,up,up,congruent,Stim/Aincon.png,up,0,0.1,0,5,1000,incongruent,left,left,congruent,Stim/Aincon.png,left,-0.1,0,90,5,2000,stimuli\\,,,,,,,,,,,,
,,,,,,,,,,,1,2024-06-28_13h36.55.568,DCT_v1_online,2021.2.3,Win32,60.04563468,,,0.485,1.865,172,down,1,0.7831,left,1,0.919,2.015,0,27,27,120,1,121,incongruent,down,down,congruent,Stim/Aincon.png,down,0,-0.1,180,8,100,incongruent,left,left,congruent,Stim/Aincon.png,left,-0.1,0,90,5,2000,stimuli\\,,,,,,,,,,,,
,,,,,,,,,,,1,2024-06-28_13h36.55.568,DCT_v1_online,2021.2.3,Win32,60.04563468,,,0.43,2.82,173,down,1,0.4871,right,1,0.4704,2.07,0,28,28,19,1,20,congruent,up,down,incongruent,Stim/Acon.png,down,0,0.1,180,2,1000,congruent,left,right,incongruent,Stim/Acon.png,right,-0.1,0,-90,2,2000,stimuli\\,,,,,,,,,,,,
,,,,,,,,,,,1,2024-06-28_13h36.55.568,DCT_v1_online,2021.2.3,Win32,60.04563468,,,0.443,1.907,174,up,1,0.5359,left,1,0.7115,2.057,0,29,29,76,1,77,incongruent,up,up,congruent,Stim/Aincon.png,up,0,0.1,0,5,100,incongruent,right,left,incongruent,Stim/Aincon.png,left,0.1,0,90,7,2000,stimuli\\,,,,,,,,,,,,
,,,,,,,,,,,1,2024-06-28_13h36.55.568,DCT_v1_online,2021.2.3,Win32,60.04563468,,,0.089,3.161,175,up,1,0.6505,left,1,0.594,2.411,0,30,30,9,1,10,congruent,up,up,congruent,Stim/Acon.png,up,0,0.1,0,1,1000,incongruent,left,left,congruent,Stim/Aincon.png,left,-0.1,0,90,5,2000,stimuli\\,,,,,,,,,,,,
,,,,,,,,,,,1,2024-06-28_13h36.55.568,DCT_v1_online,2021.2.3,Win32,60.04563468,,,0.04,3.21,176,down,1,0.5763,right,1,0.6097,2.46,0,31,31,91,1,92,incongruent,up,down,incongruent,Stim/Aincon.png,down,0,0.1,180,6,1000,incongruent,left,right,incongruent,Stim/Aincon.png,right,-0.1,0,-90,6,2000,stimuli\\,,,,,,,,,,,,
,,,,,,,,,,,1,2024-06-28_13h36.55.568,DCT_v1_online,2021.2.3,Win32,60.04563468,,,0.289,2.061,177,up,1,0.9546,right,1,1.1084,2.211,0,32,32,102,1,103,incongruent,down,up,incongruent,Stim/Aincon.png,up,0,-0.1,0,7,100,congruent,right,right,congruent,Stim/Acon.png,right,0.1,0,-90,4,2000,stimuli\\,,,,,,,,,,,,
,,,,,,,,,,,1,2024-06-28_13h36.55.568,DCT_v1_online,2021.2.3,Win32,60.04563468,,,0.297,2.053,178,up,1,0.5654,left,1,0.6668,2.203,0,33,33,68,1,69,incongruent,up,up,congruent,Stim/Aincon.png,up,0,0.1,0,5,100,congruent,right,left,incongruent,Stim/Acon.png,left,0.1,0,90,3,2000,stimuli\\,,,,,,,,,,,,
,,,,,,,,,,,1,2024-06-28_13h36.55.568,DCT_v1_online,2021.2.3,Win32,60.04563468,,,0.257,2.093,179,up,1,0.6782,left,1,0.8091,2.243,0,34,34,32,1,33,congruent,down,up,incongruent,Stim/Acon.png,up,0,-0.1,0,3,100,congruent,left,left,congruent,Stim/Acon.png,left,-0.1,0,90,1,2000,stimuli\\,,,,,,,,,,,,
,,,,,,,,,,,1,2024-06-28_13h36.55.568,DCT_v1_online,2021.2.3,Win32,60.04563468,,,0.434,2.816,180,down,1,0.538,right,1,0.5041,2.066,0,35,35,87,1,88,incongruent,up,down,incongruent,Stim/Aincon.png,down,0,0.1,180,6,1000,congruent,right,right,congruent,Stim/Acon.png,right,0.1,0,-90,4,2000,stimuli\\,,,,,,,,,,,,
,,,,,,,,,,,1,2024-06-28_13h36.55.568,DCT_v1_online,2021.2.3,Win32,60.04563468,,,0.19,3.06,181,up,0,0.4959,right,1,0.5481,2.31,0,36,36,83,1,84,incongruent,up,down,incongruent,Stim/Aincon.png,down,0,0.1,180,6,1000,congruent,left,right,incongruent,Stim/Acon.png,right,-0.1,0,-90,2,2000,stimuli\\,,,,,,,,,,,,
,,,,,,,,,,,1,2024-06-28_13h36.55.568,DCT_v1_online,2021.2.3,Win32,60.04563468,,,0.007,3.243,182,up,1,0.6014,left,1,0.5915,2.493,0,37,37,69,1,70,incongruent,up,up,congruent,Stim/Aincon.png,up,0,0.1,0,5,1000,congruent,right,left,incongruent,Stim/Acon.png,left,0.1,0,90,3,2000,stimuli\\,,,,,,,,,,,,
,,,,,,,,,,,1,2024-06-28_13h36.55.568,DCT_v1_online,2021.2.3,Win32,60.04563468,,,0.161,2.189,183,up,1,0.6615,right,1,0.902,2.339,0,38,38,78,1,79,incongruent,up,up,congruent,Stim/Aincon.png,up,0,0.1,0,5,100,incongruent,right,right,congruent,Stim/Aincon.png,right,0.1,0,-90,8,2000,stimuli\\,,,,,,,,,,,,
,,,,,,,,,,,1,2024-06-28_13h36.55.568,DCT_v1_online,2021.2.3,Win32,60.04563468,,,0.261,2.089,184,up,1,0.4966,right,1,0.6105,2.239,0,39,39,66,1,67,incongruent,up,up,congruent,Stim/Aincon.png,up,0,0.1,0,5,100,congruent,left,right,incongruent,Stim/Acon.png,right,-0.1,0,-90,2,2000,stimuli\\,,,,,,,,,,,,
,,,,,,,,,,,1,2024-06-28_13h36.55.568,DCT_v1_online,2021.2.3,Win32,60.04563468,,,0,3.25,185,up,1,0.6782,left,1,0.546,2.5,0,40,40,101,1,102,incongruent,down,up,incongruent,Stim/Aincon.png,up,0,-0.1,0,7,1000,congruent,right,left,incongruent,Stim/Acon.png,left,0.1,0,90,3,2000,stimuli\\,,,,,,,,,,,,
,,,,,,,,,,,1,2024-06-28_13h36.55.568,DCT_v1_online,2021.2.3,Win32,60.04563468,,,0.264,2.986,186,up,1,0.48,left,1,0.6397,2.236,0,41,41,77,1,78,incongruent,up,up,congruent,Stim/Aincon.png,up,0,0.1,0,5,1000,incongruent,right,left,incongruent,Stim/Aincon.png,left,0.1,0,90,7,2000,stimuli\\,,,,,,,,,,,,
,,,,,,,,,,,1,2024-06-28_13h36.55.568,DCT_v1_online,2021.2.3,Win32,60.04563468,,,0.03,3.22,187,down,1,0.6377,left,1,0.4986,2.47,0,42,42,53,1,54,congruent,down,down,congruent,Stim/Acon.png,down,0,-0.1,180,4,1000,congruent,right,left,incongruent,Stim/Acon.png,left,0.1,0,90,3,2000,stimuli\\,,,,,,,,,,,,
,,,,,,,,,,,1,2024-06-28_13h36.55.568,DCT_v1_online,2021.2.3,Win32,60.04563468,,,0.02,2.33,188,down,1,0.6568,right,1,0.7703,2.48,0,43,43,62,1,63,congruent,down,down,congruent,Stim/Acon.png,down,0,-0.1,180,4,100,incongruent,right,right,congruent,Stim/Aincon.png,right,0.1,0,-90,8,2000,stimuli\\,,,,,,,,,,,,
,,,,,,,,,,,1,2024-06-28_13h36.55.568,DCT_v1_online,2021.2.3,Win32,60.04563468,,,0.444,1.906,189,down,1,0.6025,right,1,0.7527,2.056,0,44,44,30,1,31,congruent,up,down,incongruent,Stim/Acon.png,down,0,0.1,180,2,100,incongruent,right,right,congruent,Stim/Aincon.png,right,0.1,0,-90,8,2000,stimuli\\,,,,,,,,,,,,
,,,,,,,,,,,1,2024-06-28_13h36.55.568,DCT_v1_online,2021.2.3,Win32,60.04563468,,,0.063,3.187,190,down,1,0.5858,right,1,0.4763,2.437,0,45,45,23,1,24,congruent,up,down,incongruent,Stim/Acon.png,down,0,0.1,180,2,1000,congruent,right,right,congruent,Stim/Acon.png,right,0.1,0,-90,4,2000,stimuli\\,,,,,,,,,,,,
,,,,,,,,,,,1,2024-06-28_13h36.55.568,DCT_v1_online,2021.2.3,Win32,60.04563468,,,0.078,2.272,191,down,1,0.6579,left,1,0.7717,2.422,0,46,46,60,1,61,congruent,down,down,congruent,Stim/Acon.png,down,0,-0.1,180,4,100,incongruent,right,left,incongruent,Stim/Aincon.png,left,0.1,0,90,7,2000,stimuli\\,,,,,,,,,,,,
,,,,,,,,,,,1,2024-06-28_13h36.55.568,DCT_v1_online,2021.2.3,Win32,60.04563468,,,0.37,2.88,192,up,1,0.5616,left,1,0.4528,2.13,0,47,47,37,1,38,congruent,down,up,incongruent,Stim/Acon.png,up,0,-0.1,0,3,1000,congruent,right,left,incongruent,Stim/Acon.png,left,0.1,0,90,3,2000,stimuli\\,,,,,,,,,,,,
,,,,,,,,,,,1,2024-06-28_13h36.55.568,DCT_v1_online,2021.2.3,Win32,60.04563468,,,0.446,1.904,193,down,1,0.506,left,1,0.7818,2.054,0,48,48,24,1,25,congruent,up,down,incongruent,Stim/Acon.png,down,0,0.1,180,2,100,incongruent,left,left,congruent,Stim/Aincon.png,left,-0.1,0,90,5,2000,stimuli\\,,,,,,,,,,,,
,,,,,,,,,,,1,2024-06-28_13h36.55.568,DCT_v1_online,2021.2.3,Win32,60.04563468,,,0.083,2.267,194,up,1,0.8355,left,1,0.9081,2.417,0,49,49,96,1,97,incongruent,down,up,incongruent,Stim/Aincon.png,up,0,-0.1,0,7,100,congruent,left,left,congruent,Stim/Acon.png,left,-0.1,0,90,1,2000,stimuli\\,,,,,,,,,,,,
,,,,,,,,,,,1,2024-06-28_13h36.55.568,DCT_v1_online,2021.2.3,Win32,60.04563468,,,0.326,2.024,195,up,1,0.5377,left,1,0.6011,2.174,0,50,50,0,1,1,congruent,up,up,congruent,Stim/Acon.png,up,0,0.1,0,1,100,congruent,left,left,congruent,Stim/Acon.png,left,-0.1,0,90,1,2000,stimuli\\,,,,,,,,,,,,
,,,,,,,,,,,1,2024-06-28_13h36.55.568,DCT_v1_online,2021.2.3,Win32,60.04563468,,,0.208,2.142,196,down,1,0.6956,left,1,0.8246,2.292,0,51,51,80,1,81,incongruent,up,down,incongruent,Stim/Aincon.png,down,0,0.1,180,6,100,congruent,left,left,congruent,Stim/Acon.png,left,-0.1,0,90,1,2000,stimuli\\,,,,,,,,,,,,
,,,,,,,,,,,1,2024-06-28_13h36.55.568,DCT_v1_online,2021.2.3,Win32,60.04563468,,,0.021,3.229,197,up,1,0.7117,left,1,0.5943,2.479,0,52,52,109,1,110,incongruent,down,up,incongruent,Stim/Aincon.png,up,0,-0.1,0,7,1000,incongruent,right,left,incongruent,Stim/Aincon.png,left,0.1,0,90,7,2000,stimuli\\,,,,,,,,,,,,
,,,,,,,,,,,1,2024-06-28_13h36.55.568,DCT_v1_online,2021.2.3,Win32,60.04563468,,,0.455,1.895,198,down,1,0.8303,right,1,0.9239,2.045,0,53,53,118,1,119,incongruent,down,down,congruent,Stim/Aincon.png,down,0,-0.1,180,8,100,congruent,right,right,congruent,Stim/Acon.png,right,0.1,0,-90,4,2000,stimuli\\,,,,,,,,,,,,
,,,,,,,,,,,1,2024-06-28_13h36.55.568,DCT_v1_online,2021.2.3,Win32,60.04563468,,,0.28,2.07,199,up,1,0.5325,right,1,0.6849,2.22,0,54,54,14,1,15,congruent,up,up,congruent,Stim/Acon.png,up,0,0.1,0,1,100,incongruent,right,right,congruent,Stim/Aincon.png,right,0.1,0,-90,8,2000,stimuli\\,,,,,,,,,,,,
,,,,,,,,,,,1,2024-06-28_13h36.55.568,DCT_v1_online,2021.2.3,Win32,60.04563468,,,0.426,1.924,200,down,1,0.6337,right,1,0.8109,2.074,0,55,55,90,1,91,incongruent,up,down,incongruent,Stim/Aincon.png,down,0,0.1,180,6,100,incongruent,left,right,incongruent,Stim/Aincon.png,right,-0.1,0,-90,6,2000,stimuli\\,,,,,,,,,,,,
,,,,,,,,,,,1,2024-06-28_13h36.55.568,DCT_v1_online,2021.2.3,Win32,60.04563468,,,0.025,2.325,201,up,1,0.6529,left,1,0.7959,2.475,0,56,56,44,1,45,congruent,down,up,incongruent,Stim/Acon.png,up,0,-0.1,0,3,100,incongruent,right,left,incongruent,Stim/Aincon.png,left,0.1,0,90,7,2000,stimuli\\,,,,,,,,,,,,
,,,,,,,,,,,1,2024-06-28_13h36.55.568,DCT_v1_online,2021.2.3,Win32,60.04563468,,,0.219,3.031,202,down,1,0.6992,right,1,0.5472,2.281,0,57,57,127,1,128,incongruent,down,down,congruent,Stim/Aincon.png,down,0,-0.1,180,8,1000,incongruent,right,right,congruent,Stim/Aincon.png,right,0.1,0,-90,8,2000,stimuli\\,,,,,,,,,,,,
,,,,,,,,,,,1,2024-06-28_13h36.55.568,DCT_v1_online,2021.2.3,Win32,60.04563468,,,0.24,3.01,203,down,1,0.4579,left,1,0.5919,2.26,0,58,58,25,1,26,congruent,up,down,incongruent,Stim/Acon.png,down,0,0.1,180,2,1000,incongruent,left,left,congruent,Stim/Aincon.png,left,-0.1,0,90,5,2000,stimuli\\,,,,,,,,,,,,
,,,,,,,,,,,1,2024-06-28_13h36.55.568,DCT_v1_online,2021.2.3,Win32,60.04563468,,,0.203,2.147,204,down,1,0.7891,right,1,0.8616,2.297,0,59,59,114,1,115,incongruent,down,down,congruent,Stim/Aincon.png,down,0,-0.1,180,8,100,congruent,left,right,incongruent,Stim/Acon.png,right,-0.1,0,-90,2,2000,stimuli\\,,,,,,,,,,,,
,,,,,,,,,,,1,2024-06-28_13h36.55.568,DCT_v1_online,2021.2.3,Win32,60.04563468,,,0.061,2.289,205,down,1,0.7912,left,0,0.8435,2.439,0,60,60,58,1,59,congruent,down,down,congruent,Stim/Acon.png,down,0,-0.1,180,4,100,incongruent,left,right,incongruent,Stim/Aincon.png,right,-0.1,0,-90,6,2000,stimuli\\,,,,,,,,,,,,
,,,,,,,,,,,1,2024-06-28_13h36.55.568,DCT_v1_online,2021.2.3,Win32,60.04563468,,,0.004,3.246,206,up,1,0.528,left,1,0.5398,2.496,0,61,61,33,1,34,congruent,down,up,incongruent,Stim/Acon.png,up,0,-0.1,0,3,1000,congruent,left,left,congruent,Stim/Acon.png,left,-0.1,0,90,1,2000,stimuli\\,,,,,,,,,,,,
,,,,,,,,,,,1,2024-06-28_13h36.55.568,DCT_v1_online,2021.2.3,Win32,60.04563468,,,0.161,2.189,207,up,1,0.7008,left,1,0.762,2.339,0,62,62,36,1,37,congruent,down,up,incongruent,Stim/Acon.png,up,0,-0.1,0,3,100,congruent,right,left,incongruent,Stim/Acon.png,left,0.1,0,90,3,2000,stimuli\\,,,,,,,,,,,,
,,,,,,,,,,,1,2024-06-28_13h36.55.568,DCT_v1_online,2021.2.3,Win32,60.04563468,,,0.314,2.036,208,down,1,0.593,right,1,0.7073,2.186,0,63,63,22,1,23,congruent,up,down,incongruent,Stim/Acon.png,down,0,0.1,180,2,100,congruent,right,right,congruent,Stim/Acon.png,right,0.1,0,-90,4,2000,stimuli\\,,,,,,,,,,,,
,,,,,,,,,,,1,2024-06-28_13h36.55.568,DCT_v1_online,2021.2.3,Win32,60.04563468,,,0.243,3.007,209,up,1,0.5896,left,1,0.6454,2.257,0,64,64,45,1,46,congruent,down,up,incongruent,Stim/Acon.png,up,0,-0.1,0,3,1000,incongruent,right,left,incongruent,Stim/Aincon.png,left,0.1,0,90,7,2000,stimuli\\,,,,,,,,,,,,
,,,,,,,,,,,1,2024-06-28_13h36.55.568,DCT_v1_online,2021.2.3,Win32,60.04563468,,,0.141,2.209,210,up,1,0.6538,right,1,0.7705,2.359,0,65,65,42,1,43,congruent,down,up,incongruent,Stim/Acon.png,up,0,-0.1,0,3,100,incongruent,left,right,incongruent,Stim/Aincon.png,right,-0.1,0,-90,6,2000,stimuli\\,,,,,,,,,,,,
,,,,,,,,,,,1,2024-06-28_13h36.55.568,DCT_v1_online,2021.2.3,Win32,60.04563468,,,0,2.35,211,up,1,0.907,left,1,1.0646,2.5,0,66,66,104,1,105,incongruent,down,up,incongruent,Stim/Aincon.png,up,0,-0.1,0,7,100,incongruent,left,left,congruent,Stim/Aincon.png,left,-0.1,0,90,5,2000,stimuli\\,,,,,,,,,,,,
,,,,,,,,,,,1,2024-06-28_13h36.55.568,DCT_v1_online,2021.2.3,Win32,60.04563468,,,0.01,2.34,212,up,1,0.5766,right,1,0.6502,2.49,0,67,67,6,1,7,congruent,up,up,congruent,Stim/Acon.png,up,0,0.1,0,1,100,congruent,right,right,congruent,Stim/Acon.png,right,0.1,0,-90,4,2000,stimuli\\,,,,,,,,,,,,
,,,,,,,,,,,1,2024-06-28_13h36.55.568,DCT_v1_online,2021.2.3,Win32,60.04563468,,,0.478,1.872,213,down,1,0.6089,left,1,0.7859,2.022,0,68,68,28,1,29,congruent,up,down,incongruent,Stim/Acon.png,down,0,0.1,180,2,100,incongruent,right,left,incongruent,Stim/Aincon.png,left,0.1,0,90,7,2000,stimuli\\,,,,,,,,,,,,
,,,,,,,,,,,1,2024-06-28_13h36.55.568,DCT_v1_online,2021.2.3,Win32,60.04563468,,,0.471,1.879,214,up,1,0.5172,right,1,0.5986,2.029,0,69,69,70,1,71,incongruent,up,up,congruent,Stim/Aincon.png,up,0,0.1,0,5,100,congruent,right,right,congruent,Stim/Acon.png,right,0.1,0,-90,4,2000,stimuli\\,,,,,,,,,,,,
,,,,,,,,,,,1,2024-06-28_13h36.55.568,DCT_v1_online,2021.2.3,Win32,60.04563468,,,0.188,3.062,215,down,1,0.511,left,1,0.5691,2.312,0,70,70,29,1,30,congruent,up,down,incongruent,Stim/Acon.png,down,0,0.1,180,2,1000,incongruent,right,left,incongruent,Stim/Aincon.png,left,0.1,0,90,7,2000,stimuli\\,,,,,,,,,,,,
,,,,,,,,,,,1,2024-06-28_13h36.55.568,DCT_v1_online,2021.2.3,Win32,60.04563468,,,0.246,2.104,216,down,1,0.8473,left,1,0.9619,2.254,0,71,71,112,1,113,incongruent,down,down,congruent,Stim/Aincon.png,down,0,-0.1,180,8,100,congruent,left,left,congruent,Stim/Acon.png,left,-0.1,0,90,1,2000,stimuli\\,,,,,,,,,,,,
,,,,,,,,,,,1,2024-06-28_13h36.55.568,DCT_v1_online,2021.2.3,Win32,60.04563468,,,0.015,2.335,217,down,1,0.6177,left,1,0.6835,2.485,0,72,72,20,1,21,congruent,up,down,incongruent,Stim/Acon.png,down,0,0.1,180,2,100,congruent,right,left,incongruent,Stim/Acon.png,left,0.1,0,90,3,2000,stimuli\\,,,,,,,,,,,,
,,,,,,,,,,,1,2024-06-28_13h36.55.568,DCT_v1_online,2021.2.3,Win32,60.04563468,,,0.384,2.866,218,up,1,0.6148,left,1,0.5763,2.116,0,73,73,65,1,66,incongruent,up,up,congruent,Stim/Aincon.png,up,0,0.1,0,5,1000,congruent,left,left,congruent,Stim/Acon.png,left,-0.1,0,90,1,2000,stimuli\\,,,,,,,,,,,,
,,,,,,,,,,,1,2024-06-28_13h36.55.568,DCT_v1_online,2021.2.3,Win32,60.04563468,,,0.229,3.021,219,up,1,0.5547,right,1,0.4681,2.271,0,74,74,43,1,44,congruent,down,up,incongruent,Stim/Acon.png,up,0,-0.1,0,3,1000,incongruent,left,right,incongruent,Stim/Aincon.png,right,-0.1,0,-90,6,2000,stimuli\\,,,,,,,,,,,,
,,,,,,,,,,,1,2024-06-28_13h36.55.568,DCT_v1_online,2021.2.3,Win32,60.04563468,,,0.081,2.269,220,down,1,0.6944,left,1,0.7454,2.419,0,75,75,52,1,53,congruent,down,down,congruent,Stim/Acon.png,down,0,-0.1,180,4,100,congruent,right,left,incongruent,Stim/Acon.png,left,0.1,0,90,3,2000,stimuli\\,,,,,,,,,,,,
,,,,,,,,,,,1,2024-06-28_13h36.55.568,DCT_v1_online,2021.2.3,Win32,60.04563468,,,0.242,3.008,221,down,1,0.4871,left,1,0.4746,2.258,0,76,76,17,1,18,congruent,up,down,incongruent,Stim/Acon.png,down,0,0.1,180,2,1000,congruent,left,left,congruent,Stim/Acon.png,left,-0.1,0,90,1,2000,stimuli\\,,,,,,,,,,,,
,,,,,,,,,,,1,2024-06-28_13h36.55.568,DCT_v1_online,2021.2.3,Win32,60.04563468,,,0.077,3.173,222,down,1,0.5019,left,1,0.4675,2.423,0,77,77,21,1,22,congruent,up,down,incongruent,Stim/Acon.png,down,0,0.1,180,2,1000,congruent,right,left,incongruent,Stim/Acon.png,left,0.1,0,90,3,2000,stimuli\\,,,,,,,,,,,,
,,,,,,,,,,,1,2024-06-28_13h36.55.568,DCT_v1_online,2021.2.3,Win32,60.04563468,,,0.045,3.205,223,down,1,0.5428,right,1,0.5971,2.455,0,78,78,95,1,96,incongruent,up,down,incongruent,Stim/Aincon.png,down,0,0.1,180,6,1000,incongruent,right,right,congruent,Stim/Aincon.png,right,0.1,0,-90,8,2000,stimuli\\,,,,,,,,,,,,
,,,,,,,,,,,1,2024-06-28_13h36.55.568,DCT_v1_online,2021.2.3,Win32,60.04563468,,,0.125,2.225,224,up,1,0.687,right,1,0.8033,2.375,0,79,79,98,1,99,incongruent,down,up,incongruent,Stim/Aincon.png,up,0,-0.1,0,7,100,congruent,left,right,incongruent,Stim/Acon.png,right,-0.1,0,-90,2,2000,stimuli\\,,,,,,,,,,,,
,,,,,,,,,,,1,2024-06-28_13h36.55.568,DCT_v1_online,2021.2.3,Win32,60.04563468,,,0.273,2.077,225,up,1,0.6658,left,1,0.8032,2.227,0,80,80,40,1,41,congruent,down,up,incongruent,Stim/Acon.png,up,0,-0.1,0,3,100,incongruent,left,left,congruent,Stim/Aincon.png,left,-0.1,0,90,5,2000,stimuli\\,,,,,,,,,,,,
,,,,,,,,,,,1,2024-06-28_13h36.55.568,DCT_v1_online,2021.2.3,Win32,60.04563468,,,0.171,3.079,226,up,1,0.4867,right,1,0.5867,2.329,0,81,81,15,1,16,congruent,up,up,congruent,Stim/Acon.png,up,0,0.1,0,1,1000,incongruent,right,right,congruent,Stim/Aincon.png,right,0.1,0,-90,8,2000,stimuli\\,,,,,,,,,,,,
,,,,,,,,,,,1,2024-06-28_13h36.55.568,DCT_v1_online,2021.2.3,Win32,60.04563468,,,0.313,2.037,227,down,1,0.5776,left,1,0.6718,2.187,0,82,82,16,1,17,congruent,up,down,incongruent,Stim/Acon.png,down,0,0.1,180,2,100,congruent,left,left,congruent,Stim/Acon.png,left,-0.1,0,90,1,2000,stimuli\\,,,,,,,,,,,,
,,,,,,,,,,,1,2024-06-28_13h36.55.568,DCT_v1_online,2021.2.3,Win32,60.04563468,,,0.11,2.24,228,up,1,0.4989,left,1,0.6753,2.39,0,83,83,8,1,9,congruent,up,up,congruent,Stim/Acon.png,up,0,0.1,0,1,100,incongruent,left,left,congruent,Stim/Aincon.png,left,-0.1,0,90,5,2000,stimuli\\,,,,,,,,,,,,
,,,,,,,,,,,1,2024-06-28_13h36.55.568,DCT_v1_online,2021.2.3,Win32,60.04563468,,,0.175,3.075,229,down,1,0.6641,right,1,0.5065,2.325,0,84,84,115,1,116,incongruent,down,down,congruent,Stim/Aincon.png,down,0,-0.1,180,8,1000,congruent,left,right,incongruent,Stim/Acon.png,right,-0.1,0,-90,2,2000,stimuli\\,,,,,,,,,,,,
,,,,,,,,,,,1,2024-06-28_13h36.55.568,DCT_v1_online,2021.2.3,Win32,60.04563468,,,0.355,1.995,230,down,1,0.7136,left,1,0.8234,2.145,0,85,85,92,1,93,incongruent,up,down,incongruent,Stim/Aincon.png,down,0,0.1,180,6,100,incongruent,right,left,incongruent,Stim/Aincon.png,left,0.1,0,90,7,2000,stimuli\\,,,,,,,,,,,,
,,,,,,,,,,,1,2024-06-28_13h36.55.568,DCT_v1_online,2021.2.3,Win32,60.04563468,,,0.238,3.012,231,up,1,0.5344,right,1,0.4743,2.262,0,86,86,35,1,36,congruent,down,up,incongruent,Stim/Acon.png,up,0,-0.1,0,3,1000,congruent,left,right,incongruent,Stim/Acon.png,right,-0.1,0,-90,2,2000,stimuli\\,,,,,,,,,,,,
,,,,,,,,,,,1,2024-06-28_13h36.55.568,DCT_v1_online,2021.2.3,Win32,60.04563468,,,0.148,3.102,232,up,1,0.7027,left,1,0.5896,2.352,0,87,87,97,1,98,incongruent,down,up,incongruent,Stim/Aincon.png,up,0,-0.1,0,7,1000,congruent,left,left,congruent,Stim/Acon.png,left,-0.1,0,90,1,2000,stimuli\\,,,,,,,,,,,,
,,,,,,,,,,,1,2024-06-28_13h36.55.568,DCT_v1_online,2021.2.3,Win32,60.04563468,,,0.397,2.853,233,up,1,0.559,right,1,0.5925,2.103,0,88,88,39,1,40,congruent,down,up,incongruent,Stim/Acon.png,up,0,-0.1,0,3,1000,congruent,right,right,congruent,Stim/Acon.png,right,0.1,0,-90,4,2000,stimuli\\,,,,,,,,,,,,
,,,,,,,,,,,1,2024-06-28_13h36.55.568,DCT_v1_online,2021.2.3,Win32,60.04563468,,,0.094,3.156,234,down,1,0.803,right,1,0.5454,2.406,0,89,89,119,1,120,incongruent,down,down,congruent,Stim/Aincon.png,down,0,-0.1,180,8,1000,congruent,right,right,congruent,Stim/Acon.png,right,0.1,0,-90,4,2000,stimuli\\,,,,,,,,,,,,
,,,,,,,,,,,1,2024-06-28_13h36.55.568,DCT_v1_online,2021.2.3,Win32,60.04563468,,,0.413,2.837,235,down,1,0.6157,left,1,0.5442,2.087,0,90,90,85,1,86,incongruent,up,down,incongruent,Stim/Aincon.png,down,0,0.1,180,6,1000,congruent,right,left,incongruent,Stim/Acon.png,left,0.1,0,90,3,2000,stimuli\\,,,,,,,,,,,,
,,,,,,,,,,,1,2024-06-28_13h36.55.568,DCT_v1_online,2021.2.3,Win32,60.04563468,,,0.247,2.103,236,up,1,0.7671,right,1,0.9346,2.253,0,91,91,110,1,111,incongruent,down,up,incongruent,Stim/Aincon.png,up,0,-0.1,0,7,100,incongruent,right,right,congruent,Stim/Aincon.png,right,0.1,0,-90,8,2000,stimuli\\,,,,,,,,,,,,
,,,,,,,,,,,1,2024-06-28_13h36.55.568,DCT_v1_online,2021.2.3,Win32,60.04563468,,,0.047,3.203,237,down,1,0.6125,left,1,0.5365,2.453,0,92,92,117,1,118,incongruent,down,down,congruent,Stim/Aincon.png,down,0,-0.1,180,8,1000,congruent,right,left,incongruent,Stim/Acon.png,left,0.1,0,90,3,2000,stimuli\\,,,,,,,,,,,,
,,,,,,,,,,,1,2024-06-28_13h36.55.568,DCT_v1_online,2021.2.3,Win32,60.04563468,,,0.461,1.889,238,up,1,0.5933,left,1,0.9139,2.039,0,93,93,12,1,13,congruent,up,up,congruent,Stim/Acon.png,up,0,0.1,0,1,100,incongruent,right,left,incongruent,Stim/Aincon.png,left,0.1,0,90,7,2000,stimuli\\,,,,,,,,,,,,
,,,,,,,,,,,1,2024-06-28_13h36.55.568,DCT_v1_online,2021.2.3,Win32,60.04563468,,,0.497,1.853,239,up,1,0.6285,left,1,0.7707,2.003,0,94,94,4,1,5,congruent,up,up,congruent,Stim/Acon.png,up,0,0.1,0,1,100,congruent,right,left,incongruent,Stim/Acon.png,left,0.1,0,90,3,2000,stimuli\\,,,,,,,,,,,,
,,,,,,,,,,,1,2024-06-28_13h36.55.568,DCT_v1_online,2021.2.3,Win32,60.04563468,,,0.106,3.144,240,up,1,0.4379,left,1,0.6135,2.394,0,95,95,13,1,14,congruent,up,up,congruent,Stim/Acon.png,up,0,0.1,0,1,1000,incongruent,right,left,incongruent,Stim/Aincon.png,left,0.1,0,90,7,2000,stimuli\\,,,,,,,,,,,,
,,,,,,,,,,,1,2024-06-28_13h36.55.568,DCT_v1_online,2021.2.3,Win32,60.04563468,,,0.237,2.113,241,up,1,0.5706,left,1,0.6567,2.263,0,96,96,64,1,65,incongruent,up,up,congruent,Stim/Aincon.png,up,0,0.1,0,5,100,congruent,left,left,congruent,Stim/Acon.png,left,-0.1,0,90,1,2000,stimuli\\,,,,,,,,,,,,
,,,,,,,,,,,1,2024-06-28_13h36.55.568,DCT_v1_online,2021.2.3,Win32,60.04563468,,,0.428,2.822,242,down,1,0.7135,left,1,0.4835,2.072,0,97,97,113,1,114,incongruent,down,down,congruent,Stim/Aincon.png,down,0,-0.1,180,8,1000,congruent,left,left,congruent,Stim/Acon.png,left,-0.1,0,90,1,2000,stimuli\\,,,,,,,,,,,,
,,,,,,,,,,,1,2024-06-28_13h36.55.568,DCT_v1_online,2021.2.3,Win32,60.04563468,,,0.194,3.056,243,down,1,0.5126,left,1,0.6002,2.306,0,98,98,89,1,90,incongruent,up,down,incongruent,Stim/Aincon.png,down,0,0.1,180,6,1000,incongruent,left,left,congruent,Stim/Aincon.png,left,-0.1,0,90,5,2000,stimuli\\,,,,,,,,,,,,
,,,,,,,,,,,1,2024-06-28_13h36.55.568,DCT_v1_online,2021.2.3,Win32,60.04563468,,,0.212,2.138,244,up,1,0.8004,left,1,0.8837,2.288,0,99,99,100,1,101,incongruent,down,up,incongruent,Stim/Aincon.png,up,0,-0.1,0,7,100,congruent,right,left,incongruent,Stim/Acon.png,left,0.1,0,90,3,2000,stimuli\\,,,,,,,,,,,,
,,,,,,,,,,,1,2024-06-28_13h36.55.568,DCT_v1_online,2021.2.3,Win32,60.04563468,,,0.061,3.189,245,up,1,0.8636,right,1,0.4836,2.439,0,100,100,103,1,104,incongruent,down,up,incongruent,Stim/Aincon.png,up,0,-0.1,0,7,1000,congruent,right,right,congruent,Stim/Acon.png,right,0.1,0,-90,4,2000,stimuli\\,,,,,,,,,,,,
,,,,,,,,,,,1,2024-06-28_13h36.55.568,DCT_v1_online,2021.2.3,Win32,60.04563468,,,0.082,3.168,246,up,1,0.7171,right,1,0.6233,2.418,0,101,101,107,1,108,incongruent,down,up,incongruent,Stim/Aincon.png,up,0,-0.1,0,7,1000,incongruent,left,right,incongruent,Stim/Aincon.png,right,-0.1,0,-90,6,2000,stimuli\\,,,,,,,,,,,,
,,,,,,,,,,,1,2024-06-28_13h36.55.568,DCT_v1_online,2021.2.3,Win32,60.04563468,,,0.251,2.999,247,up,1,0.5951,right,1,0.6834,2.249,0,102,102,75,1,76,incongruent,up,up,congruent,Stim/Aincon.png,up,0,0.1,0,5,1000,incongruent,left,right,incongruent,Stim/Aincon.png,right,-0.1,0,-90,6,2000,stimuli\\,,,,,,,,,,,,
,,,,,,,,,,,1,2024-06-28_13h36.55.568,DCT_v1_online,2021.2.3,Win32,60.04563468,,,0.038,2.312,248,down,1,0.9079,right,1,1.0336,2.462,0,103,103,126,1,127,incongruent,down,down,congruent,Stim/Aincon.png,down,0,-0.1,180,8,100,incongruent,right,right,congruent,Stim/Aincon.png,right,0.1,0,-90,8,2000,stimuli\\,,,,,,,,,,,,
,,,,,,,,,,,1,2024-06-28_13h36.55.568,DCT_v1_online,2021.2.3,Win32,60.04563468,,,0.171,2.179,249,down,1,0.9339,right,1,1.0342,2.329,0,104,104,122,1,123,incongruent,down,down,congruent,Stim/Aincon.png,down,0,-0.1,180,8,100,incongruent,left,right,incongruent,Stim/Aincon.png,right,-0.1,0,-90,6,2000,stimuli\\,,,,,,,,,,,,
,,,,,,,,,,,1,2024-06-28_13h36.55.568,DCT_v1_online,2021.2.3,Win32,60.04563468,,,0.435,1.915,250,up,1,0.8337,right,1,1.0006,2.065,0,105,105,46,1,47,congruent,down,up,incongruent,Stim/Acon.png,up,0,-0.1,0,3,100,incongruent,right,right,congruent,Stim/Aincon.png,right,0.1,0,-90,8,2000,stimuli\\,,,,,,,,,,,,
,,,,,,,,,,,1,2024-06-28_13h36.55.568,DCT_v1_online,2021.2.3,Win32,60.04563468,,,0.377,1.973,251,down,1,0.7652,right,1,0.83,2.123,0,106,106,54,1,55,congruent,down,down,congruent,Stim/Acon.png,down,0,-0.1,180,4,100,congruent,right,right,congruent,Stim/Acon.png,right,0.1,0,-90,4,2000,stimuli\\,,,,,,,,,,,,
,,,,,,,,,,,1,2024-06-28_13h36.55.568,DCT_v1_online,2021.2.3,Win32,60.04563468,,,0.23,3.02,252,up,1,0.7216,left,1,0.6515,2.27,0,107,107,105,1,106,incongruent,down,up,incongruent,Stim/Aincon.png,up,0,-0.1,0,7,1000,incongruent,left,left,congruent,Stim/Aincon.png,left,-0.1,0,90,5,2000,stimuli\\,,,,,,,,,,,,
,,,,,,,,,,,1,2024-06-28_13h36.55.568,DCT_v1_online,2021.2.3,Win32,60.04563468,,,0.046,2.304,253,down,1,0.6656,right,1,0.7503,2.454,0,108,108,94,1,95,incongruent,up,down,incongruent,Stim/Aincon.png,down,0,0.1,180,6,100,incongruent,right,right,congruent,Stim/Aincon.png,right,0.1,0,-90,8,2000,stimuli\\,,,,,,,,,,,,
,,,,,,,,,,,1,2024-06-28_13h36.55.568,DCT_v1_online,2021.2.3,Win32,60.04563468,,,0.157,3.093,254,down,1,0.7421,left,1,0.6168,2.343,0,109,109,57,1,58,congruent,down,down,congruent,Stim/Acon.png,down,0,-0.1,180,4,1000,incongruent,left,left,congruent,Stim/Aincon.png,left,-0.1,0,90,5,2000,stimuli\\,,,,,,,,,,,,
,,,,,,,,,,,1,2024-06-28_13h36.55.568,DCT_v1_online,2021.2.3,Win32,60.04563468,,,0,2.35,255,down,1,0.7337,right,1,0.8346,2.5,0,110,110,82,1,83,incongruent,up,down,incongruent,Stim/Aincon.png,down,0,0.1,180,6,100,congruent,left,right,incongruent,Stim/Acon.png,right,-0.1,0,-90,2,2000,stimuli\\,,,,,,,,,,,,
,,,,,,,,,,,1,2024-06-28_13h36.55.568,DCT_v1_online,2021.2.3,Win32,60.04563468,,,0.447,1.903,256,down,1,0.8171,left,1,0.9311,2.053,0,111,111,124,1,125,incongruent,down,down,congruent,Stim/Aincon.png,down,0,-0.1,180,8,100,incongruent,right,left,incongruent,Stim/Aincon.png,left,0.1,0,90,7,2000,stimuli\\,,,,,,,,,,,,
,,,,,,,,,,,1,2024-06-28_13h36.55.568,DCT_v1_online,2021.2.3,Win32,60.04563468,,,0.247,2.103,257,up,1,0.7003,right,1,0.7503,2.253,0,112,112,2,1,3,congruent,up,up,congruent,Stim/Acon.png,up,0,0.1,0,1,100,congruent,left,right,incongruent,Stim/Acon.png,right,-0.1,0,-90,2,2000,stimuli\\,,,,,,,,,,,,
,,,,,,,,,,,1,2024-06-28_13h36.55.568,DCT_v1_online,2021.2.3,Win32,60.04563468,,,0.487,2.763,258,up,1,0.5307,left,1,0.4513,2.013,0,113,113,1,1,2,congruent,up,up,congruent,Stim/Acon.png,up,0,0.1,0,1,1000,congruent,left,left,congruent,Stim/Acon.png,left,-0.1,0,90,1,2000,stimuli\\,,,,,,,,,,,,
,,,,,,,,,,,1,2024-06-28_13h36.55.568,DCT_v1_online,2021.2.3,Win32,60.04563468,,,0.488,2.762,259,down,1,0.5506,left,1,0.617,2.012,0,114,114,93,1,94,incongruent,up,down,incongruent,Stim/Aincon.png,down,0,0.1,180,6,1000,incongruent,right,left,incongruent,Stim/Aincon.png,left,0.1,0,90,7,2000,stimuli\\,,,,,,,,,,,,
,,,,,,,,,,,1,2024-06-28_13h36.55.568,DCT_v1_online,2021.2.3,Win32,60.04563468,,,0.093,3.157,260,up,1,0.5337,right,1,0.6187,2.407,0,115,115,7,1,8,congruent,up,up,congruent,Stim/Acon.png,up,0,0.1,0,1,1000,congruent,right,right,congruent,Stim/Acon.png,right,0.1,0,-90,4,2000,stimuli\\,,,,,,,,,,,,
,,,,,,,,,,,1,2024-06-28_13h36.55.568,DCT_v1_online,2021.2.3,Win32,60.04563468,,,0.229,2.121,261,up,1,0.8865,right,1,1.0841,2.271,0,116,116,106,1,107,incongruent,down,up,incongruent,Stim/Aincon.png,up,0,-0.1,0,7,100,incongruent,left,right,incongruent,Stim/Aincon.png,right,-0.1,0,-90,6,2000,stimuli\\,,,,,,,,,,,,
,,,,,,,,,,,1,2024-06-28_13h36.55.568,DCT_v1_online,2021.2.3,Win32,60.04563468,,,0.195,3.055,262,down,1,0.5138,right,1,0.6169,2.305,0,117,117,31,1,32,congruent,up,down,incongruent,Stim/Acon.png,down,0,0.1,180,2,1000,incongruent,right,right,congruent,Stim/Aincon.png,right,0.1,0,-90,8,2000,stimuli\\,,,,,,,,,,,,
,,,,,,,,,,,1,2024-06-28_13h36.55.568,DCT_v1_online,2021.2.3,Win32,60.04563468,,,0.335,2.015,263,down,1,0.7342,left,1,0.7966,2.165,0,118,118,84,1,85,incongruent,up,down,incongruent,Stim/Aincon.png,down,0,0.1,180,6,100,congruent,right,left,incongruent,Stim/Acon.png,left,0.1,0,90,3,2000,stimuli\\,,,,,,,,,,,,
,,,,,,,,,,,1,2024-06-28_13h36.55.568,DCT_v1_online,2021.2.3,Win32,60.04563468,,,0.453,2.797,264,down,1,0.6669,left,1,0.6003,2.047,0,119,119,121,1,122,incongruent,down,down,congruent,Stim/Aincon.png,down,0,-0.1,180,8,1000,incongruent,left,left,congruent,Stim/Aincon.png,left,-0.1,0,90,5,2000,stimuli\\,,,,,,,,,,,,
,,,,,,,,,,,1,2024-06-28_13h36.55.568,DCT_v1_online,2021.2.3,Win32,60.04563468,,,0.114,2.236,265,up,1,0.7002,right,1,0.7833,2.386,0,120,120,38,1,39,congruent,down,up,incongruent,Stim/Acon.png,up,0,-0.1,0,3,100,congruent,right,right,congruent,Stim/Acon.png,right,0.1,0,-90,4,2000,stimuli\\,,,,,,,,,,,,
,,,,,,,,,,,1,2024-06-28_13h36.55.568,DCT_v1_online,2021.2.3,Win32,60.04563468,,,0.401,2.849,266,down,1,0.5502,left,1,0.4667,2.099,0,121,121,81,1,82,incongruent,up,down,incongruent,Stim/Aincon.png,down,0,0.1,180,6,1000,congruent,left,left,congruent,Stim/Acon.png,left,-0.1,0,90,1,2000,stimuli\\,,,,,,,,,,,,
,,,,,,,,,,,1,2024-06-28_13h36.55.568,DCT_v1_online,2021.2.3,Win32,60.04563468,,,0.446,1.904,267,up,1,0.7473,left,1,0.9467,2.054,0,122,122,108,1,109,incongruent,down,up,incongruent,Stim/Aincon.png,up,0,-0.1,0,7,100,incongruent,right,left,incongruent,Stim/Aincon.png,left,0.1,0,90,7,2000,stimuli\\,,,,,,,,,,,,
,,,,,,,,,,,1,2024-06-28_13h36.55.568,DCT_v1_online,2021.2.3,Win32,60.04563468,,,0.143,2.207,268,down,1,0.8337,left,1,0.9669,2.357,0,123,123,116,1,117,incongruent,down,down,congruent,Stim/Aincon.png,down,0,-0.1,180,8,100,congruent,right,left,incongruent,Stim/Acon.png,left,0.1,0,90,3,2000,stimuli\\,,,,,,,,,,,,
,,,,,,,,,,,1,2024-06-28_13h36.55.568,DCT_v1_online,2021.2.3,Win32,60.04563468,,,0.145,3.105,269,up,1,0.6513,right,1,0.5031,2.355,0,124,124,71,1,72,incongruent,up,up,congruent,Stim/Aincon.png,up,0,0.1,0,5,1000,congruent,right,right,congruent,Stim/Acon.png,right,0.1,0,-90,4,2000,stimuli\\,,,,,,,,,,,,
,,,,,,,,,,,1,2024-06-28_13h36.55.568,DCT_v1_online,2021.2.3,Win32,60.04563468,,,0.42,1.93,270,up,1,0.6529,right,1,0.7698,2.08,0,125,125,34,1,35,congruent,down,up,incongruent,Stim/Acon.png,up,0,-0.1,0,3,100,congruent,left,right,incongruent,Stim/Acon.png,right,-0.1,0,-90,2,2000,stimuli\\,,,,,,,,,,,,
,,,,,,,,,,,1,2024-06-28_13h36.55.568,DCT_v1_online,2021.2.3,Win32,60.04563468,,,0.373,2.877,271,up,1,0.6677,right,1,0.4669,2.127,0,126,126,99,1,100,incongruent,down,up,incongruent,Stim/Aincon.png,up,0,-0.1,0,7,1000,congruent,left,right,incongruent,Stim/Acon.png,right,-0.1,0,-90,2,2000,stimuli\\,,,,,,,,,,,,
,,,,,,,,,,,1,2024-06-28_13h36.55.568,DCT_v1_online,2021.2.3,Win32,60.04563468,,,0.407,1.943,272,down,1,0.6396,right,1,0.7038,2.093,0,127,127,18,1,19,congruent,up,down,incongruent,Stim/Acon.png,down,0,0.1,180,2,100,congruent,left,right,incongruent,Stim/Acon.png,right,-0.1,0,-90,2,2000,stimuli\\,,,,,,,,,,,,
,,,,,,,,,,,1,2024-06-28_13h36.55.568,DCT_v1_online,2021.2.3,Win32,60.04563468,,,,,,,,,,,,,,,,,,,,,,,,,,,,,,,,,,,,,,,,,,space,36.0167,0,2,2,2,1,Instructions/i6.png,test,conditions/block1.xlsx,1.2,0.5
,,,,,,,,,,,1,2024-06-28_13h36.55.568,DCT_v1_online,2021.2.3,Win32,60.04563468,space,0.8086,0.012,2.338,273,down,1,0.8056,left,1,0.9023,2.488,0,0,0,20,1,21,congruent,up,down,incongruent,Stim/Acon.png,down,0,0.1,180,2,100,congruent,right,left,incongruent,Stim/Acon.png,left,0.1,0,90,3,2000,stimuli\\,,,,,,,,,,,,
,,,,,,,,,,,1,2024-06-28_13h36.55.568,DCT_v1_online,2021.2.3,Win32,60.04563468,,,0.445,2.805,274,up,1,0.5424,right,1,0.6593,2.055,0,1,1,47,1,48,congruent,down,up,incongruent,Stim/Acon.png,up,0,-0.1,0,3,1000,incongruent,right,right,congruent,Stim/Aincon.png,right,0.1,0,-90,8,2000,stimuli\\,,,,,,,,,,,,
,,,,,,,,,,,1,2024-06-28_13h36.55.568,DCT_v1_online,2021.2.3,Win32,60.04563468,,,0.305,2.945,275,up,1,0.6566,right,1,0.6082,2.195,0,2,2,111,1,112,incongruent,down,up,incongruent,Stim/Aincon.png,up,0,-0.1,0,7,1000,incongruent,right,right,congruent,Stim/Aincon.png,right,0.1,0,-90,8,2000,stimuli\\,,,,,,,,,,,,
,,,,,,,,,,,1,2024-06-28_13h36.55.568,DCT_v1_online,2021.2.3,Win32,60.04563468,,,0.131,3.119,276,up,1,0.5281,left,1,0.5003,2.369,0,3,3,33,1,34,congruent,down,up,incongruent,Stim/Acon.png,up,0,-0.1,0,3,1000,congruent,left,left,congruent,Stim/Acon.png,left,-0.1,0,90,1,2000,stimuli\\,,,,,,,,,,,,
,,,,,,,,,,,1,2024-06-28_13h36.55.568,DCT_v1_online,2021.2.3,Win32,60.04563468,,,0.396,1.954,277,down,1,0.6746,left,1,0.8041,2.104,0,4,4,52,1,53,congruent,down,down,congruent,Stim/Acon.png,down,0,-0.1,180,4,100,congruent,right,left,incongruent,Stim/Acon.png,left,0.1,0,90,3,2000,stimuli\\,,,,,,,,,,,,
,,,,,,,,,,,1,2024-06-28_13h36.55.568,DCT_v1_online,2021.2.3,Win32,60.04563468,,,0.088,3.162,278,down,1,0.5273,left,1,0.586,2.412,0,5,5,29,1,30,congruent,up,down,incongruent,Stim/Acon.png,down,0,0.1,180,2,1000,incongruent,right,left,incongruent,Stim/Aincon.png,left,0.1,0,90,7,2000,stimuli\\,,,,,,,,,,,,
,,,,,,,,,,,1,2024-06-28_13h36.55.568,DCT_v1_online,2021.2.3,Win32,60.04563468,,,0.203,2.147,279,down,1,0.6265,left,1,0.8151,2.297,0,6,6,24,1,25,congruent,up,down,incongruent,Stim/Acon.png,down,0,0.1,180,2,100,incongruent,left,left,congruent,Stim/Aincon.png,left,-0.1,0,90,5,2000,stimuli\\,,,,,,,,,,,,
,,,,,,,,,,,1,2024-06-28_13h36.55.568,DCT_v1_online,2021.2.3,Win32,60.04563468,,,0.173,3.077,280,down,1,0.6162,right,1,0.5651,2.327,0,7,7,83,1,84,incongruent,up,down,incongruent,Stim/Aincon.png,down,0,0.1,180,6,1000,congruent,left,right,incongruent,Stim/Acon.png,right,-0.1,0,-90,2,2000,stimuli\\,,,,,,,,,,,,
,,,,,,,,,,,1,2024-06-28_13h36.55.568,DCT_v1_online,2021.2.3,Win32,60.04563468,,,0.474,1.876,281,up,1,0.5942,right,1,0.7208,2.026,0,8,8,38,1,39,congruent,down,up,incongruent,Stim/Acon.png,up,0,-0.1,0,3,100,congruent,right,right,congruent,Stim/Acon.png,right,0.1,0,-90,4,2000,stimuli\\,,,,,,,,,,,,
,,,,,,,,,,,1,2024-06-28_13h36.55.568,DCT_v1_online,2021.2.3,Win32,60.04563468,,,0.055,3.195,282,up,1,0.5217,right,1,0.6432,2.445,0,9,9,11,1,12,congruent,up,up,congruent,Stim/Acon.png,up,0,0.1,0,1,1000,incongruent,left,right,incongruent,Stim/Aincon.png,right,-0.1,0,-90,6,2000,stimuli\\,,,,,,,,,,,,
,,,,,,,,,,,1,2024-06-28_13h36.55.568,DCT_v1_online,2021.2.3,Win32,60.04563468,,,0.404,2.846,283,up,1,0.6593,right,1,0.6024,2.096,0,10,10,79,1,80,incongruent,up,up,congruent,Stim/Aincon.png,up,0,0.1,0,5,1000,incongruent,right,right,congruent,Stim/Aincon.png,right,0.1,0,-90,8,2000,stimuli\\,,,,,,,,,,,,
,,,,,,,,,,,1,2024-06-28_13h36.55.568,DCT_v1_online,2021.2.3,Win32,60.04563468,,,0.049,3.201,284,down,1,0.8692,left,1,0.587,2.451,0,11,11,121,1,122,incongruent,down,down,congruent,Stim/Aincon.png,down,0,-0.1,180,8,1000,incongruent,left,left,congruent,Stim/Aincon.png,left,-0.1,0,90,5,2000,stimuli\\,,,,,,,,,,,,
,,,,,,,,,,,1,2024-06-28_13h36.55.568,DCT_v1_online,2021.2.3,Win32,60.04563468,,,0.307,2.043,285,up,1,0.7047,right,1,0.8193,2.193,0,12,12,102,1,103,incongruent,down,up,incongruent,Stim/Aincon.png,up,0,-0.1,0,7,100,congruent,right,right,congruent,Stim/Acon.png,right,0.1,0,-90,4,2000,stimuli\\,,,,,,,,,,,,
,,,,,,,,,,,1,2024-06-28_13h36.55.568,DCT_v1_online,2021.2.3,Win32,60.04563468,,,0.025,2.325,286,down,1,0.6534,left,1,0.8099,2.475,0,13,13,60,1,61,congruent,down,down,congruent,Stim/Acon.png,down,0,-0.1,180,4,100,incongruent,right,left,incongruent,Stim/Aincon.png,left,0.1,0,90,7,2000,stimuli\\,,,,,,,,,,,,
,,,,,,,,,,,1,2024-06-28_13h36.55.568,DCT_v1_online,2021.2.3,Win32,60.04563468,,,0.134,2.216,287,down,1,0.799,left,1,0.9161,2.366,0,14,14,124,1,125,incongruent,down,down,congruent,Stim/Aincon.png,down,0,-0.1,180,8,100,incongruent,right,left,incongruent,Stim/Aincon.png,left,0.1,0,90,7,2000,stimuli\\,,,,,,,,,,,,
,,,,,,,,,,,1,2024-06-28_13h36.55.568,DCT_v1_online,2021.2.3,Win32,60.04563468,,,0.217,2.133,288,up,1,0.7276,left,1,0.8203,2.283,0,15,15,96,1,97,incongruent,down,up,incongruent,Stim/Aincon.png,up,0,-0.1,0,7,100,congruent,left,left,congruent,Stim/Acon.png,left,-0.1,0,90,1,2000,stimuli\\,,,,,,,,,,,,
,,,,,,,,,,,1,2024-06-28_13h36.55.568,DCT_v1_online,2021.2.3,Win32,60.04563468,,,0.448,2.802,289,down,1,0.583,left,1,0.6625,2.052,0,16,16,61,1,62,congruent,down,down,congruent,Stim/Acon.png,down,0,-0.1,180,4,1000,incongruent,right,left,incongruent,Stim/Aincon.png,left,0.1,0,90,7,2000,stimuli\\,,,,,,,,,,,,
,,,,,,,,,,,1,2024-06-28_13h36.55.568,DCT_v1_online,2021.2.3,Win32,60.04563468,,,0.147,3.103,290,down,1,0.5236,left,1,0.4934,2.353,0,17,17,81,1,82,incongruent,up,down,incongruent,Stim/Aincon.png,down,0,0.1,180,6,1000,congruent,left,left,congruent,Stim/Acon.png,left,-0.1,0,90,1,2000,stimuli\\,,,,,,,,,,,,
,,,,,,,,,,,1,2024-06-28_13h36.55.568,DCT_v1_online,2021.2.3,Win32,60.04563468,,,0.348,2.902,291,up,1,0.5353,left,1,0.5937,2.152,0,18,18,41,1,42,congruent,down,up,incongruent,Stim/Acon.png,up,0,-0.1,0,3,1000,incongruent,left,left,congruent,Stim/Aincon.png,left,-0.1,0,90,5,2000,stimuli\\,,,,,,,,,,,,
,,,,,,,,,,,1,2024-06-28_13h36.55.568,DCT_v1_online,2021.2.3,Win32,60.04563468,,,0.136,3.114,292,up,1,0.6347,left,1,0.5837,2.364,0,19,19,69,1,70,incongruent,up,up,congruent,Stim/Aincon.png,up,0,0.1,0,5,1000,congruent,right,left,incongruent,Stim/Acon.png,left,0.1,0,90,3,2000,stimuli\\,,,,,,,,,,,,
,,,,,,,,,,,1,2024-06-28_13h36.55.568,DCT_v1_online,2021.2.3,Win32,60.04563468,,,0.44,1.91,293,down,1,0.6349,right,1,0.7861,2.06,0,20,20,26,1,27,congruent,up,down,incongruent,Stim/Acon.png,down,0,0.1,180,2,100,incongruent,left,right,incongruent,Stim/Aincon.png,right,-0.1,0,-90,6,2000,stimuli\\,,,,,,,,,,,,
,,,,,,,,,,,1,2024-06-28_13h36.55.568,DCT_v1_online,2021.2.3,Win32,60.04563468,,,0.161,2.189,294,up,1,0.6691,right,1,0.7741,2.339,0,21,21,6,1,7,congruent,up,up,congruent,Stim/Acon.png,up,0,0.1,0,1,100,congruent,right,right,congruent,Stim/Acon.png,right,0.1,0,-90,4,2000,stimuli\\,,,,,,,,,,,,
,,,,,,,,,,,1,2024-06-28_13h36.55.568,DCT_v1_online,2021.2.3,Win32,60.04563468,,,0.391,1.959,295,up,1,0.7688,left,1,0.8209,2.109,0,22,22,64,1,65,incongruent,up,up,congruent,Stim/Aincon.png,up,0,0.1,0,5,100,congruent,left,left,congruent,Stim/Acon.png,left,-0.1,0,90,1,2000,stimuli\\,,,,,,,,,,,,
,,,,,,,,,,,1,2024-06-28_13h36.55.568,DCT_v1_online,2021.2.3,Win32,60.04563468,,,0.032,3.218,296,down,1,0.6056,right,1,0.599,2.468,0,23,23,95,1,96,incongruent,up,down,incongruent,Stim/Aincon.png,down,0,0.1,180,6,1000,incongruent,right,right,congruent,Stim/Aincon.png,right,0.1,0,-90,8,2000,stimuli\\,,,,,,,,,,,,
,,,,,,,,,,,1,2024-06-28_13h36.55.568,DCT_v1_online,2021.2.3,Win32,60.04563468,,,0.433,1.917,297,down,1,0.7837,left,1,0.9584,2.067,0,24,24,88,1,89,incongruent,up,down,incongruent,Stim/Aincon.png,down,0,0.1,180,6,100,incongruent,left,left,congruent,Stim/Aincon.png,left,-0.1,0,90,5,2000,stimuli\\,,,,,,,,,,,,
,,,,,,,,,,,1,2024-06-28_13h36.55.568,DCT_v1_online,2021.2.3,Win32,60.04563468,,,0.408,2.842,298,down,1,0.4777,right,1,0.5735,2.092,0,25,25,19,1,20,congruent,up,down,incongruent,Stim/Acon.png,down,0,0.1,180,2,1000,congruent,left,right,incongruent,Stim/Acon.png,right,-0.1,0,-90,2,2000,stimuli\\,,,,,,,,,,,,
,,,,,,,,,,,1,2024-06-28_13h36.55.568,DCT_v1_online,2021.2.3,Win32,60.04563468,,,0.149,2.201,299,up,1,0.6899,left,1,0.7789,2.351,0,26,26,32,1,33,congruent,down,up,incongruent,Stim/Acon.png,up,0,-0.1,0,3,100,congruent,left,left,congruent,Stim/Acon.png,left,-0.1,0,90,1,2000,stimuli\\,,,,,,,,,,,,
,,,,,,,,,,,1,2024-06-28_13h36.55.568,DCT_v1_online,2021.2.3,Win32,60.04563468,,,0.023,2.327,300,up,1,0.5277,right,1,0.7265,2.477,0,27,27,10,1,11,congruent,up,up,congruent,Stim/Acon.png,up,0,0.1,0,1,100,incongruent,left,right,incongruent,Stim/Aincon.png,right,-0.1,0,-90,6,2000,stimuli\\,,,,,,,,,,,,
,,,,,,,,,,,1,2024-06-28_13h36.55.568,DCT_v1_online,2021.2.3,Win32,60.04563468,,,0.471,2.779,301,up,1,0.5699,left,1,0.6382,2.029,0,28,28,45,1,46,congruent,down,up,incongruent,Stim/Acon.png,up,0,-0.1,0,3,1000,incongruent,right,left,incongruent,Stim/Aincon.png,left,0.1,0,90,7,2000,stimuli\\,,,,,,,,,,,,
,,,,,,,,,,,1,2024-06-28_13h36.55.568,DCT_v1_online,2021.2.3,Win32,60.04563468,,,0.452,2.798,302,up,1,0.5681,left,1,0.5558,2.048,0,29,29,37,1,38,congruent,down,up,incongruent,Stim/Acon.png,up,0,-0.1,0,3,1000,congruent,right,left,incongruent,Stim/Acon.png,left,0.1,0,90,3,2000,stimuli\\,,,,,,,,,,,,
,,,,,,,,,,,1,2024-06-28_13h36.55.568,DCT_v1_online,2021.2.3,Win32,60.04563468,,,0.345,2.005,303,down,1,0.767,left,1,0.8978,2.155,0,30,30,112,1,113,incongruent,down,down,congruent,Stim/Aincon.png,down,0,-0.1,180,8,100,congruent,left,left,congruent,Stim/Acon.png,left,-0.1,0,90,1,2000,stimuli\\,,,,,,,,,,,,
,,,,,,,,,,,1,2024-06-28_13h36.55.568,DCT_v1_online,2021.2.3,Win32,60.04563468,,,0.377,1.973,304,up,1,0.6549,right,1,0.7063,2.123,0,31,31,34,1,35,congruent,down,up,incongruent,Stim/Acon.png,up,0,-0.1,0,3,100,congruent,left,right,incongruent,Stim/Acon.png,right,-0.1,0,-90,2,2000,stimuli\\,,,,,,,,,,,,
,,,,,,,,,,,1,2024-06-28_13h36.55.568,DCT_v1_online,2021.2.3,Win32,60.04563468,,,0.14,2.21,305,up,1,0.5255,right,1,0.7416,2.36,0,32,32,14,1,15,congruent,up,up,congruent,Stim/Acon.png,up,0,0.1,0,1,100,incongruent,right,right,congruent,Stim/Aincon.png,right,0.1,0,-90,8,2000,stimuli\\,,,,,,,,,,,,
,,,,,,,,,,,1,2024-06-28_13h36.55.568,DCT_v1_online,2021.2.3,Win32,60.04563468,,,0.315,2.035,306,up,1,0.8696,left,1,0.9418,2.185,0,33,33,100,1,101,incongruent,down,up,incongruent,Stim/Aincon.png,up,0,-0.1,0,7,100,congruent,right,left,incongruent,Stim/Acon.png,left,0.1,0,90,3,2000,stimuli\\,,,,,,,,,,,,
,,,,,,,,,,,1,2024-06-28_13h36.55.568,DCT_v1_online,2021.2.3,Win32,60.04563468,,,0.409,1.941,307,down,1,0.7022,right,1,0.8109,2.091,0,34,34,118,1,119,incongruent,down,down,congruent,Stim/Aincon.png,down,0,-0.1,180,8,100,congruent,right,right,congruent,Stim/Acon.png,right,0.1,0,-90,4,2000,stimuli\\,,,,,,,,,,,,
,,,,,,,,,,,1,2024-06-28_13h36.55.568,DCT_v1_online,2021.2.3,Win32,60.04563468,,,0.291,2.959,308,up,1,0.5644,right,1,0.6636,2.209,0,35,35,75,1,76,incongruent,up,up,congruent,Stim/Aincon.png,up,0,0.1,0,5,1000,incongruent,left,right,incongruent,Stim/Aincon.png,right,-0.1,0,-90,6,2000,stimuli\\,,,,,,,,,,,,
,,,,,,,,,,,1,2024-06-28_13h36.55.568,DCT_v1_online,2021.2.3,Win32,60.04563468,,,0.075,3.175,309,down,1,0.5923,right,1,0.5203,2.425,0,36,36,55,1,56,congruent,down,down,congruent,Stim/Acon.png,down,0,-0.1,180,4,1000,congruent,right,right,congruent,Stim/Acon.png,right,0.1,0,-90,4,2000,stimuli\\,,,,,,,,,,,,
,,,,,,,,,,,1,2024-06-28_13h36.55.568,DCT_v1_online,2021.2.3,Win32,60.04563468,,,0,2.35,310,down,1,0.7681,right,1,0.878,2.5,0,37,37,114,1,115,incongruent,down,down,congruent,Stim/Aincon.png,down,0,-0.1,180,8,100,congruent,left,right,incongruent,Stim/Acon.png,right,-0.1,0,-90,2,2000,stimuli\\,,,,,,,,,,,,
,,,,,,,,,,,1,2024-06-28_13h36.55.568,DCT_v1_online,2021.2.3,Win32,60.04563468,,,0.281,2.969,311,down,1,0.5053,left,1,0.601,2.219,0,38,38,21,1,22,congruent,up,down,incongruent,Stim/Acon.png,down,0,0.1,180,2,1000,congruent,right,left,incongruent,Stim/Acon.png,left,0.1,0,90,3,2000,stimuli\\,,,,,,,,,,,,
,,,,,,,,,,,1,2024-06-28_13h36.55.568,DCT_v1_online,2021.2.3,Win32,60.04563468,,,0.197,2.153,312,up,1,0.5356,right,1,0.6271,2.303,0,39,39,70,1,71,incongruent,up,up,congruent,Stim/Aincon.png,up,0,0.1,0,5,100,congruent,right,right,congruent,Stim/Acon.png,right,0.1,0,-90,4,2000,stimuli\\,,,,,,,,,,,,
,,,,,,,,,,,1,2024-06-28_13h36.55.568,DCT_v1_online,2021.2.3,Win32,60.04563468,,,0.333,2.017,313,down,1,0.5265,right,1,0.6365,2.167,0,40,40,86,1,87,incongruent,up,down,incongruent,Stim/Aincon.png,down,0,0.1,180,6,100,congruent,right,right,congruent,Stim/Acon.png,right,0.1,0,-90,4,2000,stimuli\\,,,,,,,,,,,,
,,,,,,,,,,,1,2024-06-28_13h36.55.568,DCT_v1_online,2021.2.3,Win32,60.04563468,,,0.372,2.878,314,down,1,0.5401,right,1,0.4434,2.128,0,41,41,23,1,24,congruent,up,down,incongruent,Stim/Acon.png,down,0,0.1,180,2,1000,congruent,right,right,congruent,Stim/Acon.png,right,0.1,0,-90,4,2000,stimuli\\,,,,,,,,,,,,
,,,,,,,,,,,1,2024-06-28_13h36.55.568,DCT_v1_online,2021.2.3,Win32,60.04563468,,,0.208,3.042,315,up,1,0.5677,right,1,0.4433,2.292,0,42,42,71,1,72,incongruent,up,up,congruent,Stim/Aincon.png,up,0,0.1,0,5,1000,congruent,right,right,congruent,Stim/Acon.png,right,0.1,0,-90,4,2000,stimuli\\,,,,,,,,,,,,
,,,,,,,,,,,1,2024-06-28_13h36.55.568,DCT_v1_online,2021.2.3,Win32,60.04563468,,,0.37,1.98,316,down,1,0.7319,left,1,1.1875,2.13,0,43,43,56,1,57,congruent,down,down,congruent,Stim/Acon.png,down,0,-0.1,180,4,100,incongruent,left,left,congruent,Stim/Aincon.png,left,-0.1,0,90,5,2000,stimuli\\,,,,,,,,,,,,
,,,,,,,,,,,1,2024-06-28_13h36.55.568,DCT_v1_online,2021.2.3,Win32,60.04563468,,,0.001,2.349,317,down,1,0.6351,left,1,0.6856,2.499,0,44,44,16,1,17,congruent,up,down,incongruent,Stim/Acon.png,down,0,0.1,180,2,100,congruent,left,left,congruent,Stim/Acon.png,left,-0.1,0,90,1,2000,stimuli\\,,,,,,,,,,,,
,,,,,,,,,,,1,2024-06-28_13h36.55.568,DCT_v1_online,2021.2.3,Win32,60.04563468,,,0.405,2.845,318,down,1,0.5769,right,1,0.6072,2.095,0,45,45,63,1,64,congruent,down,down,congruent,Stim/Acon.png,down,0,-0.1,180,4,1000,incongruent,right,right,congruent,Stim/Aincon.png,right,0.1,0,-90,8,2000,stimuli\\,,,,,,,,,,,,
,,,,,,,,,,,1,2024-06-28_13h36.55.568,DCT_v1_online,2021.2.3,Win32,60.04563468,,,0.379,2.871,319,up,1,0.4834,right,1,0.5336,2.121,0,46,46,3,1,4,congruent,up,up,congruent,Stim/Acon.png,up,0,0.1,0,1,1000,congruent,left,right,incongruent,Stim/Acon.png,right,-0.1,0,-90,2,2000,stimuli\\,,,,,,,,,,,,
,,,,,,,,,,,1,2024-06-28_13h36.55.568,DCT_v1_online,2021.2.3,Win32,60.04563468,,,0.248,3.002,320,down,1,0.7339,right,1,0.5936,2.252,0,47,47,127,1,128,incongruent,down,down,congruent,Stim/Aincon.png,down,0,-0.1,180,8,1000,incongruent,right,right,congruent,Stim/Aincon.png,right,0.1,0,-90,8,2000,stimuli\\,,,,,,,,,,,,
,,,,,,,,,,,1,2024-06-28_13h36.55.568,DCT_v1_online,2021.2.3,Win32,60.04563468,,,0.345,2.905,321,up,1,0.5002,right,1,0.6182,2.155,0,48,48,15,1,16,congruent,up,up,congruent,Stim/Acon.png,up,0,0.1,0,1,1000,incongruent,right,right,congruent,Stim/Aincon.png,right,0.1,0,-90,8,2000,stimuli\\,,,,,,,,,,,,
,,,,,,,,,,,1,2024-06-28_13h36.55.568,DCT_v1_online,2021.2.3,Win32,60.04563468,,,0.264,2.986,322,down,1,0.6337,right,1,0.4632,2.236,0,49,49,115,1,116,incongruent,down,down,congruent,Stim/Aincon.png,down,0,-0.1,180,8,1000,congruent,left,right,incongruent,Stim/Acon.png,right,-0.1,0,-90,2,2000,stimuli\\,,,,,,,,,,,,
,,,,,,,,,,,1,2024-06-28_13h36.55.568,DCT_v1_online,2021.2.3,Win32,60.04563468,,,0.271,2.979,323,up,1,0.4528,left,1,0.5706,2.229,0,50,50,5,1,6,congruent,up,up,congruent,Stim/Acon.png,up,0,0.1,0,1,1000,congruent,right,left,incongruent,Stim/Acon.png,left,0.1,0,90,3,2000,stimuli\\,,,,,,,,,,,,
