﻿key_resp.keys,key_resp.rt,trials_2.thisRepN,trials_2.thisTrialN,trials_2.thisN,trials_2.thisIndex,trials_2.ran,stim_ins,size_insrx,size_insry,name,session,date,expName,psychopyVersion,OS,frameRate,key_resp_2.keys,key_resp_2.rt,注视点1,试次呈现时间+注视点2,count,key_resp_T1.keys,key_resp_T1.corr,key_resp_T1.rt,key_resp_T2.keys,key_resp_T2.corr,key_resp_T2.rt,注视点2,trials.thisRepN,trials.thisTrialN,trials.thisN,trials.thisIndex,trials.ran,TrialNumber,FlankerConditionT1,LocationT1,DirectionT1,LocationConditionT1,ImageT1,CorrectAnswerT1,PositionT1x,PositionT1y,anglefilpT1,ConditionT1,IntervalT1toT2,FlankerConditionT2,LocationT2,DirectionT2,LocationConditionT2,ImageT2,CorrectAnswerT2,PositionT2x,PositionT2y,anglefilpT2,ConditionT2,DurationFixation,TargetFilePath,key_resp_3.keys,key_resp_3.rt,trials_3.thisRepN,trials_3.thisTrialN,trials_3.thisN,trials_3.thisIndex,trials_3.ran,instr_p_t,block_type,cond,size_p_tx,size_p_ty
space,8.679,0,0,0,0,1,Instructions/i1.png,1,0.4,zjr,1,2024-06-28_19h44.06.846,DCT_v1_online,2021.2.3,Win32,59.88023952,,,,,,,,,,,,,,,,,,,,,,,,,,,,,,,,,,,,,,,,,,,,,,,,,,,,,
space,6.1571,0,1,1,1,1,Instructions/i2.png,1.4,0.85,zjr,1,2024-06-28_19h44.06.846,DCT_v1_online,2021.2.3,Win32,59.88023952,,,,,,,,,,,,,,,,,,,,,,,,,,,,,,,,,,,,,,,,,,,,,,,,,,,,,
space,7.8722,0,2,2,2,1,Instructions/i3.png,1.2,0.85,zjr,1,2024-06-28_19h44.06.846,DCT_v1_online,2021.2.3,Win32,59.88023952,,,,,,,,,,,,,,,,,,,,,,,,,,,,,,,,,,,,,,,,,,,,,,,,,,,,,
,,,,,,,,,,zjr,1,2024-06-28_19h44.06.846,DCT_v1_online,2021.2.3,Win32,59.88023952,space,4.713,0.249,2.101,1,up,1,1.0491,right,1,1.1831,2.251,0,0,0,8,1,65,incongruent,up,up,congruent,Stim/Aincon.png,up,0,0.1,0,5,100,congruent,left,right,congruent,Stim/Acon.png,right,-0.1,0,-90,1,2000,stimuli\\,,,,,,,,,,,,
,,,,,,,,,,zjr,1,2024-06-28_19h44.06.846,DCT_v1_online,2021.2.3,Win32,59.88023952,,,0.013,2.337,2,up,1,0.9162,right,1,1.0664,2.487,0,1,1,0,1,1,congruent,up,up,congruent,Stim/Acon.png,up,0,0.1,0,1,100,congruent,left,right,congruent,Stim/Acon.png,right,-0.1,0,-90,1,2000,stimuli\\,,,,,,,,,,,,
,,,,,,,,,,zjr,1,2024-06-28_19h44.06.846,DCT_v1_online,2021.2.3,Win32,59.88023952,,,0.434,1.916,3,down,1,0.8007,right,1,0.9362,2.066,0,2,2,2,1,17,congruent,up,down,incongruent,Stim/Acon.png,down,0,0.1,180,2,100,congruent,left,right,congruent,Stim/Acon.png,right,-0.1,0,-90,1,2000,stimuli\\,,,,,,,,,,,,
,,,,,,,,,,zjr,1,2024-06-28_19h44.06.846,DCT_v1_online,2021.2.3,Win32,59.88023952,,,0.367,2.883,4,down,1,0.7854,right,1,0.6495,2.133,0,3,3,11,1,82,incongruent,up,down,incongruent,Stim/Aincon.png,down,0,0.1,180,6,1000,congruent,left,right,congruent,Stim/Acon.png,right,-0.1,0,-90,1,2000,stimuli\\,,,,,,,,,,,,
,,,,,,,,,,zjr,1,2024-06-28_19h44.06.846,DCT_v1_online,2021.2.3,Win32,59.88023952,,,0.363,2.887,5,up,1,0.9122,left,1,0.8996,2.137,0,4,4,13,1,112,incongruent,down,up,incongruent,Stim/Aincon.png,up,0,-0.1,0,7,1000,incongruent,right,left,congruent,Stim/Aincon.png,left,0.1,0,90,8,2000,stimuli\\,,,,,,,,,,,,
,,,,,,,,,,zjr,1,2024-06-28_19h44.06.846,DCT_v1_online,2021.2.3,Win32,59.88023952,,,0.289,2.961,6,up,1,0.5484,right,1,0.5327,2.211,0,5,5,1,1,2,congruent,up,up,congruent,Stim/Acon.png,up,0,0.1,0,1,1000,congruent,left,right,congruent,Stim/Acon.png,right,-0.1,0,-90,1,2000,stimuli\\,,,,,,,,,,,,
,,,,,,,,,,zjr,1,2024-06-28_19h44.06.846,DCT_v1_online,2021.2.3,Win32,59.88023952,,,0.216,3.034,7,down,1,0.7794,right,1,0.817,2.284,0,6,6,15,1,114,incongruent,down,down,congruent,Stim/Aincon.png,down,0,-0.1,180,8,1000,incongruent,left,right,congruent,Stim/Aincon.png,right,-0.1,0,-90,1,2000,stimuli\\,,,,,,,,,,,,
,,,,,,,,,,zjr,1,2024-06-28_19h44.06.846,DCT_v1_online,2021.2.3,Win32,59.88023952,,,0.497,1.853,8,down,1,0.9036,right,1,1.062,2.003,0,7,7,14,1,113,incongruent,down,down,congruent,Stim/Aincon.png,down,0,-0.1,180,8,100,incongruent,left,right,congruent,Stim/Aincon.png,right,-0.1,0,-90,1,2000,stimuli\\,,,,,,,,,,,,
,,,,,,,,,,zjr,1,2024-06-28_19h44.06.846,DCT_v1_online,2021.2.3,Win32,59.88023952,,,0.284,2.966,9,down,1,0.6332,left,1,0.6667,2.216,0,8,8,7,1,50,congruent,down,down,congruent,Stim/Acon.png,down,0,-0.1,180,4,1000,incongruent,left,left,congruent,Stim/Aincon.png,left,-0.1,0,90,1,2000,stimuli\\,,,,,,,,,,,,
,,,,,,,,,,zjr,1,2024-06-28_19h44.06.846,DCT_v1_online,2021.2.3,Win32,59.88023952,,,0.407,1.943,10,up,1,0.8862,left,1,1.045,2.093,0,9,9,4,1,33,congruent,down,up,incongruent,Stim/Acon.png,up,0,-0.1,0,3,100,incongruent,left,left,congruent,Stim/Aincon.png,left,-0.1,0,90,1,2000,stimuli\\,,,,,,,,,,,,
,,,,,,,,,,zjr,1,2024-06-28_19h44.06.846,DCT_v1_online,2021.2.3,Win32,59.88023952,,,0.347,2.003,11,down,1,0.6481,right,1,0.7995,2.153,0,10,10,10,1,81,incongruent,up,down,incongruent,Stim/Aincon.png,down,0,0.1,180,6,100,congruent,left,right,congruent,Stim/Acon.png,right,-0.1,0,-90,1,2000,stimuli\\,,,,,,,,,,,,
,,,,,,,,,,zjr,1,2024-06-28_19h44.06.846,DCT_v1_online,2021.2.3,Win32,59.88023952,,,0.108,3.142,12,up,1,0.7489,left,1,0.7503,2.392,0,11,11,5,1,34,congruent,down,up,incongruent,Stim/Acon.png,up,0,-0.1,0,3,1000,incongruent,left,left,congruent,Stim/Aincon.png,left,-0.1,0,90,1,2000,stimuli\\,,,,,,,,,,,,
,,,,,,,,,,zjr,1,2024-06-28_19h44.06.846,DCT_v1_online,2021.2.3,Win32,59.88023952,,,0.186,2.164,13,up,1,1.0813,left,1,1.1499,2.314,0,12,12,12,1,111,incongruent,down,up,incongruent,Stim/Aincon.png,up,0,-0.1,0,7,100,incongruent,right,left,congruent,Stim/Aincon.png,left,0.1,0,90,8,2000,stimuli\\,,,,,,,,,,,,
,,,,,,,,,,zjr,1,2024-06-28_19h44.06.846,DCT_v1_online,2021.2.3,Win32,59.88023952,,,0.101,2.249,14,up,0,0.8447,left,1,1.0277,2.399,0,13,13,6,1,49,congruent,down,down,congruent,Stim/Acon.png,down,0,-0.1,180,4,100,incongruent,left,left,congruent,Stim/Aincon.png,left,-0.1,0,90,1,2000,stimuli\\,,,,,,,,,,,,
,,,,,,,,,,zjr,1,2024-06-28_19h44.06.846,DCT_v1_online,2021.2.3,Win32,59.88023952,,,0.278,2.972,15,up,0,0.6694,right,1,0.5525,2.222,0,14,14,3,1,18,congruent,up,down,incongruent,Stim/Acon.png,down,0,0.1,180,2,1000,congruent,left,right,congruent,Stim/Acon.png,right,-0.1,0,-90,1,2000,stimuli\\,,,,,,,,,,,,
,,,,,,,,,,zjr,1,2024-06-28_19h44.06.846,DCT_v1_online,2021.2.3,Win32,59.88023952,,,0.289,2.961,16,up,1,1.0474,right,1,0.6011,2.211,0,15,15,9,1,66,incongruent,up,up,congruent,Stim/Aincon.png,up,0,0.1,0,5,1000,congruent,left,right,congruent,Stim/Acon.png,right,-0.1,0,-90,1,2000,stimuli\\,,,,,,,,,,,,
,,,,,,,,,,zjr,1,2024-06-28_19h44.06.846,DCT_v1_online,2021.2.3,Win32,59.88023952,,,,,,,,,,,,,,,,,,,,,,,,,,,,,,,,,,,,,,,,,,space,20.4786,0,0,0,0,1,Instructions/i4.png,pra,conditions/blockpra.xlsx,0.8,0.45
,,,,,,,,,,zjr,1,2024-06-28_19h44.06.846,DCT_v1_online,2021.2.3,Win32,59.88023952,space,13.6568,0.026,2.324,17,up,1,1.0055,right,1,1.1649,2.474,0,0,0,66,1,67,incongruent,up,up,congruent,Stim/Aincon.png,up,0,0.1,0,5,100,congruent,left,right,incongruent,Stim/Acon.png,right,-0.1,0,-90,2,2000,stimuli\\,,,,,,,,,,,,
,,,,,,,,,,zjr,1,2024-06-28_19h44.06.846,DCT_v1_online,2021.2.3,Win32,59.88023952,,,0.275,2.075,18,up,1,0.9042,left,1,1.0058,2.225,0,1,1,108,1,109,incongruent,down,up,incongruent,Stim/Aincon.png,up,0,-0.1,0,7,100,incongruent,right,left,incongruent,Stim/Aincon.png,left,0.1,0,90,7,2000,stimuli\\,,,,,,,,,,,,
,,,,,,,,,,zjr,1,2024-06-28_19h44.06.846,DCT_v1_online,2021.2.3,Win32,59.88023952,,,0.435,1.915,19,up,1,0.6231,right,1,0.769,2.065,0,2,2,6,1,7,congruent,up,up,congruent,Stim/Acon.png,up,0,0.1,0,1,100,congruent,right,right,congruent,Stim/Acon.png,right,0.1,0,-90,4,2000,stimuli\\,,,,,,,,,,,,
,,,,,,,,,,zjr,1,2024-06-28_19h44.06.846,DCT_v1_online,2021.2.3,Win32,59.88023952,,,0.384,1.966,20,down,1,0.8546,right,1,0.9474,2.116,0,3,3,114,1,115,incongruent,down,down,congruent,Stim/Aincon.png,down,0,-0.1,180,8,100,congruent,left,right,incongruent,Stim/Acon.png,right,-0.1,0,-90,2,2000,stimuli\\,,,,,,,,,,,,
,,,,,,,,,,zjr,1,2024-06-28_19h44.06.846,DCT_v1_online,2021.2.3,Win32,59.88023952,,,0.418,2.832,21,down,1,0.7716,left,1,0.6158,2.082,0,4,4,53,1,54,congruent,down,down,congruent,Stim/Acon.png,down,0,-0.1,180,4,1000,congruent,right,left,incongruent,Stim/Acon.png,left,0.1,0,90,3,2000,stimuli\\,,,,,,,,,,,,
,,,,,,,,,,zjr,1,2024-06-28_19h44.06.846,DCT_v1_online,2021.2.3,Win32,59.88023952,,,0.354,1.996,22,down,1,0.669,left,1,0.7831,2.146,0,5,5,28,1,29,congruent,up,down,incongruent,Stim/Acon.png,down,0,0.1,180,2,100,incongruent,right,left,incongruent,Stim/Aincon.png,left,0.1,0,90,7,2000,stimuli\\,,,,,,,,,,,,
,,,,,,,,,,zjr,1,2024-06-28_19h44.06.846,DCT_v1_online,2021.2.3,Win32,59.88023952,,,0.315,2.035,23,down,1,0.8331,right,1,0.9129,2.185,0,6,6,118,1,119,incongruent,down,down,congruent,Stim/Aincon.png,down,0,-0.1,180,8,100,congruent,right,right,congruent,Stim/Acon.png,right,0.1,0,-90,4,2000,stimuli\\,,,,,,,,,,,,
,,,,,,,,,,zjr,1,2024-06-28_19h44.06.846,DCT_v1_online,2021.2.3,Win32,59.88023952,,,0.497,1.853,24,up,1,0.5525,right,1,0.8506,2.003,0,7,7,10,1,11,congruent,up,up,congruent,Stim/Acon.png,up,0,0.1,0,1,100,incongruent,left,right,incongruent,Stim/Aincon.png,right,-0.1,0,-90,6,2000,stimuli\\,,,,,,,,,,,,
,,,,,,,,,,zjr,1,2024-06-28_19h44.06.846,DCT_v1_online,2021.2.3,Win32,59.88023952,,,0.421,1.929,25,up,1,0.7332,left,1,0.7887,2.079,0,8,8,76,1,77,incongruent,up,up,congruent,Stim/Aincon.png,up,0,0.1,0,5,100,incongruent,right,left,incongruent,Stim/Aincon.png,left,0.1,0,90,7,2000,stimuli\\,,,,,,,,,,,,
,,,,,,,,,,zjr,1,2024-06-28_19h44.06.846,DCT_v1_online,2021.2.3,Win32,59.88023952,,,0.172,3.078,26,down,1,0.7837,left,1,0.5198,2.328,0,9,9,113,1,114,incongruent,down,down,congruent,Stim/Aincon.png,down,0,-0.1,180,8,1000,congruent,left,left,congruent,Stim/Acon.png,left,-0.1,0,90,1,2000,stimuli\\,,,,,,,,,,,,
,,,,,,,,,,zjr,1,2024-06-28_19h44.06.846,DCT_v1_online,2021.2.3,Win32,59.88023952,,,0.2,3.05,27,up,1,0.882,right,1,0.5837,2.3,0,10,10,99,1,100,incongruent,down,up,incongruent,Stim/Aincon.png,up,0,-0.1,0,7,1000,congruent,left,right,incongruent,Stim/Acon.png,right,-0.1,0,-90,2,2000,stimuli\\,,,,,,,,,,,,
,,,,,,,,,,zjr,1,2024-06-28_19h44.06.846,DCT_v1_online,2021.2.3,Win32,59.88023952,,,0.188,3.062,28,up,1,0.8557,right,1,0.6824,2.312,0,11,11,75,1,76,incongruent,up,up,congruent,Stim/Aincon.png,up,0,0.1,0,5,1000,incongruent,left,right,incongruent,Stim/Aincon.png,right,-0.1,0,-90,6,2000,stimuli\\,,,,,,,,,,,,
,,,,,,,,,,zjr,1,2024-06-28_19h44.06.846,DCT_v1_online,2021.2.3,Win32,59.88023952,,,0.386,1.964,29,up,1,0.7045,left,1,0.8188,2.114,0,12,12,8,1,9,congruent,up,up,congruent,Stim/Acon.png,up,0,0.1,0,1,100,incongruent,left,left,congruent,Stim/Aincon.png,left,-0.1,0,90,5,2000,stimuli\\,,,,,,,,,,,,
,,,,,,,,,,zjr,1,2024-06-28_19h44.06.846,DCT_v1_online,2021.2.3,Win32,59.88023952,,,0.491,1.859,30,down,1,0.6402,left,1,0.7568,2.009,0,13,13,24,1,25,congruent,up,down,incongruent,Stim/Acon.png,down,0,0.1,180,2,100,incongruent,left,left,congruent,Stim/Aincon.png,left,-0.1,0,90,5,2000,stimuli\\,,,,,,,,,,,,
,,,,,,,,,,zjr,1,2024-06-28_19h44.06.846,DCT_v1_online,2021.2.3,Win32,59.88023952,,,0.04,2.31,31,down,1,0.8338,left,1,0.9082,2.46,0,14,14,48,1,49,congruent,down,down,congruent,Stim/Acon.png,down,0,-0.1,180,4,100,congruent,left,left,congruent,Stim/Acon.png,left,-0.1,0,90,1,2000,stimuli\\,,,,,,,,,,,,
,,,,,,,,,,zjr,1,2024-06-28_19h44.06.846,DCT_v1_online,2021.2.3,Win32,59.88023952,,,0.243,3.007,32,down,1,0.7028,left,1,0.44,2.257,0,15,15,49,1,50,congruent,down,down,congruent,Stim/Acon.png,down,0,-0.1,180,4,1000,congruent,left,left,congruent,Stim/Acon.png,left,-0.1,0,90,1,2000,stimuli\\,,,,,,,,,,,,
,,,,,,,,,,zjr,1,2024-06-28_19h44.06.846,DCT_v1_online,2021.2.3,Win32,59.88023952,,,0.025,2.325,33,up,1,0.8056,right,1,0.917,2.475,0,16,16,70,1,71,incongruent,up,up,congruent,Stim/Aincon.png,up,0,0.1,0,5,100,congruent,right,right,congruent,Stim/Acon.png,right,0.1,0,-90,4,2000,stimuli\\,,,,,,,,,,,,
,,,,,,,,,,zjr,1,2024-06-28_19h44.06.846,DCT_v1_online,2021.2.3,Win32,59.88023952,,,0.233,3.017,34,up,1,0.7227,left,1,0.6597,2.267,0,17,17,41,1,42,congruent,down,up,incongruent,Stim/Acon.png,up,0,-0.1,0,3,1000,incongruent,left,left,congruent,Stim/Aincon.png,left,-0.1,0,90,5,2000,stimuli\\,,,,,,,,,,,,
,,,,,,,,,,zjr,1,2024-06-28_19h44.06.846,DCT_v1_online,2021.2.3,Win32,59.88023952,,,0.219,2.131,35,up,1,0.5806,left,1,0.74,2.281,0,18,18,12,1,13,congruent,up,up,congruent,Stim/Acon.png,up,0,0.1,0,1,100,incongruent,right,left,incongruent,Stim/Aincon.png,left,0.1,0,90,7,2000,stimuli\\,,,,,,,,,,,,
,,,,,,,,,,zjr,1,2024-06-28_19h44.06.846,DCT_v1_online,2021.2.3,Win32,59.88023952,,,0.47,1.88,36,down,1,0.601,right,1,0.7026,2.03,0,19,19,22,1,23,congruent,up,down,incongruent,Stim/Acon.png,down,0,0.1,180,2,100,congruent,right,right,congruent,Stim/Acon.png,right,0.1,0,-90,4,2000,stimuli\\,,,,,,,,,,,,
,,,,,,,,,,zjr,1,2024-06-28_19h44.06.846,DCT_v1_online,2021.2.3,Win32,59.88023952,,,0.365,2.885,37,up,1,0.6302,left,1,0.5572,2.135,0,20,20,37,1,38,congruent,down,up,incongruent,Stim/Acon.png,up,0,-0.1,0,3,1000,congruent,right,left,incongruent,Stim/Acon.png,left,0.1,0,90,3,2000,stimuli\\,,,,,,,,,,,,
,,,,,,,,,,zjr,1,2024-06-28_19h44.06.846,DCT_v1_online,2021.2.3,Win32,59.88023952,,,0.124,3.126,38,up,1,0.6662,left,1,0.6883,2.376,0,21,21,73,1,74,incongruent,up,up,congruent,Stim/Aincon.png,up,0,0.1,0,5,1000,incongruent,left,left,congruent,Stim/Aincon.png,left,-0.1,0,90,5,2000,stimuli\\,,,,,,,,,,,,
,,,,,,,,,,zjr,1,2024-06-28_19h44.06.846,DCT_v1_online,2021.2.3,Win32,59.88023952,,,0.46,1.89,39,down,1,0.6209,right,1,0.8919,2.04,0,22,22,94,1,95,incongruent,up,down,incongruent,Stim/Aincon.png,down,0,0.1,180,6,100,incongruent,right,right,congruent,Stim/Aincon.png,right,0.1,0,-90,8,2000,stimuli\\,,,,,,,,,,,,
,,,,,,,,,,zjr,1,2024-06-28_19h44.06.846,DCT_v1_online,2021.2.3,Win32,59.88023952,,,0.127,3.123,40,down,1,0.5272,right,1,0.5843,2.373,0,23,23,23,1,24,congruent,up,down,incongruent,Stim/Acon.png,down,0,0.1,180,2,1000,congruent,right,right,congruent,Stim/Acon.png,right,0.1,0,-90,4,2000,stimuli\\,,,,,,,,,,,,
,,,,,,,,,,zjr,1,2024-06-28_19h44.06.846,DCT_v1_online,2021.2.3,Win32,59.88023952,,,0.414,1.936,41,down,1,0.7714,right,1,0.9918,2.086,0,24,24,62,1,63,congruent,down,down,congruent,Stim/Acon.png,down,0,-0.1,180,4,100,incongruent,right,right,congruent,Stim/Aincon.png,right,0.1,0,-90,8,2000,stimuli\\,,,,,,,,,,,,
,,,,,,,,,,zjr,1,2024-06-28_19h44.06.846,DCT_v1_online,2021.2.3,Win32,59.88023952,,,0.366,2.884,42,down,1,0.5733,left,1,0.5843,2.134,0,25,25,17,1,18,congruent,up,down,incongruent,Stim/Acon.png,down,0,0.1,180,2,1000,congruent,left,left,congruent,Stim/Acon.png,left,-0.1,0,90,1,2000,stimuli\\,,,,,,,,,,,,
,,,,,,,,,,zjr,1,2024-06-28_19h44.06.846,DCT_v1_online,2021.2.3,Win32,59.88023952,,,0.21,2.14,43,down,1,0.7251,left,1,0.7665,2.29,0,26,26,80,1,81,incongruent,up,down,incongruent,Stim/Aincon.png,down,0,0.1,180,6,100,congruent,left,left,congruent,Stim/Acon.png,left,-0.1,0,90,1,2000,stimuli\\,,,,,,,,,,,,
,,,,,,,,,,zjr,1,2024-06-28_19h44.06.846,DCT_v1_online,2021.2.3,Win32,59.88023952,,,0.228,2.122,44,down,1,0.7496,left,1,0.9081,2.272,0,27,27,56,1,57,congruent,down,down,congruent,Stim/Acon.png,down,0,-0.1,180,4,100,incongruent,left,left,congruent,Stim/Aincon.png,left,-0.1,0,90,5,2000,stimuli\\,,,,,,,,,,,,
,,,,,,,,,,zjr,1,2024-06-28_19h44.06.846,DCT_v1_online,2021.2.3,Win32,59.88023952,,,0.291,2.959,45,down,1,0.5533,right,1,0.755,2.209,0,28,28,95,1,96,incongruent,up,down,incongruent,Stim/Aincon.png,down,0,0.1,180,6,1000,incongruent,right,right,congruent,Stim/Aincon.png,right,0.1,0,-90,8,2000,stimuli\\,,,,,,,,,,,,
,,,,,,,,,,zjr,1,2024-06-28_19h44.06.846,DCT_v1_online,2021.2.3,Win32,59.88023952,,,0.265,2.085,46,down,1,0.6004,right,1,0.7535,2.235,0,29,29,90,1,91,incongruent,up,down,incongruent,Stim/Aincon.png,down,0,0.1,180,6,100,incongruent,left,right,incongruent,Stim/Aincon.png,right,-0.1,0,-90,6,2000,stimuli\\,,,,,,,,,,,,
,,,,,,,,,,zjr,1,2024-06-28_19h44.06.846,DCT_v1_online,2021.2.3,Win32,59.88023952,,,0.37,2.88,47,down,1,0.6795,right,1,0.8198,2.13,0,30,30,31,1,32,congruent,up,down,incongruent,Stim/Acon.png,down,0,0.1,180,2,1000,incongruent,right,right,congruent,Stim/Aincon.png,right,0.1,0,-90,8,2000,stimuli\\,,,,,,,,,,,,
,,,,,,,,,,zjr,1,2024-06-28_19h44.06.846,DCT_v1_online,2021.2.3,Win32,59.88023952,,,0.172,3.078,48,down,1,0.5943,left,1,0.7317,2.328,0,31,31,57,1,58,congruent,down,down,congruent,Stim/Acon.png,down,0,-0.1,180,4,1000,incongruent,left,left,congruent,Stim/Aincon.png,left,-0.1,0,90,5,2000,stimuli\\,,,,,,,,,,,,
,,,,,,,,,,zjr,1,2024-06-28_19h44.06.846,DCT_v1_online,2021.2.3,Win32,59.88023952,,,0.392,1.958,49,up,1,0.821,right,1,0.9009,2.108,0,32,32,74,1,75,incongruent,up,up,congruent,Stim/Aincon.png,up,0,0.1,0,5,100,incongruent,left,right,incongruent,Stim/Aincon.png,right,-0.1,0,-90,6,2000,stimuli\\,,,,,,,,,,,,
,,,,,,,,,,zjr,1,2024-06-28_19h44.06.846,DCT_v1_online,2021.2.3,Win32,59.88023952,,,0.244,3.006,50,up,1,0.7684,left,1,0.7346,2.256,0,33,33,109,1,110,incongruent,down,up,incongruent,Stim/Aincon.png,up,0,-0.1,0,7,1000,incongruent,right,left,incongruent,Stim/Aincon.png,left,0.1,0,90,7,2000,stimuli\\,,,,,,,,,,,,
,,,,,,,,,,zjr,1,2024-06-28_19h44.06.846,DCT_v1_online,2021.2.3,Win32,59.88023952,,,0.376,1.974,51,up,1,0.7402,left,1,0.9233,2.124,0,34,34,44,1,45,congruent,down,up,incongruent,Stim/Acon.png,up,0,-0.1,0,3,100,incongruent,right,left,incongruent,Stim/Aincon.png,left,0.1,0,90,7,2000,stimuli\\,,,,,,,,,,,,
,,,,,,,,,,zjr,1,2024-06-28_19h44.06.846,DCT_v1_online,2021.2.3,Win32,59.88023952,,,0.483,2.767,52,down,1,0.6671,right,1,0.4097,2.017,0,35,35,55,1,56,congruent,down,down,congruent,Stim/Acon.png,down,0,-0.1,180,4,1000,congruent,right,right,congruent,Stim/Acon.png,right,0.1,0,-90,4,2000,stimuli\\,,,,,,,,,,,,
,,,,,,,,,,zjr,1,2024-06-28_19h44.06.846,DCT_v1_online,2021.2.3,Win32,59.88023952,,,0.059,3.191,53,up,1,0.7544,right,1,0.6189,2.441,0,36,36,35,1,36,congruent,down,up,incongruent,Stim/Acon.png,up,0,-0.1,0,3,1000,congruent,left,right,incongruent,Stim/Acon.png,right,-0.1,0,-90,2,2000,stimuli\\,,,,,,,,,,,,
,,,,,,,,,,zjr,1,2024-06-28_19h44.06.846,DCT_v1_online,2021.2.3,Win32,59.88023952,,,0.489,2.761,54,down,1,0.8342,right,1,0.7852,2.011,0,37,37,59,1,60,congruent,down,down,congruent,Stim/Acon.png,down,0,-0.1,180,4,1000,incongruent,left,right,incongruent,Stim/Aincon.png,right,-0.1,0,-90,6,2000,stimuli\\,,,,,,,,,,,,
,,,,,,,,,,zjr,1,2024-06-28_19h44.06.846,DCT_v1_online,2021.2.3,Win32,59.88023952,,,0.093,3.157,55,up,1,0.9914,left,1,0.5705,2.407,0,38,38,101,1,102,incongruent,down,up,incongruent,Stim/Aincon.png,up,0,-0.1,0,7,1000,congruent,right,left,incongruent,Stim/Acon.png,left,0.1,0,90,3,2000,stimuli\\,,,,,,,,,,,,
,,,,,,,,,,zjr,1,2024-06-28_19h44.06.846,DCT_v1_online,2021.2.3,Win32,59.88023952,,,0.3,2.95,56,down,1,0.5736,left,1,0.7419,2.2,0,39,39,29,1,30,congruent,up,down,incongruent,Stim/Acon.png,down,0,0.1,180,2,1000,incongruent,right,left,incongruent,Stim/Aincon.png,left,0.1,0,90,7,2000,stimuli\\,,,,,,,,,,,,
,,,,,,,,,,zjr,1,2024-06-28_19h44.06.846,DCT_v1_online,2021.2.3,Win32,59.88023952,,,0.15,3.1,57,down,1,0.9187,left,1,0.7251,2.35,0,40,40,117,1,118,incongruent,down,down,congruent,Stim/Aincon.png,down,0,-0.1,180,8,1000,congruent,right,left,incongruent,Stim/Acon.png,left,0.1,0,90,3,2000,stimuli\\,,,,,,,,,,,,
,,,,,,,,,,zjr,1,2024-06-28_19h44.06.846,DCT_v1_online,2021.2.3,Win32,59.88023952,,,0.064,2.286,58,down,1,0.6174,right,1,0.6706,2.436,0,41,41,18,1,19,congruent,up,down,incongruent,Stim/Acon.png,down,0,0.1,180,2,100,congruent,left,right,incongruent,Stim/Acon.png,right,-0.1,0,-90,2,2000,stimuli\\,,,,,,,,,,,,
,,,,,,,,,,zjr,1,2024-06-28_19h44.06.846,DCT_v1_online,2021.2.3,Win32,59.88023952,,,0.493,1.857,59,up,1,0.8555,right,1,0.892,2.007,0,42,42,34,1,35,congruent,down,up,incongruent,Stim/Acon.png,up,0,-0.1,0,3,100,congruent,left,right,incongruent,Stim/Acon.png,right,-0.1,0,-90,2,2000,stimuli\\,,,,,,,,,,,,
,,,,,,,,,,zjr,1,2024-06-28_19h44.06.846,DCT_v1_online,2021.2.3,Win32,59.88023952,,,0.138,2.212,60,down,1,0.8147,left,1,0.9842,2.362,0,43,43,112,1,113,incongruent,down,down,congruent,Stim/Aincon.png,down,0,-0.1,180,8,100,congruent,left,left,congruent,Stim/Acon.png,left,-0.1,0,90,1,2000,stimuli\\,,,,,,,,,,,,
,,,,,,,,,,zjr,1,2024-06-28_19h44.06.846,DCT_v1_online,2021.2.3,Win32,59.88023952,,,0.395,2.855,61,up,1,0.468,right,1,0.5677,2.105,0,44,44,7,1,8,congruent,up,up,congruent,Stim/Acon.png,up,0,0.1,0,1,1000,congruent,right,right,congruent,Stim/Acon.png,right,0.1,0,-90,4,2000,stimuli\\,,,,,,,,,,,,
,,,,,,,,,,zjr,1,2024-06-28_19h44.06.846,DCT_v1_online,2021.2.3,Win32,59.88023952,,,0.247,2.103,62,down,1,0.7549,left,1,0.8258,2.253,0,45,45,52,1,53,congruent,down,down,congruent,Stim/Acon.png,down,0,-0.1,180,4,100,congruent,right,left,incongruent,Stim/Acon.png,left,0.1,0,90,3,2000,stimuli\\,,,,,,,,,,,,
,,,,,,,,,,zjr,1,2024-06-28_19h44.06.846,DCT_v1_online,2021.2.3,Win32,59.88023952,,,0.141,2.209,63,up,1,0.95,right,1,1.0556,2.359,0,46,46,98,1,99,incongruent,down,up,incongruent,Stim/Aincon.png,up,0,-0.1,0,7,100,congruent,left,right,incongruent,Stim/Acon.png,right,-0.1,0,-90,2,2000,stimuli\\,,,,,,,,,,,,
,,,,,,,,,,zjr,1,2024-06-28_19h44.06.846,DCT_v1_online,2021.2.3,Win32,59.88023952,,,0.069,2.281,64,up,1,0.7872,left,1,0.9037,2.431,0,47,47,100,1,101,incongruent,down,up,incongruent,Stim/Aincon.png,up,0,-0.1,0,7,100,congruent,right,left,incongruent,Stim/Acon.png,left,0.1,0,90,3,2000,stimuli\\,,,,,,,,,,,,
,,,,,,,,,,zjr,1,2024-06-28_19h44.06.846,DCT_v1_online,2021.2.3,Win32,59.88023952,,,0.314,2.936,65,down,1,0.6319,right,1,0.4665,2.186,0,48,48,19,1,20,congruent,up,down,incongruent,Stim/Acon.png,down,0,0.1,180,2,1000,congruent,left,right,incongruent,Stim/Acon.png,right,-0.1,0,-90,2,2000,stimuli\\,,,,,,,,,,,,
,,,,,,,,,,zjr,1,2024-06-28_19h44.06.846,DCT_v1_online,2021.2.3,Win32,59.88023952,,,0.203,2.147,66,down,1,0.8159,left,1,0.9921,2.297,0,49,49,88,1,89,incongruent,up,down,incongruent,Stim/Aincon.png,down,0,0.1,180,6,100,incongruent,left,left,congruent,Stim/Aincon.png,left,-0.1,0,90,5,2000,stimuli\\,,,,,,,,,,,,
,,,,,,,,,,zjr,1,2024-06-28_19h44.06.846,DCT_v1_online,2021.2.3,Win32,59.88023952,,,0.449,2.801,67,up,1,0.7883,right,1,0.4836,2.051,0,50,50,39,1,40,congruent,down,up,incongruent,Stim/Acon.png,up,0,-0.1,0,3,1000,congruent,right,right,congruent,Stim/Acon.png,right,0.1,0,-90,4,2000,stimuli\\,,,,,,,,,,,,
,,,,,,,,,,zjr,1,2024-06-28_19h44.06.846,DCT_v1_online,2021.2.3,Win32,59.88023952,,,0.387,1.963,68,down,1,0.8006,right,1,0.8909,2.113,0,51,51,54,1,55,congruent,down,down,congruent,Stim/Acon.png,down,0,-0.1,180,4,100,congruent,right,right,congruent,Stim/Acon.png,right,0.1,0,-90,4,2000,stimuli\\,,,,,,,,,,,,
,,,,,,,,,,zjr,1,2024-06-28_19h44.06.846,DCT_v1_online,2021.2.3,Win32,59.88023952,,,0.032,2.318,69,down,1,0.6726,right,1,0.7695,2.468,0,52,52,50,1,51,congruent,down,down,congruent,Stim/Acon.png,down,0,-0.1,180,4,100,congruent,left,right,incongruent,Stim/Acon.png,right,-0.1,0,-90,2,2000,stimuli\\,,,,,,,,,,,,
,,,,,,,,,,zjr,1,2024-06-28_19h44.06.846,DCT_v1_online,2021.2.3,Win32,59.88023952,,,0.255,2.095,70,up,1,0.4999,left,1,0.6063,2.245,0,53,53,0,1,1,congruent,up,up,congruent,Stim/Acon.png,up,0,0.1,0,1,100,congruent,left,left,congruent,Stim/Acon.png,left,-0.1,0,90,1,2000,stimuli\\,,,,,,,,,,,,
,,,,,,,,,,zjr,1,2024-06-28_19h44.06.846,DCT_v1_online,2021.2.3,Win32,59.88023952,,,0.132,2.218,71,up,1,0.75,right,1,1.058,2.368,0,54,54,78,1,79,incongruent,up,up,congruent,Stim/Aincon.png,up,0,0.1,0,5,100,incongruent,right,right,congruent,Stim/Aincon.png,right,0.1,0,-90,8,2000,stimuli\\,,,,,,,,,,,,
,,,,,,,,,,zjr,1,2024-06-28_19h44.06.846,DCT_v1_online,2021.2.3,Win32,59.88023952,,,0.42,1.93,72,up,1,0.8995,right,0,1.1825,2.08,0,55,55,40,1,41,congruent,down,up,incongruent,Stim/Acon.png,up,0,-0.1,0,3,100,incongruent,left,left,congruent,Stim/Aincon.png,left,-0.1,0,90,5,2000,stimuli\\,,,,,,,,,,,,
,,,,,,,,,,zjr,1,2024-06-28_19h44.06.846,DCT_v1_online,2021.2.3,Win32,59.88023952,,,0.152,2.198,73,up,1,0.8653,left,1,0.9386,2.348,0,56,56,68,1,69,incongruent,up,up,congruent,Stim/Aincon.png,up,0,0.1,0,5,100,congruent,right,left,incongruent,Stim/Acon.png,left,0.1,0,90,3,2000,stimuli\\,,,,,,,,,,,,
,,,,,,,,,,zjr,1,2024-06-28_19h44.06.846,DCT_v1_online,2021.2.3,Win32,59.88023952,,,0.26,2.99,74,up,1,0.5495,right,1,0.659,2.24,0,57,57,11,1,12,congruent,up,up,congruent,Stim/Acon.png,up,0,0.1,0,1,1000,incongruent,left,right,incongruent,Stim/Aincon.png,right,-0.1,0,-90,6,2000,stimuli\\,,,,,,,,,,,,
,,,,,,,,,,zjr,1,2024-06-28_19h44.06.846,DCT_v1_online,2021.2.3,Win32,59.88023952,,,0.12,3.13,75,up,1,0.6334,right,1,0.6329,2.38,0,58,58,67,1,68,incongruent,up,up,congruent,Stim/Aincon.png,up,0,0.1,0,5,1000,congruent,left,right,incongruent,Stim/Acon.png,right,-0.1,0,-90,2,2000,stimuli\\,,,,,,,,,,,,
,,,,,,,,,,zjr,1,2024-06-28_19h44.06.846,DCT_v1_online,2021.2.3,Win32,59.88023952,,,0.248,3.002,76,down,1,0.887,right,1,0.7744,2.252,0,59,59,127,1,128,incongruent,down,down,congruent,Stim/Aincon.png,down,0,-0.1,180,8,1000,incongruent,right,right,congruent,Stim/Aincon.png,right,0.1,0,-90,8,2000,stimuli\\,,,,,,,,,,,,
,,,,,,,,,,zjr,1,2024-06-28_19h44.06.846,DCT_v1_online,2021.2.3,Win32,59.88023952,,,0.025,3.225,77,up,1,0.5382,right,0,0.4993,2.475,0,60,60,45,1,46,congruent,down,up,incongruent,Stim/Acon.png,up,0,-0.1,0,3,1000,incongruent,right,left,incongruent,Stim/Aincon.png,left,0.1,0,90,7,2000,stimuli\\,,,,,,,,,,,,
,,,,,,,,,,zjr,1,2024-06-28_19h44.06.846,DCT_v1_online,2021.2.3,Win32,59.88023952,,,0.38,1.97,78,down,1,1.0383,left,1,1.1209,2.12,0,61,61,124,1,125,incongruent,down,down,congruent,Stim/Aincon.png,down,0,-0.1,180,8,100,incongruent,right,left,incongruent,Stim/Aincon.png,left,0.1,0,90,7,2000,stimuli\\,,,,,,,,,,,,
,,,,,,,,,,zjr,1,2024-06-28_19h44.06.846,DCT_v1_online,2021.2.3,Win32,59.88023952,,,0.135,2.215,79,up,1,1.4345,left,1,1.5062,2.365,0,62,62,104,1,105,incongruent,down,up,incongruent,Stim/Aincon.png,up,0,-0.1,0,7,100,incongruent,left,left,congruent,Stim/Aincon.png,left,-0.1,0,90,5,2000,stimuli\\,,,,,,,,,,,,
,,,,,,,,,,zjr,1,2024-06-28_19h44.06.846,DCT_v1_online,2021.2.3,Win32,59.88023952,,,0.115,3.135,80,down,1,0.6478,left,1,0.6987,2.385,0,63,63,85,1,86,incongruent,up,down,incongruent,Stim/Aincon.png,down,0,0.1,180,6,1000,congruent,right,left,incongruent,Stim/Acon.png,left,0.1,0,90,3,2000,stimuli\\,,,,,,,,,,,,
,,,,,,,,,,zjr,1,2024-06-28_19h44.06.846,DCT_v1_online,2021.2.3,Win32,59.88023952,,,0.068,3.182,81,up,1,0.6667,left,1,0.7335,2.432,0,64,64,65,1,66,incongruent,up,up,congruent,Stim/Aincon.png,up,0,0.1,0,5,1000,congruent,left,left,congruent,Stim/Acon.png,left,-0.1,0,90,1,2000,stimuli\\,,,,,,,,,,,,
,,,,,,,,,,zjr,1,2024-06-28_19h44.06.846,DCT_v1_online,2021.2.3,Win32,59.88023952,,,0.075,2.275,82,up,1,0.864,right,1,1.0384,2.425,0,65,65,42,1,43,congruent,down,up,incongruent,Stim/Acon.png,up,0,-0.1,0,3,100,incongruent,left,right,incongruent,Stim/Aincon.png,right,-0.1,0,-90,6,2000,stimuli\\,,,,,,,,,,,,
,,,,,,,,,,zjr,1,2024-06-28_19h44.06.846,DCT_v1_online,2021.2.3,Win32,59.88023952,,,0.032,3.218,83,up,1,0.5164,right,1,0.5208,2.468,0,66,66,3,1,4,congruent,up,up,congruent,Stim/Acon.png,up,0,0.1,0,1,1000,congruent,left,right,incongruent,Stim/Acon.png,right,-0.1,0,-90,2,2000,stimuli\\,,,,,,,,,,,,
,,,,,,,,,,zjr,1,2024-06-28_19h44.06.846,DCT_v1_online,2021.2.3,Win32,59.88023952,,,0.398,1.952,84,down,1,0.8492,right,1,0.9415,2.102,0,67,67,86,1,87,incongruent,up,down,incongruent,Stim/Aincon.png,down,0,0.1,180,6,100,congruent,right,right,congruent,Stim/Acon.png,right,0.1,0,-90,4,2000,stimuli\\,,,,,,,,,,,,
,,,,,,,,,,zjr,1,2024-06-28_19h44.06.846,DCT_v1_online,2021.2.3,Win32,59.88023952,,,0.318,2.032,85,down,1,0.8722,left,1,0.9376,2.182,0,68,68,16,1,17,congruent,up,down,incongruent,Stim/Acon.png,down,0,0.1,180,2,100,congruent,left,left,congruent,Stim/Acon.png,left,-0.1,0,90,1,2000,stimuli\\,,,,,,,,,,,,
,,,,,,,,,,zjr,1,2024-06-28_19h44.06.846,DCT_v1_online,2021.2.3,Win32,59.88023952,,,0.418,2.832,86,up,1,0.5353,right,0,0.5341,2.082,0,69,69,13,1,14,congruent,up,up,congruent,Stim/Acon.png,up,0,0.1,0,1,1000,incongruent,right,left,incongruent,Stim/Aincon.png,left,0.1,0,90,7,2000,stimuli\\,,,,,,,,,,,,
,,,,,,,,,,zjr,1,2024-06-28_19h44.06.846,DCT_v1_online,2021.2.3,Win32,59.88023952,,,0.377,2.873,87,up,1,0.8188,right,1,0.601,2.123,0,70,70,103,1,104,incongruent,down,up,incongruent,Stim/Aincon.png,up,0,-0.1,0,7,1000,congruent,right,right,congruent,Stim/Acon.png,right,0.1,0,-90,4,2000,stimuli\\,,,,,,,,,,,,
,,,,,,,,,,zjr,1,2024-06-28_19h44.06.846,DCT_v1_online,2021.2.3,Win32,59.88023952,,,0.138,2.212,88,up,1,0.9225,right,1,1.1471,2.362,0,71,71,106,1,107,incongruent,down,up,incongruent,Stim/Aincon.png,up,0,-0.1,0,7,100,incongruent,left,right,incongruent,Stim/Aincon.png,right,-0.1,0,-90,6,2000,stimuli\\,,,,,,,,,,,,
,,,,,,,,,,zjr,1,2024-06-28_19h44.06.846,DCT_v1_online,2021.2.3,Win32,59.88023952,,,0.367,1.983,89,down,1,0.7585,left,1,0.7898,2.133,0,72,72,20,1,21,congruent,up,down,incongruent,Stim/Acon.png,down,0,0.1,180,2,100,congruent,right,left,incongruent,Stim/Acon.png,left,0.1,0,90,3,2000,stimuli\\,,,,,,,,,,,,
,,,,,,,,,,zjr,1,2024-06-28_19h44.06.846,DCT_v1_online,2021.2.3,Win32,59.88023952,,,0.26,2.99,90,up,1,0.8244,left,1,0.6813,2.24,0,73,73,97,1,98,incongruent,down,up,incongruent,Stim/Aincon.png,up,0,-0.1,0,7,1000,congruent,left,left,congruent,Stim/Acon.png,left,-0.1,0,90,1,2000,stimuli\\,,,,,,,,,,,,
,,,,,,,,,,zjr,1,2024-06-28_19h44.06.846,DCT_v1_online,2021.2.3,Win32,59.88023952,,,0.353,1.997,91,down,1,0.9149,right,1,1.0218,2.147,0,74,74,30,1,31,congruent,up,down,incongruent,Stim/Acon.png,down,0,0.1,180,2,100,incongruent,right,right,congruent,Stim/Aincon.png,right,0.1,0,-90,8,2000,stimuli\\,,,,,,,,,,,,
,,,,,,,,,,zjr,1,2024-06-28_19h44.06.846,DCT_v1_online,2021.2.3,Win32,59.88023952,,,0.079,3.171,92,up,1,0.5307,right,0,0.6245,2.421,0,75,75,9,1,10,congruent,up,up,congruent,Stim/Acon.png,up,0,0.1,0,1,1000,incongruent,left,left,congruent,Stim/Aincon.png,left,-0.1,0,90,5,2000,stimuli\\,,,,,,,,,,,,
,,,,,,,,,,zjr,1,2024-06-28_19h44.06.846,DCT_v1_online,2021.2.3,Win32,59.88023952,,,0.231,3.019,93,down,1,0.7517,right,1,0.6326,2.269,0,76,76,51,1,52,congruent,down,down,congruent,Stim/Acon.png,down,0,-0.1,180,4,1000,congruent,left,right,incongruent,Stim/Acon.png,right,-0.1,0,-90,2,2000,stimuli\\,,,,,,,,,,,,
,,,,,,,,,,zjr,1,2024-06-28_19h44.06.846,DCT_v1_online,2021.2.3,Win32,59.88023952,,,0.001,2.349,94,up,1,0.7452,right,1,0.8225,2.499,0,77,77,38,1,39,congruent,down,up,incongruent,Stim/Acon.png,up,0,-0.1,0,3,100,congruent,right,right,congruent,Stim/Acon.png,right,0.1,0,-90,4,2000,stimuli\\,,,,,,,,,,,,
,,,,,,,,,,zjr,1,2024-06-28_19h44.06.846,DCT_v1_online,2021.2.3,Win32,59.88023952,,,0.274,2.076,95,up,1,0.7998,left,1,0.9018,2.226,0,78,78,32,1,33,congruent,down,up,incongruent,Stim/Acon.png,up,0,-0.1,0,3,100,congruent,left,left,congruent,Stim/Acon.png,left,-0.1,0,90,1,2000,stimuli\\,,,,,,,,,,,,
,,,,,,,,,,zjr,1,2024-06-28_19h44.06.846,DCT_v1_online,2021.2.3,Win32,59.88023952,,,0.332,2.018,96,down,1,0.8904,right,1,1.0884,2.168,0,79,79,126,1,127,incongruent,down,down,congruent,Stim/Aincon.png,down,0,-0.1,180,8,100,incongruent,right,right,congruent,Stim/Aincon.png,right,0.1,0,-90,8,2000,stimuli\\,,,,,,,,,,,,
,,,,,,,,,,zjr,1,2024-06-28_19h44.06.846,DCT_v1_online,2021.2.3,Win32,59.88023952,,,0.061,3.189,97,up,1,0.8705,right,1,0.6582,2.439,0,80,80,111,1,112,incongruent,down,up,incongruent,Stim/Aincon.png,up,0,-0.1,0,7,1000,incongruent,right,right,congruent,Stim/Aincon.png,right,0.1,0,-90,8,2000,stimuli\\,,,,,,,,,,,,
,,,,,,,,,,zjr,1,2024-06-28_19h44.06.846,DCT_v1_online,2021.2.3,Win32,59.88023952,,,0.125,3.125,98,up,1,0.6002,right,1,0.5715,2.375,0,81,81,43,1,44,congruent,down,up,incongruent,Stim/Acon.png,up,0,-0.1,0,3,1000,incongruent,left,right,incongruent,Stim/Aincon.png,right,-0.1,0,-90,6,2000,stimuli\\,,,,,,,,,,,,
,,,,,,,,,,zjr,1,2024-06-28_19h44.06.846,DCT_v1_online,2021.2.3,Win32,59.88023952,,,0.114,2.236,99,down,1,0.684,left,1,0.7688,2.386,0,82,82,84,1,85,incongruent,up,down,incongruent,Stim/Aincon.png,down,0,0.1,180,6,100,congruent,right,left,incongruent,Stim/Acon.png,left,0.1,0,90,3,2000,stimuli\\,,,,,,,,,,,,
,,,,,,,,,,zjr,1,2024-06-28_19h44.06.846,DCT_v1_online,2021.2.3,Win32,59.88023952,,,0.087,3.163,100,down,1,0.5931,right,0,0.5744,2.413,0,83,83,89,1,90,incongruent,up,down,incongruent,Stim/Aincon.png,down,0,0.1,180,6,1000,incongruent,left,left,congruent,Stim/Aincon.png,left,-0.1,0,90,5,2000,stimuli\\,,,,,,,,,,,,
,,,,,,,,,,zjr,1,2024-06-28_19h44.06.846,DCT_v1_online,2021.2.3,Win32,59.88023952,,,0.021,3.229,101,up,1,0.5656,left,1,0.7196,2.479,0,84,84,77,1,78,incongruent,up,up,congruent,Stim/Aincon.png,up,0,0.1,0,5,1000,incongruent,right,left,incongruent,Stim/Aincon.png,left,0.1,0,90,7,2000,stimuli\\,,,,,,,,,,,,
,,,,,,,,,,zjr,1,2024-06-28_19h44.06.846,DCT_v1_online,2021.2.3,Win32,59.88023952,,,0.207,3.043,102,up,1,0.6177,left,1,0.5841,2.293,0,85,85,69,1,70,incongruent,up,up,congruent,Stim/Aincon.png,up,0,0.1,0,5,1000,congruent,right,left,incongruent,Stim/Acon.png,left,0.1,0,90,3,2000,stimuli\\,,,,,,,,,,,,
,,,,,,,,,,zjr,1,2024-06-28_19h44.06.846,DCT_v1_online,2021.2.3,Win32,59.88023952,,,0.379,1.971,103,up,1,0.9519,left,1,1.0001,2.121,0,86,86,36,1,37,congruent,down,up,incongruent,Stim/Acon.png,up,0,-0.1,0,3,100,congruent,right,left,incongruent,Stim/Acon.png,left,0.1,0,90,3,2000,stimuli\\,,,,,,,,,,,,
,,,,,,,,,,zjr,1,2024-06-28_19h44.06.846,DCT_v1_online,2021.2.3,Win32,59.88023952,,,0.119,3.131,104,up,1,0.8784,right,1,0.5598,2.381,0,87,87,71,1,72,incongruent,up,up,congruent,Stim/Aincon.png,up,0,0.1,0,5,1000,congruent,right,right,congruent,Stim/Acon.png,right,0.1,0,-90,4,2000,stimuli\\,,,,,,,,,,,,
,,,,,,,,,,zjr,1,2024-06-28_19h44.06.846,DCT_v1_online,2021.2.3,Win32,59.88023952,,,0.38,2.87,105,down,1,0.6007,left,1,0.7171,2.12,0,88,88,93,1,94,incongruent,up,down,incongruent,Stim/Aincon.png,down,0,0.1,180,6,1000,incongruent,right,left,incongruent,Stim/Aincon.png,left,0.1,0,90,7,2000,stimuli\\,,,,,,,,,,,,
,,,,,,,,,,zjr,1,2024-06-28_19h44.06.846,DCT_v1_online,2021.2.3,Win32,59.88023952,,,0.009,2.341,106,down,1,0.9672,left,1,1.2302,2.491,0,89,89,60,1,61,congruent,down,down,congruent,Stim/Acon.png,down,0,-0.1,180,4,100,incongruent,right,left,incongruent,Stim/Aincon.png,left,0.1,0,90,7,2000,stimuli\\,,,,,,,,,,,,
,,,,,,,,,,zjr,1,2024-06-28_19h44.06.846,DCT_v1_online,2021.2.3,Win32,59.88023952,,,0.495,2.755,107,down,1,0.89,right,1,0.7533,2.005,0,90,90,123,1,124,incongruent,down,down,congruent,Stim/Aincon.png,down,0,-0.1,180,8,1000,incongruent,left,right,incongruent,Stim/Aincon.png,right,-0.1,0,-90,6,2000,stimuli\\,,,,,,,,,,,,
,,,,,,,,,,zjr,1,2024-06-28_19h44.06.846,DCT_v1_online,2021.2.3,Win32,59.88023952,,,0.495,1.855,108,down,1,0.8734,left,1,0.9702,2.005,0,91,91,92,1,93,incongruent,up,down,incongruent,Stim/Aincon.png,down,0,0.1,180,6,100,incongruent,right,left,incongruent,Stim/Aincon.png,left,0.1,0,90,7,2000,stimuli\\,,,,,,,,,,,,
,,,,,,,,,,zjr,1,2024-06-28_19h44.06.846,DCT_v1_online,2021.2.3,Win32,59.88023952,,,0.036,2.314,109,up,1,0.7837,left,1,0.9756,2.464,0,92,92,72,1,73,incongruent,up,up,congruent,Stim/Aincon.png,up,0,0.1,0,5,100,incongruent,left,left,congruent,Stim/Aincon.png,left,-0.1,0,90,5,2000,stimuli\\,,,,,,,,,,,,
,,,,,,,,,,zjr,1,2024-06-28_19h44.06.846,DCT_v1_online,2021.2.3,Win32,59.88023952,,,0.425,2.825,110,up,1,0.6463,right,1,0.7504,2.075,0,93,93,79,1,80,incongruent,up,up,congruent,Stim/Aincon.png,up,0,0.1,0,5,1000,incongruent,right,right,congruent,Stim/Aincon.png,right,0.1,0,-90,8,2000,stimuli\\,,,,,,,,,,,,
,,,,,,,,,,zjr,1,2024-06-28_19h44.06.846,DCT_v1_online,2021.2.3,Win32,59.88023952,,,0.365,1.985,111,up,1,0.9209,left,1,0.9691,2.135,0,94,94,64,1,65,incongruent,up,up,congruent,Stim/Aincon.png,up,0,0.1,0,5,100,congruent,left,left,congruent,Stim/Acon.png,left,-0.1,0,90,1,2000,stimuli\\,,,,,,,,,,,,
,,,,,,,,,,zjr,1,2024-06-28_19h44.06.846,DCT_v1_online,2021.2.3,Win32,59.88023952,,,0.486,1.864,112,up,1,0.7831,right,1,1.0559,2.014,0,95,95,46,1,47,congruent,down,up,incongruent,Stim/Acon.png,up,0,-0.1,0,3,100,incongruent,right,right,congruent,Stim/Aincon.png,right,0.1,0,-90,8,2000,stimuli\\,,,,,,,,,,,,
,,,,,,,,,,zjr,1,2024-06-28_19h44.06.846,DCT_v1_online,2021.2.3,Win32,59.88023952,,,0.115,3.135,113,up,1,0.6034,left,1,0.6241,2.385,0,96,96,5,1,6,congruent,up,up,congruent,Stim/Acon.png,up,0,0.1,0,1,1000,congruent,right,left,incongruent,Stim/Acon.png,left,0.1,0,90,3,2000,stimuli\\,,,,,,,,,,,,
,,,,,,,,,,zjr,1,2024-06-28_19h44.06.846,DCT_v1_online,2021.2.3,Win32,59.88023952,,,0.35,2.9,114,down,1,0.7452,left,1,0.6703,2.15,0,97,97,61,1,62,congruent,down,down,congruent,Stim/Acon.png,down,0,-0.1,180,4,1000,incongruent,right,left,incongruent,Stim/Aincon.png,left,0.1,0,90,7,2000,stimuli\\,,,,,,,,,,,,
,,,,,,,,,,zjr,1,2024-06-28_19h44.06.846,DCT_v1_online,2021.2.3,Win32,59.88023952,,,0.385,2.865,115,down,1,0.5814,left,1,0.5579,2.115,0,98,98,21,1,22,congruent,up,down,incongruent,Stim/Acon.png,down,0,0.1,180,2,1000,congruent,right,left,incongruent,Stim/Acon.png,left,0.1,0,90,3,2000,stimuli\\,,,,,,,,,,,,
,,,,,,,,,,zjr,1,2024-06-28_19h44.06.846,DCT_v1_online,2021.2.3,Win32,59.88023952,,,0.078,3.172,116,up,1,0.8412,left,1,0.6922,2.422,0,99,99,105,1,106,incongruent,down,up,incongruent,Stim/Aincon.png,up,0,-0.1,0,7,1000,incongruent,left,left,congruent,Stim/Aincon.png,left,-0.1,0,90,5,2000,stimuli\\,,,,,,,,,,,,
,,,,,,,,,,zjr,1,2024-06-28_19h44.06.846,DCT_v1_online,2021.2.3,Win32,59.88023952,,,0.057,3.193,117,down,1,0.5999,right,1,0.6881,2.443,0,100,100,91,1,92,incongruent,up,down,incongruent,Stim/Aincon.png,down,0,0.1,180,6,1000,incongruent,left,right,incongruent,Stim/Aincon.png,right,-0.1,0,-90,6,2000,stimuli\\,,,,,,,,,,,,
,,,,,,,,,,zjr,1,2024-06-28_19h44.06.846,DCT_v1_online,2021.2.3,Win32,59.88023952,,,0.308,2.942,118,down,1,0.5241,left,1,0.8539,2.192,0,101,101,25,1,26,congruent,up,down,incongruent,Stim/Acon.png,down,0,0.1,180,2,1000,incongruent,left,left,congruent,Stim/Aincon.png,left,-0.1,0,90,5,2000,stimuli\\,,,,,,,,,,,,
,,,,,,,,,,zjr,1,2024-06-28_19h44.06.846,DCT_v1_online,2021.2.3,Win32,59.88023952,,,0.127,2.223,119,up,1,0.8042,right,1,0.8693,2.373,0,102,102,2,1,3,congruent,up,up,congruent,Stim/Acon.png,up,0,0.1,0,1,100,congruent,left,right,incongruent,Stim/Acon.png,right,-0.1,0,-90,2,2000,stimuli\\,,,,,,,,,,,,
,,,,,,,,,,zjr,1,2024-06-28_19h44.06.846,DCT_v1_online,2021.2.3,Win32,59.88023952,,,0.349,2.001,120,down,1,0.5709,right,1,0.9906,2.151,0,103,103,26,1,27,congruent,up,down,incongruent,Stim/Acon.png,down,0,0.1,180,2,100,incongruent,left,right,incongruent,Stim/Aincon.png,right,-0.1,0,-90,6,2000,stimuli\\,,,,,,,,,,,,
,,,,,,,,,,zjr,1,2024-06-28_19h44.06.846,DCT_v1_online,2021.2.3,Win32,59.88023952,,,0.48,2.77,121,down,1,0.8674,right,1,0.5958,2.02,0,104,104,119,1,120,incongruent,down,down,congruent,Stim/Aincon.png,down,0,-0.1,180,8,1000,congruent,right,right,congruent,Stim/Acon.png,right,0.1,0,-90,4,2000,stimuli\\,,,,,,,,,,,,
,,,,,,,,,,zjr,1,2024-06-28_19h44.06.846,DCT_v1_online,2021.2.3,Win32,59.88023952,,,0.258,2.992,122,down,1,0.687,left,0,0.6006,2.242,0,105,105,63,1,64,congruent,down,down,congruent,Stim/Acon.png,down,0,-0.1,180,4,1000,incongruent,right,right,congruent,Stim/Aincon.png,right,0.1,0,-90,8,2000,stimuli\\,,,,,,,,,,,,
,,,,,,,,,,zjr,1,2024-06-28_19h44.06.846,DCT_v1_online,2021.2.3,Win32,59.88023952,,,0.084,3.166,123,down,1,0.9992,right,0,1.1082,2.416,0,106,106,121,1,122,incongruent,down,down,congruent,Stim/Aincon.png,down,0,-0.1,180,8,1000,incongruent,left,left,congruent,Stim/Aincon.png,left,-0.1,0,90,5,2000,stimuli\\,,,,,,,,,,,,
,,,,,,,,,,zjr,1,2024-06-28_19h44.06.846,DCT_v1_online,2021.2.3,Win32,59.88023952,,,0.15,2.2,124,up,1,0.9667,right,1,1.0795,2.35,0,107,107,102,1,103,incongruent,down,up,incongruent,Stim/Aincon.png,up,0,-0.1,0,7,100,congruent,right,right,congruent,Stim/Acon.png,right,0.1,0,-90,4,2000,stimuli\\,,,,,,,,,,,,
,,,,,,,,,,zjr,1,2024-06-28_19h44.06.846,DCT_v1_online,2021.2.3,Win32,59.88023952,,,0.103,3.147,125,down,1,0.741,left,1,0.5676,2.397,0,108,108,81,1,82,incongruent,up,down,incongruent,Stim/Aincon.png,down,0,0.1,180,6,1000,congruent,left,left,congruent,Stim/Acon.png,left,-0.1,0,90,1,2000,stimuli\\,,,,,,,,,,,,
,,,,,,,,,,zjr,1,2024-06-28_19h44.06.846,DCT_v1_online,2021.2.3,Win32,59.88023952,,,0.318,2.032,126,down,1,0.9917,right,1,1.0667,2.182,0,109,109,58,1,59,congruent,down,down,congruent,Stim/Acon.png,down,0,-0.1,180,4,100,incongruent,left,right,incongruent,Stim/Aincon.png,right,-0.1,0,-90,6,2000,stimuli\\,,,,,,,,,,,,
,,,,,,,,,,zjr,1,2024-06-28_19h44.06.846,DCT_v1_online,2021.2.3,Win32,59.88023952,,,0.378,2.872,127,up,1,0.5667,right,1,0.74,2.122,0,110,110,47,1,48,congruent,down,up,incongruent,Stim/Acon.png,up,0,-0.1,0,3,1000,incongruent,right,right,congruent,Stim/Aincon.png,right,0.1,0,-90,8,2000,stimuli\\,,,,,,,,,,,,
,,,,,,,,,,zjr,1,2024-06-28_19h44.06.846,DCT_v1_online,2021.2.3,Win32,59.88023952,,,0.123,2.227,128,down,1,0.887,right,1,1.0835,2.377,0,111,111,122,1,123,incongruent,down,down,congruent,Stim/Aincon.png,down,0,-0.1,180,8,100,incongruent,left,right,incongruent,Stim/Aincon.png,right,-0.1,0,-90,6,2000,stimuli\\,,,,,,,,,,,,
,,,,,,,,,,zjr,1,2024-06-28_19h44.06.846,DCT_v1_online,2021.2.3,Win32,59.88023952,,,0.14,3.11,129,up,1,0.5765,left,1,0.5884,2.36,0,112,112,33,1,34,congruent,down,up,incongruent,Stim/Acon.png,up,0,-0.1,0,3,1000,congruent,left,left,congruent,Stim/Acon.png,left,-0.1,0,90,1,2000,stimuli\\,,,,,,,,,,,,
,,,,,,,,,,zjr,1,2024-06-28_19h44.06.846,DCT_v1_online,2021.2.3,Win32,59.88023952,,,0.135,2.215,130,down,1,0.9577,left,1,1.0539,2.365,0,113,113,120,1,121,incongruent,down,down,congruent,Stim/Aincon.png,down,0,-0.1,180,8,100,incongruent,left,left,congruent,Stim/Aincon.png,left,-0.1,0,90,5,2000,stimuli\\,,,,,,,,,,,,
,,,,,,,,,,zjr,1,2024-06-28_19h44.06.846,DCT_v1_online,2021.2.3,Win32,59.88023952,,,0.252,2.998,131,down,1,0.8007,right,1,0.553,2.248,0,114,114,115,1,116,incongruent,down,down,congruent,Stim/Aincon.png,down,0,-0.1,180,8,1000,congruent,left,right,incongruent,Stim/Acon.png,right,-0.1,0,-90,2,2000,stimuli\\,,,,,,,,,,,,
,,,,,,,,,,zjr,1,2024-06-28_19h44.06.846,DCT_v1_online,2021.2.3,Win32,59.88023952,,,0.216,3.034,132,down,1,0.7093,right,1,0.7208,2.284,0,115,115,27,1,28,congruent,up,down,incongruent,Stim/Acon.png,down,0,0.1,180,2,1000,incongruent,left,right,incongruent,Stim/Aincon.png,right,-0.1,0,-90,6,2000,stimuli\\,,,,,,,,,,,,
,,,,,,,,,,zjr,1,2024-06-28_19h44.06.846,DCT_v1_online,2021.2.3,Win32,59.88023952,,,0.278,2.072,133,down,1,0.7165,right,1,0.891,2.222,0,116,116,82,1,83,incongruent,up,down,incongruent,Stim/Aincon.png,down,0,0.1,180,6,100,congruent,left,right,incongruent,Stim/Acon.png,right,-0.1,0,-90,2,2000,stimuli\\,,,,,,,,,,,,
,,,,,,,,,,zjr,1,2024-06-28_19h44.06.846,DCT_v1_online,2021.2.3,Win32,59.88023952,,,0.33,2.92,134,up,1,0.5556,left,1,0.5695,2.17,0,117,117,1,1,2,congruent,up,up,congruent,Stim/Acon.png,up,0,0.1,0,1,1000,congruent,left,left,congruent,Stim/Acon.png,left,-0.1,0,90,1,2000,stimuli\\,,,,,,,,,,,,
,,,,,,,,,,zjr,1,2024-06-28_19h44.06.846,DCT_v1_online,2021.2.3,Win32,59.88023952,,,0.297,2.053,135,up,1,1.0597,left,1,1.1737,2.203,0,118,118,96,1,97,incongruent,down,up,incongruent,Stim/Aincon.png,up,0,-0.1,0,7,100,congruent,left,left,congruent,Stim/Acon.png,left,-0.1,0,90,1,2000,stimuli\\,,,,,,,,,,,,
,,,,,,,,,,zjr,1,2024-06-28_19h44.06.846,DCT_v1_online,2021.2.3,Win32,59.88023952,,,0.028,2.322,136,down,1,0.9092,left,1,1.007,2.472,0,119,119,116,1,117,incongruent,down,down,congruent,Stim/Aincon.png,down,0,-0.1,180,8,100,congruent,right,left,incongruent,Stim/Acon.png,left,0.1,0,90,3,2000,stimuli\\,,,,,,,,,,,,
,,,,,,,,,,zjr,1,2024-06-28_19h44.06.846,DCT_v1_online,2021.2.3,Win32,59.88023952,,,0.429,2.821,137,up,1,0.6346,left,0,0.5378,2.071,0,120,120,15,1,16,congruent,up,up,congruent,Stim/Acon.png,up,0,0.1,0,1,1000,incongruent,right,right,congruent,Stim/Aincon.png,right,0.1,0,-90,8,2000,stimuli\\,,,,,,,,,,,,
,,,,,,,,,,zjr,1,2024-06-28_19h44.06.846,DCT_v1_online,2021.2.3,Win32,59.88023952,,,0.169,3.081,138,down,1,0.614,right,1,0.6336,2.331,0,121,121,83,1,84,incongruent,up,down,incongruent,Stim/Aincon.png,down,0,0.1,180,6,1000,congruent,left,right,incongruent,Stim/Acon.png,right,-0.1,0,-90,2,2000,stimuli\\,,,,,,,,,,,,
,,,,,,,,,,zjr,1,2024-06-28_19h44.06.846,DCT_v1_online,2021.2.3,Win32,59.88023952,,,0.055,3.195,139,up,1,0.8868,right,1,0.7179,2.445,0,122,122,107,1,108,incongruent,down,up,incongruent,Stim/Aincon.png,up,0,-0.1,0,7,1000,incongruent,left,right,incongruent,Stim/Aincon.png,right,-0.1,0,-90,6,2000,stimuli\\,,,,,,,,,,,,
,,,,,,,,,,zjr,1,2024-06-28_19h44.06.846,DCT_v1_online,2021.2.3,Win32,59.88023952,,,0.234,2.116,140,up,1,0.7467,right,1,0.9195,2.266,0,123,123,14,1,15,congruent,up,up,congruent,Stim/Acon.png,up,0,0.1,0,1,100,incongruent,right,right,congruent,Stim/Aincon.png,right,0.1,0,-90,8,2000,stimuli\\,,,,,,,,,,,,
,,,,,,,,,,zjr,1,2024-06-28_19h44.06.846,DCT_v1_online,2021.2.3,Win32,59.88023952,,,0.384,1.966,141,up,1,0.8001,left,1,0.9022,2.116,0,124,124,4,1,5,congruent,up,up,congruent,Stim/Acon.png,up,0,0.1,0,1,100,congruent,right,left,incongruent,Stim/Acon.png,left,0.1,0,90,3,2000,stimuli\\,,,,,,,,,,,,
,,,,,,,,,,zjr,1,2024-06-28_19h44.06.846,DCT_v1_online,2021.2.3,Win32,59.88023952,,,0.094,3.156,142,down,1,0.6644,right,1,0.5049,2.406,0,125,125,87,1,88,incongruent,up,down,incongruent,Stim/Aincon.png,down,0,0.1,180,6,1000,congruent,right,right,congruent,Stim/Acon.png,right,0.1,0,-90,4,2000,stimuli\\,,,,,,,,,,,,
,,,,,,,,,,zjr,1,2024-06-28_19h44.06.846,DCT_v1_online,2021.2.3,Win32,59.88023952,,,0.405,2.845,143,down,1,0.7764,left,1,0.8368,2.095,0,126,126,125,1,126,incongruent,down,down,congruent,Stim/Aincon.png,down,0,-0.1,180,8,1000,incongruent,right,left,incongruent,Stim/Aincon.png,left,0.1,0,90,7,2000,stimuli\\,,,,,,,,,,,,
,,,,,,,,,,zjr,1,2024-06-28_19h44.06.846,DCT_v1_online,2021.2.3,Win32,59.88023952,,,0.016,2.334,144,up,1,0.9501,right,1,1.0172,2.484,0,127,127,110,1,111,incongruent,down,up,incongruent,Stim/Aincon.png,up,0,-0.1,0,7,100,incongruent,right,right,congruent,Stim/Aincon.png,right,0.1,0,-90,8,2000,stimuli\\,,,,,,,,,,,,
,,,,,,,,,,zjr,1,2024-06-28_19h44.06.846,DCT_v1_online,2021.2.3,Win32,59.88023952,,,,,,,,,,,,,,,,,,,,,,,,,,,,,,,,,,,,,,,,,,space,12.7511,0,1,1,1,1,Instructions/i5.png,test,conditions/block1.xlsx,1.2,0.8
,,,,,,,,,,zjr,1,2024-06-28_19h44.06.846,DCT_v1_online,2021.2.3,Win32,59.88023952,space,2.8575,0.039,2.311,145,down,1,0.6507,left,1,0.9524,2.461,0,0,0,24,1,25,congruent,up,down,incongruent,Stim/Acon.png,down,0,0.1,180,2,100,incongruent,left,left,congruent,Stim/Aincon.png,left,-0.1,0,90,5,2000,stimuli\\,,,,,,,,,,,,
,,,,,,,,,,zjr,1,2024-06-28_19h44.06.846,DCT_v1_online,2021.2.3,Win32,59.88023952,,,0.347,2.003,146,down,1,0.78,right,1,0.8522,2.153,0,1,1,82,1,83,incongruent,up,down,incongruent,Stim/Aincon.png,down,0,0.1,180,6,100,congruent,left,right,incongruent,Stim/Acon.png,right,-0.1,0,-90,2,2000,stimuli\\,,,,,,,,,,,,
,,,,,,,,,,zjr,1,2024-06-28_19h44.06.846,DCT_v1_online,2021.2.3,Win32,59.88023952,,,0.247,3.003,147,down,1,0.7159,left,1,0.5926,2.253,0,2,2,49,1,50,congruent,down,down,congruent,Stim/Acon.png,down,0,-0.1,180,4,1000,congruent,left,left,congruent,Stim/Acon.png,left,-0.1,0,90,1,2000,stimuli\\,,,,,,,,,,,,
,,,,,,,,,,zjr,1,2024-06-28_19h44.06.846,DCT_v1_online,2021.2.3,Win32,59.88023952,,,0.269,2.981,148,down,1,0.6477,right,1,0.5997,2.231,0,3,3,91,1,92,incongruent,up,down,incongruent,Stim/Aincon.png,down,0,0.1,180,6,1000,incongruent,left,right,incongruent,Stim/Aincon.png,right,-0.1,0,-90,6,2000,stimuli\\,,,,,,,,,,,,
,,,,,,,,,,zjr,1,2024-06-28_19h44.06.846,DCT_v1_online,2021.2.3,Win32,59.88023952,,,0.046,2.304,149,up,1,0.6507,left,1,0.7303,2.454,0,4,4,0,1,1,congruent,up,up,congruent,Stim/Acon.png,up,0,0.1,0,1,100,congruent,left,left,congruent,Stim/Acon.png,left,-0.1,0,90,1,2000,stimuli\\,,,,,,,,,,,,
,,,,,,,,,,zjr,1,2024-06-28_19h44.06.846,DCT_v1_online,2021.2.3,Win32,59.88023952,,,0.346,2.004,150,up,1,0.6583,right,1,0.7028,2.154,0,5,5,6,1,7,congruent,up,up,congruent,Stim/Acon.png,up,0,0.1,0,1,100,congruent,right,right,congruent,Stim/Acon.png,right,0.1,0,-90,4,2000,stimuli\\,,,,,,,,,,,,
,,,,,,,,,,zjr,1,2024-06-28_19h44.06.846,DCT_v1_online,2021.2.3,Win32,59.88023952,,,0.283,2.067,151,up,1,0.8971,right,1,1.0206,2.217,0,6,6,42,1,43,congruent,down,up,incongruent,Stim/Acon.png,up,0,-0.1,0,3,100,incongruent,left,right,incongruent,Stim/Aincon.png,right,-0.1,0,-90,6,2000,stimuli\\,,,,,,,,,,,,
,,,,,,,,,,zjr,1,2024-06-28_19h44.06.846,DCT_v1_online,2021.2.3,Win32,59.88023952,,,0.112,3.138,152,down,1,0.719,right,1,0.8161,2.388,0,7,7,63,1,64,congruent,down,down,congruent,Stim/Acon.png,down,0,-0.1,180,4,1000,incongruent,right,right,congruent,Stim/Aincon.png,right,0.1,0,-90,8,2000,stimuli\\,,,,,,,,,,,,
,,,,,,,,,,zjr,1,2024-06-28_19h44.06.846,DCT_v1_online,2021.2.3,Win32,59.88023952,,,0.489,2.761,153,up,1,0.549,left,1,0.671,2.011,0,8,8,9,1,10,congruent,up,up,congruent,Stim/Acon.png,up,0,0.1,0,1,1000,incongruent,left,left,congruent,Stim/Aincon.png,left,-0.1,0,90,5,2000,stimuli\\,,,,,,,,,,,,
,,,,,,,,,,zjr,1,2024-06-28_19h44.06.846,DCT_v1_online,2021.2.3,Win32,59.88023952,,,0.134,2.216,154,down,1,1.013,left,1,1.0733,2.366,0,9,9,88,1,89,incongruent,up,down,incongruent,Stim/Aincon.png,down,0,0.1,180,6,100,incongruent,left,left,congruent,Stim/Aincon.png,left,-0.1,0,90,5,2000,stimuli\\,,,,,,,,,,,,
,,,,,,,,,,zjr,1,2024-06-28_19h44.06.846,DCT_v1_online,2021.2.3,Win32,59.88023952,,,0.319,2.931,155,up,1,0.6827,left,1,0.7408,2.181,0,10,10,77,1,78,incongruent,up,up,congruent,Stim/Aincon.png,up,0,0.1,0,5,1000,incongruent,right,left,incongruent,Stim/Aincon.png,left,0.1,0,90,7,2000,stimuli\\,,,,,,,,,,,,
,,,,,,,,,,zjr,1,2024-06-28_19h44.06.846,DCT_v1_online,2021.2.3,Win32,59.88023952,,,0.329,2.021,156,up,1,0.9626,left,1,1.0527,2.171,0,11,11,44,1,45,congruent,down,up,incongruent,Stim/Acon.png,up,0,-0.1,0,3,100,incongruent,right,left,incongruent,Stim/Aincon.png,left,0.1,0,90,7,2000,stimuli\\,,,,,,,,,,,,
,,,,,,,,,,zjr,1,2024-06-28_19h44.06.846,DCT_v1_online,2021.2.3,Win32,59.88023952,,,0.418,2.832,157,down,1,0.6331,right,1,0.5194,2.082,0,12,12,55,1,56,congruent,down,down,congruent,Stim/Acon.png,down,0,-0.1,180,4,1000,congruent,right,right,congruent,Stim/Acon.png,right,0.1,0,-90,4,2000,stimuli\\,,,,,,,,,,,,
,,,,,,,,,,zjr,1,2024-06-28_19h44.06.846,DCT_v1_online,2021.2.3,Win32,59.88023952,,,0.228,3.022,158,down,1,0.7517,left,0,0.6868,2.272,0,13,13,123,1,124,incongruent,down,down,congruent,Stim/Aincon.png,down,0,-0.1,180,8,1000,incongruent,left,right,incongruent,Stim/Aincon.png,right,-0.1,0,-90,6,2000,stimuli\\,,,,,,,,,,,,
,,,,,,,,,,zjr,1,2024-06-28_19h44.06.846,DCT_v1_online,2021.2.3,Win32,59.88023952,,,0.183,3.067,159,up,1,0.7282,right,1,0.5739,2.317,0,14,14,99,1,100,incongruent,down,up,incongruent,Stim/Aincon.png,up,0,-0.1,0,7,1000,congruent,left,right,incongruent,Stim/Acon.png,right,-0.1,0,-90,2,2000,stimuli\\,,,,,,,,,,,,
,,,,,,,,,,zjr,1,2024-06-28_19h44.06.846,DCT_v1_online,2021.2.3,Win32,59.88023952,,,0.068,3.182,160,down,1,0.5896,left,1,0.7399,2.432,0,15,15,25,1,26,congruent,up,down,incongruent,Stim/Acon.png,down,0,0.1,180,2,1000,incongruent,left,left,congruent,Stim/Aincon.png,left,-0.1,0,90,5,2000,stimuli\\,,,,,,,,,,,,
,,,,,,,,,,zjr,1,2024-06-28_19h44.06.846,DCT_v1_online,2021.2.3,Win32,59.88023952,,,0.302,2.948,161,up,1,0.7829,left,1,0.6032,2.198,0,16,16,37,1,38,congruent,down,up,incongruent,Stim/Acon.png,up,0,-0.1,0,3,1000,congruent,right,left,incongruent,Stim/Acon.png,left,0.1,0,90,3,2000,stimuli\\,,,,,,,,,,,,
,,,,,,,,,,zjr,1,2024-06-28_19h44.06.846,DCT_v1_online,2021.2.3,Win32,59.88023952,,,0.472,1.878,162,down,1,0.9713,left,1,1.0966,2.028,0,17,17,124,1,125,incongruent,down,down,congruent,Stim/Aincon.png,down,0,-0.1,180,8,100,incongruent,right,left,incongruent,Stim/Aincon.png,left,0.1,0,90,7,2000,stimuli\\,,,,,,,,,,,,
,,,,,,,,,,zjr,1,2024-06-28_19h44.06.846,DCT_v1_online,2021.2.3,Win32,59.88023952,,,0.262,2.088,163,up,1,0.5606,left,1,0.8016,2.238,0,18,18,32,1,33,congruent,down,up,incongruent,Stim/Acon.png,up,0,-0.1,0,3,100,congruent,left,left,congruent,Stim/Acon.png,left,-0.1,0,90,1,2000,stimuli\\,,,,,,,,,,,,
,,,,,,,,,,zjr,1,2024-06-28_19h44.06.846,DCT_v1_online,2021.2.3,Win32,59.88023952,,,0.129,2.221,164,up,1,0.9532,left,1,1.0007,2.371,0,19,19,76,1,77,incongruent,up,up,congruent,Stim/Aincon.png,up,0,0.1,0,5,100,incongruent,right,left,incongruent,Stim/Aincon.png,left,0.1,0,90,7,2000,stimuli\\,,,,,,,,,,,,
,,,,,,,,,,zjr,1,2024-06-28_19h44.06.846,DCT_v1_online,2021.2.3,Win32,59.88023952,,,0.261,2.989,165,down,1,0.7501,left,1,0.7413,2.239,0,20,20,57,1,58,congruent,down,down,congruent,Stim/Acon.png,down,0,-0.1,180,4,1000,incongruent,left,left,congruent,Stim/Aincon.png,left,-0.1,0,90,5,2000,stimuli\\,,,,,,,,,,,,
,,,,,,,,,,zjr,1,2024-06-28_19h44.06.846,DCT_v1_online,2021.2.3,Win32,59.88023952,,,0.326,2.924,166,up,1,0.5495,left,1,0.6859,2.174,0,21,21,1,1,2,congruent,up,up,congruent,Stim/Acon.png,up,0,0.1,0,1,1000,congruent,left,left,congruent,Stim/Acon.png,left,-0.1,0,90,1,2000,stimuli\\,,,,,,,,,,,,
,,,,,,,,,,zjr,1,2024-06-28_19h44.06.846,DCT_v1_online,2021.2.3,Win32,59.88023952,,,0.104,2.246,167,down,1,0.5996,right,1,0.8075,2.396,0,22,22,30,1,31,congruent,up,down,incongruent,Stim/Acon.png,down,0,0.1,180,2,100,incongruent,right,right,congruent,Stim/Aincon.png,right,0.1,0,-90,8,2000,stimuli\\,,,,,,,,,,,,
,,,,,,,,,,zjr,1,2024-06-28_19h44.06.846,DCT_v1_online,2021.2.3,Win32,59.88023952,,,0.294,2.056,168,down,1,0.8346,left,1,0.8549,2.206,0,23,23,48,1,49,congruent,down,down,congruent,Stim/Acon.png,down,0,-0.1,180,4,100,congruent,left,left,congruent,Stim/Acon.png,left,-0.1,0,90,1,2000,stimuli\\,,,,,,,,,,,,
,,,,,,,,,,zjr,1,2024-06-28_19h44.06.846,DCT_v1_online,2021.2.3,Win32,59.88023952,,,0.045,3.205,169,down,1,0.5159,right,0,0.5073,2.455,0,24,24,29,1,30,congruent,up,down,incongruent,Stim/Acon.png,down,0,0.1,180,2,1000,incongruent,right,left,incongruent,Stim/Aincon.png,left,0.1,0,90,7,2000,stimuli\\,,,,,,,,,,,,
,,,,,,,,,,zjr,1,2024-06-28_19h44.06.846,DCT_v1_online,2021.2.3,Win32,59.88023952,,,0.213,2.137,170,down,1,0.5866,left,1,0.7639,2.287,0,25,25,20,1,21,congruent,up,down,incongruent,Stim/Acon.png,down,0,0.1,180,2,100,congruent,right,left,incongruent,Stim/Acon.png,left,0.1,0,90,3,2000,stimuli\\,,,,,,,,,,,,
,,,,,,,,,,zjr,1,2024-06-28_19h44.06.846,DCT_v1_online,2021.2.3,Win32,59.88023952,,,0.125,3.125,171,up,1,0.5494,right,1,0.6023,2.375,0,26,26,3,1,4,congruent,up,up,congruent,Stim/Acon.png,up,0,0.1,0,1,1000,congruent,left,right,incongruent,Stim/Acon.png,right,-0.1,0,-90,2,2000,stimuli\\,,,,,,,,,,,,
,,,,,,,,,,zjr,1,2024-06-28_19h44.06.846,DCT_v1_online,2021.2.3,Win32,59.88023952,,,0.305,2.045,172,up,1,1.3865,left,1,0.9197,2.195,0,27,27,108,1,109,incongruent,down,up,incongruent,Stim/Aincon.png,up,0,-0.1,0,7,100,incongruent,right,left,incongruent,Stim/Aincon.png,left,0.1,0,90,7,2000,stimuli\\,,,,,,,,,,,,
,,,,,,,,,,zjr,1,2024-06-28_19h44.06.846,DCT_v1_online,2021.2.3,Win32,59.88023952,,,0.026,2.324,173,down,1,0.5452,left,1,0.8309,2.474,0,28,28,28,1,29,congruent,up,down,incongruent,Stim/Acon.png,down,0,0.1,180,2,100,incongruent,right,left,incongruent,Stim/Aincon.png,left,0.1,0,90,7,2000,stimuli\\,,,,,,,,,,,,
,,,,,,,,,,zjr,1,2024-06-28_19h44.06.846,DCT_v1_online,2021.2.3,Win32,59.88023952,,,0.498,1.852,174,up,1,0.7992,left,1,0.8011,2.002,0,29,29,4,1,5,congruent,up,up,congruent,Stim/Acon.png,up,0,0.1,0,1,100,congruent,right,left,incongruent,Stim/Acon.png,left,0.1,0,90,3,2000,stimuli\\,,,,,,,,,,,,
,,,,,,,,,,zjr,1,2024-06-28_19h44.06.846,DCT_v1_online,2021.2.3,Win32,59.88023952,,,0.37,1.98,175,down,1,1.108,right,1,1.1604,2.13,0,30,30,122,1,123,incongruent,down,down,congruent,Stim/Aincon.png,down,0,-0.1,180,8,100,incongruent,left,right,incongruent,Stim/Aincon.png,right,-0.1,0,-90,6,2000,stimuli\\,,,,,,,,,,,,
,,,,,,,,,,zjr,1,2024-06-28_19h44.06.846,DCT_v1_online,2021.2.3,Win32,59.88023952,,,0.37,1.98,176,up,1,0.7419,left,1,0.7713,2.13,0,31,31,36,1,37,congruent,down,up,incongruent,Stim/Acon.png,up,0,-0.1,0,3,100,congruent,right,left,incongruent,Stim/Acon.png,left,0.1,0,90,3,2000,stimuli\\,,,,,,,,,,,,
,,,,,,,,,,zjr,1,2024-06-28_19h44.06.846,DCT_v1_online,2021.2.3,Win32,59.88023952,,,0.445,2.805,177,up,1,0.6324,right,1,0.6588,2.055,0,32,32,75,1,76,incongruent,up,up,congruent,Stim/Aincon.png,up,0,0.1,0,5,1000,incongruent,left,right,incongruent,Stim/Aincon.png,right,-0.1,0,-90,6,2000,stimuli\\,,,,,,,,,,,,
,,,,,,,,,,zjr,1,2024-06-28_19h44.06.846,DCT_v1_online,2021.2.3,Win32,59.88023952,,,0.483,1.867,178,up,1,0.9348,left,1,0.9987,2.017,0,33,33,8,1,9,congruent,up,up,congruent,Stim/Acon.png,up,0,0.1,0,1,100,incongruent,left,left,congruent,Stim/Aincon.png,left,-0.1,0,90,5,2000,stimuli\\,,,,,,,,,,,,
,,,,,,,,,,zjr,1,2024-06-28_19h44.06.846,DCT_v1_online,2021.2.3,Win32,59.88023952,,,0.117,3.133,179,down,1,0.7397,right,1,0.7074,2.383,0,34,34,127,1,128,incongruent,down,down,congruent,Stim/Aincon.png,down,0,-0.1,180,8,1000,incongruent,right,right,congruent,Stim/Aincon.png,right,0.1,0,-90,8,2000,stimuli\\,,,,,,,,,,,,
,,,,,,,,,,zjr,1,2024-06-28_19h44.06.846,DCT_v1_online,2021.2.3,Win32,59.88023952,,,0.476,2.774,180,up,1,0.7319,left,1,0.8075,2.024,0,35,35,109,1,110,incongruent,down,up,incongruent,Stim/Aincon.png,up,0,-0.1,0,7,1000,incongruent,right,left,incongruent,Stim/Aincon.png,left,0.1,0,90,7,2000,stimuli\\,,,,,,,,,,,,
,,,,,,,,,,zjr,1,2024-06-28_19h44.06.846,DCT_v1_online,2021.2.3,Win32,59.88023952,,,0.256,2.094,181,up,1,0.7667,right,1,0.8192,2.244,0,36,36,38,1,39,congruent,down,up,incongruent,Stim/Acon.png,up,0,-0.1,0,3,100,congruent,right,right,congruent,Stim/Acon.png,right,0.1,0,-90,4,2000,stimuli\\,,,,,,,,,,,,
,,,,,,,,,,zjr,1,2024-06-28_19h44.06.846,DCT_v1_online,2021.2.3,Win32,59.88023952,,,0.264,2.086,182,up,1,0.8338,right,1,0.888,2.236,0,37,37,66,1,67,incongruent,up,up,congruent,Stim/Aincon.png,up,0,0.1,0,5,100,congruent,left,right,incongruent,Stim/Acon.png,right,-0.1,0,-90,2,2000,stimuli\\,,,,,,,,,,,,
,,,,,,,,,,zjr,1,2024-06-28_19h44.06.846,DCT_v1_online,2021.2.3,Win32,59.88023952,,,0.214,2.136,183,up,1,0.5203,right,1,0.6199,2.286,0,38,38,2,1,3,congruent,up,up,congruent,Stim/Acon.png,up,0,0.1,0,1,100,congruent,left,right,incongruent,Stim/Acon.png,right,-0.1,0,-90,2,2000,stimuli\\,,,,,,,,,,,,
,,,,,,,,,,zjr,1,2024-06-28_19h44.06.846,DCT_v1_online,2021.2.3,Win32,59.88023952,,,0.335,2.915,184,up,1,0.6274,right,1,0.7076,2.165,0,39,39,43,1,44,congruent,down,up,incongruent,Stim/Acon.png,up,0,-0.1,0,3,1000,incongruent,left,right,incongruent,Stim/Aincon.png,right,-0.1,0,-90,6,2000,stimuli\\,,,,,,,,,,,,
,,,,,,,,,,zjr,1,2024-06-28_19h44.06.846,DCT_v1_online,2021.2.3,Win32,59.88023952,,,0.248,2.102,185,up,1,0.6358,right,0,0.7006,2.252,0,40,40,12,1,13,congruent,up,up,congruent,Stim/Acon.png,up,0,0.1,0,1,100,incongruent,right,left,incongruent,Stim/Aincon.png,left,0.1,0,90,7,2000,stimuli\\,,,,,,,,,,,,
,,,,,,,,,,zjr,1,2024-06-28_19h44.06.846,DCT_v1_online,2021.2.3,Win32,59.88023952,,,0.078,3.172,186,up,1,0.4707,right,1,0.6008,2.422,0,41,41,11,1,12,congruent,up,up,congruent,Stim/Acon.png,up,0,0.1,0,1,1000,incongruent,left,right,incongruent,Stim/Aincon.png,right,-0.1,0,-90,6,2000,stimuli\\,,,,,,,,,,,,
,,,,,,,,,,zjr,1,2024-06-28_19h44.06.846,DCT_v1_online,2021.2.3,Win32,59.88023952,,,0.444,2.806,187,down,1,0.8872,left,1,0.5209,2.056,0,42,42,117,1,118,incongruent,down,down,congruent,Stim/Aincon.png,down,0,-0.1,180,8,1000,congruent,right,left,incongruent,Stim/Acon.png,left,0.1,0,90,3,2000,stimuli\\,,,,,,,,,,,,
,,,,,,,,,,zjr,1,2024-06-28_19h44.06.846,DCT_v1_online,2021.2.3,Win32,59.88023952,,,0.242,2.108,188,up,1,0.5663,right,1,0.8495,2.258,0,43,43,74,1,75,incongruent,up,up,congruent,Stim/Aincon.png,up,0,0.1,0,5,100,incongruent,left,right,incongruent,Stim/Aincon.png,right,-0.1,0,-90,6,2000,stimuli\\,,,,,,,,,,,,
,,,,,,,,,,zjr,1,2024-06-28_19h44.06.846,DCT_v1_online,2021.2.3,Win32,59.88023952,,,0.316,2.034,189,down,1,0.9328,right,1,1.0337,2.184,0,44,44,126,1,127,incongruent,down,down,congruent,Stim/Aincon.png,down,0,-0.1,180,8,100,incongruent,right,right,congruent,Stim/Aincon.png,right,0.1,0,-90,8,2000,stimuli\\,,,,,,,,,,,,
,,,,,,,,,,zjr,1,2024-06-28_19h44.06.846,DCT_v1_online,2021.2.3,Win32,59.88023952,,,0.072,2.278,190,down,1,0.853,right,1,0.8858,2.428,0,45,45,22,1,23,congruent,up,down,incongruent,Stim/Acon.png,down,0,0.1,180,2,100,congruent,right,right,congruent,Stim/Acon.png,right,0.1,0,-90,4,2000,stimuli\\,,,,,,,,,,,,
,,,,,,,,,,zjr,1,2024-06-28_19h44.06.846,DCT_v1_online,2021.2.3,Win32,59.88023952,,,0.075,3.175,191,up,1,0.8915,right,1,0.678,2.425,0,46,46,111,1,112,incongruent,down,up,incongruent,Stim/Aincon.png,up,0,-0.1,0,7,1000,incongruent,right,right,congruent,Stim/Aincon.png,right,0.1,0,-90,8,2000,stimuli\\,,,,,,,,,,,,
,,,,,,,,,,zjr,1,2024-06-28_19h44.06.846,DCT_v1_online,2021.2.3,Win32,59.88023952,,,0.188,2.162,192,down,1,0.9062,left,1,1.0787,2.312,0,47,47,116,1,117,incongruent,down,down,congruent,Stim/Aincon.png,down,0,-0.1,180,8,100,congruent,right,left,incongruent,Stim/Acon.png,left,0.1,0,90,3,2000,stimuli\\,,,,,,,,,,,,
,,,,,,,,,,zjr,1,2024-06-28_19h44.06.846,DCT_v1_online,2021.2.3,Win32,59.88023952,,,0.436,1.914,193,up,1,0.7665,right,1,0.9909,2.064,0,48,48,46,1,47,congruent,down,up,incongruent,Stim/Acon.png,up,0,-0.1,0,3,100,incongruent,right,right,congruent,Stim/Aincon.png,right,0.1,0,-90,8,2000,stimuli\\,,,,,,,,,,,,
,,,,,,,,,,zjr,1,2024-06-28_19h44.06.846,DCT_v1_online,2021.2.3,Win32,59.88023952,,,0.34,2.91,194,up,1,0.4881,left,0,0.6526,2.16,0,49,49,15,1,16,congruent,up,up,congruent,Stim/Acon.png,up,0,0.1,0,1,1000,incongruent,right,right,congruent,Stim/Aincon.png,right,0.1,0,-90,8,2000,stimuli\\,,,,,,,,,,,,
,,,,,,,,,,zjr,1,2024-06-28_19h44.06.846,DCT_v1_online,2021.2.3,Win32,59.88023952,,,0.312,2.038,195,up,1,1.1664,left,1,1.2877,2.188,0,50,50,96,1,97,incongruent,down,up,incongruent,Stim/Aincon.png,up,0,-0.1,0,7,100,congruent,left,left,congruent,Stim/Acon.png,left,-0.1,0,90,1,2000,stimuli\\,,,,,,,,,,,,
,,,,,,,,,,zjr,1,2024-06-28_19h44.06.846,DCT_v1_online,2021.2.3,Win32,59.88023952,,,0.273,2.977,196,down,1,0.5518,right,1,0.6589,2.227,0,51,51,23,1,24,congruent,up,down,incongruent,Stim/Acon.png,down,0,0.1,180,2,1000,congruent,right,right,congruent,Stim/Acon.png,right,0.1,0,-90,4,2000,stimuli\\,,,,,,,,,,,,
,,,,,,,,,,zjr,1,2024-06-28_19h44.06.846,DCT_v1_online,2021.2.3,Win32,59.88023952,,,0.462,2.788,197,down,1,0.6676,right,1,0.5579,2.038,0,52,52,87,1,88,incongruent,up,down,incongruent,Stim/Aincon.png,down,0,0.1,180,6,1000,congruent,right,right,congruent,Stim/Acon.png,right,0.1,0,-90,4,2000,stimuli\\,,,,,,,,,,,,
,,,,,,,,,,zjr,1,2024-06-28_19h44.06.846,DCT_v1_online,2021.2.3,Win32,59.88023952,,,0.048,3.202,198,up,1,0.8534,left,1,0.5658,2.452,0,53,53,33,1,34,congruent,down,up,incongruent,Stim/Acon.png,up,0,-0.1,0,3,1000,congruent,left,left,congruent,Stim/Acon.png,left,-0.1,0,90,1,2000,stimuli\\,,,,,,,,,,,,
,,,,,,,,,,zjr,1,2024-06-28_19h44.06.846,DCT_v1_online,2021.2.3,Win32,59.88023952,,,0.009,3.241,199,down,1,0.6222,right,1,0.7536,2.491,0,54,54,59,1,60,congruent,down,down,congruent,Stim/Acon.png,down,0,-0.1,180,4,1000,incongruent,left,right,incongruent,Stim/Aincon.png,right,-0.1,0,-90,6,2000,stimuli\\,,,,,,,,,,,,
,,,,,,,,,,zjr,1,2024-06-28_19h44.06.846,DCT_v1_online,2021.2.3,Win32,59.88023952,,,0.123,2.227,200,down,1,0.8912,left,1,1.0231,2.377,0,55,55,60,1,61,congruent,down,down,congruent,Stim/Acon.png,down,0,-0.1,180,4,100,incongruent,right,left,incongruent,Stim/Aincon.png,left,0.1,0,90,7,2000,stimuli\\,,,,,,,,,,,,
,,,,,,,,,,zjr,1,2024-06-28_19h44.06.846,DCT_v1_online,2021.2.3,Win32,59.88023952,,,0.265,2.085,201,down,1,0.8471,right,1,0.8869,2.235,0,56,56,50,1,51,congruent,down,down,congruent,Stim/Acon.png,down,0,-0.1,180,4,100,congruent,left,right,incongruent,Stim/Acon.png,right,-0.1,0,-90,2,2000,stimuli\\,,,,,,,,,,,,
,,,,,,,,,,zjr,1,2024-06-28_19h44.06.846,DCT_v1_online,2021.2.3,Win32,59.88023952,,,0.02,2.33,202,down,1,0.9995,right,1,1.0669,2.48,0,57,57,94,1,95,incongruent,up,down,incongruent,Stim/Aincon.png,down,0,0.1,180,6,100,incongruent,right,right,congruent,Stim/Aincon.png,right,0.1,0,-90,8,2000,stimuli\\,,,,,,,,,,,,
,,,,,,,,,,zjr,1,2024-06-28_19h44.06.846,DCT_v1_online,2021.2.3,Win32,59.88023952,,,0.152,2.198,203,up,1,0.7529,right,1,0.8132,2.348,0,58,58,34,1,35,congruent,down,up,incongruent,Stim/Acon.png,up,0,-0.1,0,3,100,congruent,left,right,incongruent,Stim/Acon.png,right,-0.1,0,-90,2,2000,stimuli\\,,,,,,,,,,,,
,,,,,,,,,,zjr,1,2024-06-28_19h44.06.846,DCT_v1_online,2021.2.3,Win32,59.88023952,,,0.055,3.195,204,down,1,0.7739,right,1,0.5289,2.445,0,59,59,115,1,116,incongruent,down,down,congruent,Stim/Aincon.png,down,0,-0.1,180,8,1000,congruent,left,right,incongruent,Stim/Acon.png,right,-0.1,0,-90,2,2000,stimuli\\,,,,,,,,,,,,
,,,,,,,,,,zjr,1,2024-06-28_19h44.06.846,DCT_v1_online,2021.2.3,Win32,59.88023952,,,0.462,2.788,205,down,1,0.7856,left,1,0.8079,2.038,0,60,60,89,1,90,incongruent,up,down,incongruent,Stim/Aincon.png,down,0,0.1,180,6,1000,incongruent,left,left,congruent,Stim/Aincon.png,left,-0.1,0,90,5,2000,stimuli\\,,,,,,,,,,,,
,,,,,,,,,,zjr,1,2024-06-28_19h44.06.846,DCT_v1_online,2021.2.3,Win32,59.88023952,,,0.379,2.871,206,down,1,0.7333,right,1,0.524,2.121,0,61,61,51,1,52,congruent,down,down,congruent,Stim/Acon.png,down,0,-0.1,180,4,1000,congruent,left,right,incongruent,Stim/Acon.png,right,-0.1,0,-90,2,2000,stimuli\\,,,,,,,,,,,,
,,,,,,,,,,zjr,1,2024-06-28_19h44.06.846,DCT_v1_online,2021.2.3,Win32,59.88023952,,,0.325,2.025,207,down,1,1.0506,left,1,1.0972,2.175,0,62,62,92,1,93,incongruent,up,down,incongruent,Stim/Aincon.png,down,0,0.1,180,6,100,incongruent,right,left,incongruent,Stim/Aincon.png,left,0.1,0,90,7,2000,stimuli\\,,,,,,,,,,,,
,,,,,,,,,,zjr,1,2024-06-28_19h44.06.846,DCT_v1_online,2021.2.3,Win32,59.88023952,,,0.465,2.785,208,up,1,0.6431,right,1,0.6009,2.035,0,63,63,67,1,68,incongruent,up,up,congruent,Stim/Aincon.png,up,0,0.1,0,5,1000,congruent,left,right,incongruent,Stim/Acon.png,right,-0.1,0,-90,2,2000,stimuli\\,,,,,,,,,,,,
,,,,,,,,,,zjr,1,2024-06-28_19h44.06.846,DCT_v1_online,2021.2.3,Win32,59.88023952,,,0.187,3.063,209,up,1,0.8194,left,1,0.6239,2.313,0,64,64,105,1,106,incongruent,down,up,incongruent,Stim/Aincon.png,up,0,-0.1,0,7,1000,incongruent,left,left,congruent,Stim/Aincon.png,left,-0.1,0,90,5,2000,stimuli\\,,,,,,,,,,,,
,,,,,,,,,,zjr,1,2024-06-28_19h44.06.846,DCT_v1_online,2021.2.3,Win32,59.88023952,,,0.242,2.108,210,up,1,1.0161,right,1,1.166,2.258,0,65,65,110,1,111,incongruent,down,up,incongruent,Stim/Aincon.png,up,0,-0.1,0,7,100,incongruent,right,right,congruent,Stim/Aincon.png,right,0.1,0,-90,8,2000,stimuli\\,,,,,,,,,,,,
,,,,,,,,,,zjr,1,2024-06-28_19h44.06.846,DCT_v1_online,2021.2.3,Win32,59.88023952,,,0.005,2.345,211,up,1,1.0136,left,0,1.298,2.495,0,66,66,14,1,15,congruent,up,up,congruent,Stim/Acon.png,up,0,0.1,0,1,100,incongruent,right,right,congruent,Stim/Aincon.png,right,0.1,0,-90,8,2000,stimuli\\,,,,,,,,,,,,
,,,,,,,,,,zjr,1,2024-06-28_19h44.06.846,DCT_v1_online,2021.2.3,Win32,59.88023952,,,0.091,2.259,212,down,1,1.0164,right,1,1.0399,2.409,0,67,67,58,1,59,congruent,down,down,congruent,Stim/Acon.png,down,0,-0.1,180,4,100,incongruent,left,right,incongruent,Stim/Aincon.png,right,-0.1,0,-90,6,2000,stimuli\\,,,,,,,,,,,,
,,,,,,,,,,zjr,1,2024-06-28_19h44.06.846,DCT_v1_online,2021.2.3,Win32,59.88023952,,,0.219,2.131,213,up,1,0.9194,left,1,1.0049,2.281,0,68,68,40,1,41,congruent,down,up,incongruent,Stim/Acon.png,up,0,-0.1,0,3,100,incongruent,left,left,congruent,Stim/Aincon.png,left,-0.1,0,90,5,2000,stimuli\\,,,,,,,,,,,,
,,,,,,,,,,zjr,1,2024-06-28_19h44.06.846,DCT_v1_online,2021.2.3,Win32,59.88023952,,,0.353,2.897,214,down,1,0.7168,right,1,0.8304,2.147,0,69,69,95,1,96,incongruent,up,down,incongruent,Stim/Aincon.png,down,0,0.1,180,6,1000,incongruent,right,right,congruent,Stim/Aincon.png,right,0.1,0,-90,8,2000,stimuli\\,,,,,,,,,,,,
,,,,,,,,,,zjr,1,2024-06-28_19h44.06.846,DCT_v1_online,2021.2.3,Win32,59.88023952,,,0.075,2.275,215,down,1,0.8935,left,1,0.9532,2.425,0,70,70,16,1,17,congruent,up,down,incongruent,Stim/Acon.png,down,0,0.1,180,2,100,congruent,left,left,congruent,Stim/Acon.png,left,-0.1,0,90,1,2000,stimuli\\,,,,,,,,,,,,
,,,,,,,,,,zjr,1,2024-06-28_19h44.06.846,DCT_v1_online,2021.2.3,Win32,59.88023952,,,0.491,2.759,216,up,1,0.69,left,1,0.6983,2.009,0,71,71,41,1,42,congruent,down,up,incongruent,Stim/Acon.png,up,0,-0.1,0,3,1000,incongruent,left,left,congruent,Stim/Aincon.png,left,-0.1,0,90,5,2000,stimuli\\,,,,,,,,,,,,
,,,,,,,,,,zjr,1,2024-06-28_19h44.06.846,DCT_v1_online,2021.2.3,Win32,59.88023952,,,0.483,1.867,217,down,1,0.8584,left,1,0.9158,2.017,0,72,72,112,1,113,incongruent,down,down,congruent,Stim/Aincon.png,down,0,-0.1,180,8,100,congruent,left,left,congruent,Stim/Acon.png,left,-0.1,0,90,1,2000,stimuli\\,,,,,,,,,,,,
,,,,,,,,,,zjr,1,2024-06-28_19h44.06.846,DCT_v1_online,2021.2.3,Win32,59.88023952,,,0.023,2.327,218,down,1,0.8341,right,1,0.8931,2.477,0,73,73,118,1,119,incongruent,down,down,congruent,Stim/Aincon.png,down,0,-0.1,180,8,100,congruent,right,right,congruent,Stim/Acon.png,right,0.1,0,-90,4,2000,stimuli\\,,,,,,,,,,,,
,,,,,,,,,,zjr,1,2024-06-28_19h44.06.846,DCT_v1_online,2021.2.3,Win32,59.88023952,,,0.313,2.037,219,up,1,0.9555,right,1,1.0002,2.187,0,74,74,102,1,103,incongruent,down,up,incongruent,Stim/Aincon.png,up,0,-0.1,0,7,100,congruent,right,right,congruent,Stim/Acon.png,right,0.1,0,-90,4,2000,stimuli\\,,,,,,,,,,,,
,,,,,,,,,,zjr,1,2024-06-28_19h44.06.846,DCT_v1_online,2021.2.3,Win32,59.88023952,,,0.111,3.139,220,up,1,0.6995,right,1,0.4963,2.389,0,75,75,39,1,40,congruent,down,up,incongruent,Stim/Acon.png,up,0,-0.1,0,3,1000,congruent,right,right,congruent,Stim/Acon.png,right,0.1,0,-90,4,2000,stimuli\\,,,,,,,,,,,,
,,,,,,,,,,zjr,1,2024-06-28_19h44.06.846,DCT_v1_online,2021.2.3,Win32,59.88023952,,,0.359,2.891,221,up,1,0.7863,right,1,0.7687,2.141,0,76,76,79,1,80,incongruent,up,up,congruent,Stim/Aincon.png,up,0,0.1,0,5,1000,incongruent,right,right,congruent,Stim/Aincon.png,right,0.1,0,-90,8,2000,stimuli\\,,,,,,,,,,,,
,,,,,,,,,,zjr,1,2024-06-28_19h44.06.846,DCT_v1_online,2021.2.3,Win32,59.88023952,,,0.007,3.243,222,up,1,0.7504,right,1,0.4704,2.493,0,77,77,71,1,72,incongruent,up,up,congruent,Stim/Aincon.png,up,0,0.1,0,5,1000,congruent,right,right,congruent,Stim/Acon.png,right,0.1,0,-90,4,2000,stimuli\\,,,,,,,,,,,,
,,,,,,,,,,zjr,1,2024-06-28_19h44.06.846,DCT_v1_online,2021.2.3,Win32,59.88023952,,,0.044,3.206,223,down,1,0.856,left,1,0.82,2.456,0,78,78,121,1,122,incongruent,down,down,congruent,Stim/Aincon.png,down,0,-0.1,180,8,1000,incongruent,left,left,congruent,Stim/Aincon.png,left,-0.1,0,90,5,2000,stimuli\\,,,,,,,,,,,,
,,,,,,,,,,zjr,1,2024-06-28_19h44.06.846,DCT_v1_online,2021.2.3,Win32,59.88023952,,,0.386,1.964,224,down,1,0.7573,right,1,0.8311,2.114,0,79,79,18,1,19,congruent,up,down,incongruent,Stim/Acon.png,down,0,0.1,180,2,100,congruent,left,right,incongruent,Stim/Acon.png,right,-0.1,0,-90,2,2000,stimuli\\,,,,,,,,,,,,
,,,,,,,,,,zjr,1,2024-06-28_19h44.06.846,DCT_v1_online,2021.2.3,Win32,59.88023952,,,0.259,2.091,225,down,1,0.9238,right,1,1.0204,2.241,0,80,80,62,1,63,congruent,down,down,congruent,Stim/Acon.png,down,0,-0.1,180,4,100,incongruent,right,right,congruent,Stim/Aincon.png,right,0.1,0,-90,8,2000,stimuli\\,,,,,,,,,,,,
,,,,,,,,,,zjr,1,2024-06-28_19h44.06.846,DCT_v1_online,2021.2.3,Win32,59.88023952,,,0.158,2.192,226,down,1,0.9629,left,1,1.0668,2.342,0,81,81,80,1,81,incongruent,up,down,incongruent,Stim/Aincon.png,down,0,0.1,180,6,100,congruent,left,left,congruent,Stim/Acon.png,left,-0.1,0,90,1,2000,stimuli\\,,,,,,,,,,,,
,,,,,,,,,,zjr,1,2024-06-28_19h44.06.846,DCT_v1_online,2021.2.3,Win32,59.88023952,,,0.403,1.947,227,up,1,0.9737,left,1,1.1028,2.097,0,82,82,104,1,105,incongruent,down,up,incongruent,Stim/Aincon.png,up,0,-0.1,0,7,100,incongruent,left,left,congruent,Stim/Aincon.png,left,-0.1,0,90,5,2000,stimuli\\,,,,,,,,,,,,
,,,,,,,,,,zjr,1,2024-06-28_19h44.06.846,DCT_v1_online,2021.2.3,Win32,59.88023952,,,0.014,2.336,228,down,1,0.9031,right,1,0.9702,2.486,0,83,83,114,1,115,incongruent,down,down,congruent,Stim/Aincon.png,down,0,-0.1,180,8,100,congruent,left,right,incongruent,Stim/Acon.png,right,-0.1,0,-90,2,2000,stimuli\\,,,,,,,,,,,,
,,,,,,,,,,zjr,1,2024-06-28_19h44.06.846,DCT_v1_online,2021.2.3,Win32,59.88023952,,,0.068,3.182,229,down,1,0.5866,left,1,0.6683,2.432,0,84,84,93,1,94,incongruent,up,down,incongruent,Stim/Aincon.png,down,0,0.1,180,6,1000,incongruent,right,left,incongruent,Stim/Aincon.png,left,0.1,0,90,7,2000,stimuli\\,,,,,,,,,,,,
,,,,,,,,,,zjr,1,2024-06-28_19h44.06.846,DCT_v1_online,2021.2.3,Win32,59.88023952,,,0.044,2.306,230,up,1,0.925,right,1,0.9905,2.456,0,85,85,106,1,107,incongruent,down,up,incongruent,Stim/Aincon.png,up,0,-0.1,0,7,100,incongruent,left,right,incongruent,Stim/Aincon.png,right,-0.1,0,-90,6,2000,stimuli\\,,,,,,,,,,,,
,,,,,,,,,,zjr,1,2024-06-28_19h44.06.846,DCT_v1_online,2021.2.3,Win32,59.88023952,,,0.292,2.958,231,up,1,0.917,left,1,0.6068,2.208,0,86,86,69,1,70,incongruent,up,up,congruent,Stim/Aincon.png,up,0,0.1,0,5,1000,congruent,right,left,incongruent,Stim/Acon.png,left,0.1,0,90,3,2000,stimuli\\,,,,,,,,,,,,
,,,,,,,,,,zjr,1,2024-06-28_19h44.06.846,DCT_v1_online,2021.2.3,Win32,59.88023952,,,0.375,2.875,232,down,1,0.9185,left,1,0.7541,2.125,0,87,87,125,1,126,incongruent,down,down,congruent,Stim/Aincon.png,down,0,-0.1,180,8,1000,incongruent,right,left,incongruent,Stim/Aincon.png,left,0.1,0,90,7,2000,stimuli\\,,,,,,,,,,,,
,,,,,,,,,,zjr,1,2024-06-28_19h44.06.846,DCT_v1_online,2021.2.3,Win32,59.88023952,,,0.342,2.008,233,down,1,0.8917,right,1,0.9651,2.158,0,88,88,86,1,87,incongruent,up,down,incongruent,Stim/Aincon.png,down,0,0.1,180,6,100,congruent,right,right,congruent,Stim/Acon.png,right,0.1,0,-90,4,2000,stimuli\\,,,,,,,,,,,,
,,,,,,,,,,zjr,1,2024-06-28_19h44.06.846,DCT_v1_online,2021.2.3,Win32,59.88023952,,,0.413,1.937,234,up,1,0.6715,left,1,0.8044,2.087,0,89,89,68,1,69,incongruent,up,up,congruent,Stim/Aincon.png,up,0,0.1,0,5,100,congruent,right,left,incongruent,Stim/Acon.png,left,0.1,0,90,3,2000,stimuli\\,,,,,,,,,,,,
,,,,,,,,,,zjr,1,2024-06-28_19h44.06.846,DCT_v1_online,2021.2.3,Win32,59.88023952,,,0.226,2.124,235,up,1,0.779,left,1,0.9275,2.274,0,90,90,64,1,65,incongruent,up,up,congruent,Stim/Aincon.png,up,0,0.1,0,5,100,congruent,left,left,congruent,Stim/Acon.png,left,-0.1,0,90,1,2000,stimuli\\,,,,,,,,,,,,
,,,,,,,,,,zjr,1,2024-06-28_19h44.06.846,DCT_v1_online,2021.2.3,Win32,59.88023952,,,0.343,2.007,236,down,1,0.6355,left,1,0.7644,2.157,0,91,91,84,1,85,incongruent,up,down,incongruent,Stim/Aincon.png,down,0,0.1,180,6,100,congruent,right,left,incongruent,Stim/Acon.png,left,0.1,0,90,3,2000,stimuli\\,,,,,,,,,,,,
,,,,,,,,,,zjr,1,2024-06-28_19h44.06.846,DCT_v1_online,2021.2.3,Win32,59.88023952,,,0.071,2.279,237,up,1,0.7853,right,1,0.8977,2.429,0,92,92,78,1,79,incongruent,up,up,congruent,Stim/Aincon.png,up,0,0.1,0,5,100,incongruent,right,right,congruent,Stim/Aincon.png,right,0.1,0,-90,8,2000,stimuli\\,,,,,,,,,,,,
,,,,,,,,,,zjr,1,2024-06-28_19h44.06.846,DCT_v1_online,2021.2.3,Win32,59.88023952,,,0.371,2.879,238,up,1,0.5869,left,1,0.8543,2.129,0,93,93,73,1,74,incongruent,up,up,congruent,Stim/Aincon.png,up,0,0.1,0,5,1000,incongruent,left,left,congruent,Stim/Aincon.png,left,-0.1,0,90,5,2000,stimuli\\,,,,,,,,,,,,
,,,,,,,,,,zjr,1,2024-06-28_19h44.06.846,DCT_v1_online,2021.2.3,Win32,59.88023952,,,0.442,1.908,239,down,1,0.8002,right,1,0.8439,2.058,0,94,94,54,1,55,congruent,down,down,congruent,Stim/Acon.png,down,0,-0.1,180,4,100,congruent,right,right,congruent,Stim/Acon.png,right,0.1,0,-90,4,2000,stimuli\\,,,,,,,,,,,,
,,,,,,,,,,zjr,1,2024-06-28_19h44.06.846,DCT_v1_online,2021.2.3,Win32,59.88023952,,,0.034,3.216,240,up,1,0.9497,left,1,0.5205,2.466,0,95,95,101,1,102,incongruent,down,up,incongruent,Stim/Aincon.png,up,0,-0.1,0,7,1000,congruent,right,left,incongruent,Stim/Acon.png,left,0.1,0,90,3,2000,stimuli\\,,,,,,,,,,,,
,,,,,,,,,,zjr,1,2024-06-28_19h44.06.846,DCT_v1_online,2021.2.3,Win32,59.88023952,,,0.288,2.062,241,up,1,0.9858,left,1,1.0552,2.212,0,96,96,72,1,73,incongruent,up,up,congruent,Stim/Aincon.png,up,0,0.1,0,5,100,incongruent,left,left,congruent,Stim/Aincon.png,left,-0.1,0,90,5,2000,stimuli\\,,,,,,,,,,,,
,,,,,,,,,,zjr,1,2024-06-28_19h44.06.846,DCT_v1_online,2021.2.3,Win32,59.88023952,,,0.218,2.132,242,up,1,0.8706,right,1,0.9218,2.282,0,97,97,70,1,71,incongruent,up,up,congruent,Stim/Aincon.png,up,0,0.1,0,5,100,congruent,right,right,congruent,Stim/Acon.png,right,0.1,0,-90,4,2000,stimuli\\,,,,,,,,,,,,
,,,,,,,,,,zjr,1,2024-06-28_19h44.06.846,DCT_v1_online,2021.2.3,Win32,59.88023952,,,0.045,3.205,243,down,1,0.6499,right,1,0.6068,2.455,0,98,98,19,1,20,congruent,up,down,incongruent,Stim/Acon.png,down,0,0.1,180,2,1000,congruent,left,right,incongruent,Stim/Acon.png,right,-0.1,0,-90,2,2000,stimuli\\,,,,,,,,,,,,
,,,,,,,,,,zjr,1,2024-06-28_19h44.06.846,DCT_v1_online,2021.2.3,Win32,59.88023952,,,0.139,2.211,244,down,1,0.7999,right,1,0.8763,2.361,0,99,99,90,1,91,incongruent,up,down,incongruent,Stim/Aincon.png,down,0,0.1,180,6,100,incongruent,left,right,incongruent,Stim/Aincon.png,right,-0.1,0,-90,6,2000,stimuli\\,,,,,,,,,,,,
,,,,,,,,,,zjr,1,2024-06-28_19h44.06.846,DCT_v1_online,2021.2.3,Win32,59.88023952,,,0.032,2.318,245,down,1,0.8195,left,1,0.819,2.468,0,100,100,52,1,53,congruent,down,down,congruent,Stim/Acon.png,down,0,-0.1,180,4,100,congruent,right,left,incongruent,Stim/Acon.png,left,0.1,0,90,3,2000,stimuli\\,,,,,,,,,,,,
,,,,,,,,,,zjr,1,2024-06-28_19h44.06.846,DCT_v1_online,2021.2.3,Win32,59.88023952,,,0.313,2.937,246,down,1,0.5697,left,1,0.539,2.187,0,101,101,85,1,86,incongruent,up,down,incongruent,Stim/Aincon.png,down,0,0.1,180,6,1000,congruent,right,left,incongruent,Stim/Acon.png,left,0.1,0,90,3,2000,stimuli\\,,,,,,,,,,,,
,,,,,,,,,,zjr,1,2024-06-28_19h44.06.846,DCT_v1_online,2021.2.3,Win32,59.88023952,,,0.305,2.945,247,up,1,0.5997,left,1,0.5549,2.195,0,102,102,5,1,6,congruent,up,up,congruent,Stim/Acon.png,up,0,0.1,0,1,1000,congruent,right,left,incongruent,Stim/Acon.png,left,0.1,0,90,3,2000,stimuli\\,,,,,,,,,,,,
,,,,,,,,,,zjr,1,2024-06-28_19h44.06.846,DCT_v1_online,2021.2.3,Win32,59.88023952,,,0.025,3.225,248,down,1,0.7662,right,1,0.5171,2.475,0,103,103,119,1,120,incongruent,down,down,congruent,Stim/Aincon.png,down,0,-0.1,180,8,1000,congruent,right,right,congruent,Stim/Acon.png,right,0.1,0,-90,4,2000,stimuli\\,,,,,,,,,,,,
,,,,,,,,,,zjr,1,2024-06-28_19h44.06.846,DCT_v1_online,2021.2.3,Win32,59.88023952,,,0.146,3.104,249,up,1,0.5467,left,1,0.6583,2.354,0,104,104,13,1,14,congruent,up,up,congruent,Stim/Acon.png,up,0,0.1,0,1,1000,incongruent,right,left,incongruent,Stim/Aincon.png,left,0.1,0,90,7,2000,stimuli\\,,,,,,,,,,,,
,,,,,,,,,,zjr,1,2024-06-28_19h44.06.846,DCT_v1_online,2021.2.3,Win32,59.88023952,,,0.063,3.187,250,down,1,0.688,left,1,0.5163,2.437,0,105,105,81,1,82,incongruent,up,down,incongruent,Stim/Aincon.png,down,0,0.1,180,6,1000,congruent,left,left,congruent,Stim/Acon.png,left,-0.1,0,90,1,2000,stimuli\\,,,,,,,,,,,,
,,,,,,,,,,zjr,1,2024-06-28_19h44.06.846,DCT_v1_online,2021.2.3,Win32,59.88023952,,,0.346,2.904,251,up,1,0.772,left,1,0.5073,2.154,0,106,106,97,1,98,incongruent,down,up,incongruent,Stim/Aincon.png,up,0,-0.1,0,7,1000,congruent,left,left,congruent,Stim/Acon.png,left,-0.1,0,90,1,2000,stimuli\\,,,,,,,,,,,,
,,,,,,,,,,zjr,1,2024-06-28_19h44.06.846,DCT_v1_online,2021.2.3,Win32,59.88023952,,,0.197,2.153,252,down,1,0.7332,left,1,0.8428,2.303,0,107,107,56,1,57,congruent,down,down,congruent,Stim/Acon.png,down,0,-0.1,180,4,100,incongruent,left,left,congruent,Stim/Aincon.png,left,-0.1,0,90,5,2000,stimuli\\,,,,,,,,,,,,
,,,,,,,,,,zjr,1,2024-06-28_19h44.06.846,DCT_v1_online,2021.2.3,Win32,59.88023952,,,0.275,2.975,253,down,1,0.6175,left,1,0.4664,2.225,0,108,108,17,1,18,congruent,up,down,incongruent,Stim/Acon.png,down,0,0.1,180,2,1000,congruent,left,left,congruent,Stim/Acon.png,left,-0.1,0,90,1,2000,stimuli\\,,,,,,,,,,,,
,,,,,,,,,,zjr,1,2024-06-28_19h44.06.846,DCT_v1_online,2021.2.3,Win32,59.88023952,,,0.221,2.129,254,up,1,0.6233,right,1,0.788,2.279,0,109,109,10,1,11,congruent,up,up,congruent,Stim/Acon.png,up,0,0.1,0,1,100,incongruent,left,right,incongruent,Stim/Aincon.png,right,-0.1,0,-90,6,2000,stimuli\\,,,,,,,,,,,,
,,,,,,,,,,zjr,1,2024-06-28_19h44.06.846,DCT_v1_online,2021.2.3,Win32,59.88023952,,,0.099,3.151,255,down,1,0.5463,right,1,0.6475,2.401,0,110,110,27,1,28,congruent,up,down,incongruent,Stim/Acon.png,down,0,0.1,180,2,1000,incongruent,left,right,incongruent,Stim/Aincon.png,right,-0.1,0,-90,6,2000,stimuli\\,,,,,,,,,,,,
,,,,,,,,,,zjr,1,2024-06-28_19h44.06.846,DCT_v1_online,2021.2.3,Win32,59.88023952,,,0.064,3.186,256,down,1,0.6255,right,0,0.4913,2.436,0,111,111,61,1,62,congruent,down,down,congruent,Stim/Acon.png,down,0,-0.1,180,4,1000,incongruent,right,left,incongruent,Stim/Aincon.png,left,0.1,0,90,7,2000,stimuli\\,,,,,,,,,,,,
,,,,,,,,,,zjr,1,2024-06-28_19h44.06.846,DCT_v1_online,2021.2.3,Win32,59.88023952,,,0.396,1.954,257,up,1,1.0047,left,1,1.078,2.104,0,112,112,100,1,101,incongruent,down,up,incongruent,Stim/Aincon.png,up,0,-0.1,0,7,100,congruent,right,left,incongruent,Stim/Acon.png,left,0.1,0,90,3,2000,stimuli\\,,,,,,,,,,,,
,,,,,,,,,,zjr,1,2024-06-28_19h44.06.846,DCT_v1_online,2021.2.3,Win32,59.88023952,,,0.127,3.123,258,down,1,0.6358,right,1,0.5675,2.373,0,113,113,83,1,84,incongruent,up,down,incongruent,Stim/Aincon.png,down,0,0.1,180,6,1000,congruent,left,right,incongruent,Stim/Acon.png,right,-0.1,0,-90,2,2000,stimuli\\,,,,,,,,,,,,
,,,,,,,,,,zjr,1,2024-06-28_19h44.06.846,DCT_v1_online,2021.2.3,Win32,59.88023952,,,0.355,1.995,259,down,1,0.6229,right,1,0.8046,2.145,0,114,114,26,1,27,congruent,up,down,incongruent,Stim/Acon.png,down,0,0.1,180,2,100,incongruent,left,right,incongruent,Stim/Aincon.png,right,-0.1,0,-90,6,2000,stimuli\\,,,,,,,,,,,,
,,,,,,,,,,zjr,1,2024-06-28_19h44.06.846,DCT_v1_online,2021.2.3,Win32,59.88023952,,,0.205,3.045,260,down,1,0.6389,left,1,0.5413,2.295,0,115,115,53,1,54,congruent,down,down,congruent,Stim/Acon.png,down,0,-0.1,180,4,1000,congruent,right,left,incongruent,Stim/Acon.png,left,0.1,0,90,3,2000,stimuli\\,,,,,,,,,,,,
,,,,,,,,,,zjr,1,2024-06-28_19h44.06.846,DCT_v1_online,2021.2.3,Win32,59.88023952,,,0.18,3.07,261,up,1,0.6686,right,1,0.5506,2.32,0,116,116,35,1,36,congruent,down,up,incongruent,Stim/Acon.png,up,0,-0.1,0,3,1000,congruent,left,right,incongruent,Stim/Acon.png,right,-0.1,0,-90,2,2000,stimuli\\,,,,,,,,,,,,
,,,,,,,,,,zjr,1,2024-06-28_19h44.06.846,DCT_v1_online,2021.2.3,Win32,59.88023952,,,0.163,3.087,262,down,0,0.6212,right,1,0.5853,2.337,0,117,117,107,1,108,incongruent,down,up,incongruent,Stim/Aincon.png,up,0,-0.1,0,7,1000,incongruent,left,right,incongruent,Stim/Aincon.png,right,-0.1,0,-90,6,2000,stimuli\\,,,,,,,,,,,,
,,,,,,,,,,zjr,1,2024-06-28_19h44.06.846,DCT_v1_online,2021.2.3,Win32,59.88023952,,,0.405,1.945,263,down,1,0.9776,left,1,1.0412,2.095,0,118,118,120,1,121,incongruent,down,down,congruent,Stim/Aincon.png,down,0,-0.1,180,8,100,incongruent,left,left,congruent,Stim/Aincon.png,left,-0.1,0,90,5,2000,stimuli\\,,,,,,,,,,,,
,,,,,,,,,,zjr,1,2024-06-28_19h44.06.846,DCT_v1_online,2021.2.3,Win32,59.88023952,,,0.423,2.827,264,down,1,0.9121,left,1,0.5636,2.077,0,119,119,113,1,114,incongruent,down,down,congruent,Stim/Aincon.png,down,0,-0.1,180,8,1000,congruent,left,left,congruent,Stim/Acon.png,left,-0.1,0,90,1,2000,stimuli\\,,,,,,,,,,,,
,,,,,,,,,,zjr,1,2024-06-28_19h44.06.846,DCT_v1_online,2021.2.3,Win32,59.88023952,,,0.425,2.825,265,up,1,0.7208,left,1,0.5507,2.075,0,120,120,65,1,66,incongruent,up,up,congruent,Stim/Aincon.png,up,0,0.1,0,5,1000,congruent,left,left,congruent,Stim/Acon.png,left,-0.1,0,90,1,2000,stimuli\\,,,,,,,,,,,,
,,,,,,,,,,zjr,1,2024-06-28_19h44.06.846,DCT_v1_online,2021.2.3,Win32,59.88023952,,,0.191,2.159,266,up,1,1.0825,right,1,1.1359,2.309,0,121,121,98,1,99,incongruent,down,up,incongruent,Stim/Aincon.png,up,0,-0.1,0,7,100,congruent,left,right,incongruent,Stim/Acon.png,right,-0.1,0,-90,2,2000,stimuli\\,,,,,,,,,,,,
,,,,,,,,,,zjr,1,2024-06-28_19h44.06.846,DCT_v1_online,2021.2.3,Win32,59.88023952,,,0.496,2.754,267,up,1,0.7695,right,1,0.8255,2.004,0,122,122,47,1,48,congruent,down,up,incongruent,Stim/Acon.png,up,0,-0.1,0,3,1000,incongruent,right,right,congruent,Stim/Aincon.png,right,0.1,0,-90,8,2000,stimuli\\,,,,,,,,,,,,
,,,,,,,,,,zjr,1,2024-06-28_19h44.06.846,DCT_v1_online,2021.2.3,Win32,59.88023952,,,0.182,3.068,268,up,1,0.8079,right,1,0.6512,2.318,0,123,123,103,1,104,incongruent,down,up,incongruent,Stim/Aincon.png,up,0,-0.1,0,7,1000,congruent,right,right,congruent,Stim/Acon.png,right,0.1,0,-90,4,2000,stimuli\\,,,,,,,,,,,,
,,,,,,,,,,zjr,1,2024-06-28_19h44.06.846,DCT_v1_online,2021.2.3,Win32,59.88023952,,,0.253,2.997,269,up,1,0.637,left,1,0.6667,2.247,0,124,124,45,1,46,congruent,down,up,incongruent,Stim/Acon.png,up,0,-0.1,0,3,1000,incongruent,right,left,incongruent,Stim/Aincon.png,left,0.1,0,90,7,2000,stimuli\\,,,,,,,,,,,,
,,,,,,,,,,zjr,1,2024-06-28_19h44.06.846,DCT_v1_online,2021.2.3,Win32,59.88023952,,,0.377,2.873,270,up,1,0.6663,right,1,0.6196,2.123,0,125,125,7,1,8,congruent,up,up,congruent,Stim/Acon.png,up,0,0.1,0,1,1000,congruent,right,right,congruent,Stim/Acon.png,right,0.1,0,-90,4,2000,stimuli\\,,,,,,,,,,,,
,,,,,,,,,,zjr,1,2024-06-28_19h44.06.846,DCT_v1_online,2021.2.3,Win32,59.88023952,,,0.069,3.181,271,down,1,0.6257,left,1,0.5162,2.431,0,126,126,21,1,22,congruent,up,down,incongruent,Stim/Acon.png,down,0,0.1,180,2,1000,congruent,right,left,incongruent,Stim/Acon.png,left,0.1,0,90,3,2000,stimuli\\,,,,,,,,,,,,
,,,,,,,,,,zjr,1,2024-06-28_19h44.06.846,DCT_v1_online,2021.2.3,Win32,59.88023952,,,0.361,2.889,272,down,1,0.6017,right,1,0.8326,2.139,0,127,127,31,1,32,congruent,up,down,incongruent,Stim/Acon.png,down,0,0.1,180,2,1000,incongruent,right,right,congruent,Stim/Aincon.png,right,0.1,0,-90,8,2000,stimuli\\,,,,,,,,,,,,
,,,,,,,,,,zjr,1,2024-06-28_19h44.06.846,DCT_v1_online,2021.2.3,Win32,59.88023952,,,,,,,,,,,,,,,,,,,,,,,,,,,,,,,,,,,,,,,,,,space,11.0134,0,2,2,2,1,Instructions/i6.png,test,conditions/block1.xlsx,1.2,0.5
,,,,,,,,,,zjr,1,2024-06-28_19h44.06.846,DCT_v1_online,2021.2.3,Win32,59.88023952,space,1.7976,0.096,3.154,273,up,1,0.7212,right,1,0.564,2.404,0,0,0,75,1,76,incongruent,up,up,congruent,Stim/Aincon.png,up,0,0.1,0,5,1000,incongruent,left,right,incongruent,Stim/Aincon.png,right,-0.1,0,-90,6,2000,stimuli\\,,,,,,,,,,,,
,,,,,,,,,,zjr,1,2024-06-28_19h44.06.846,DCT_v1_online,2021.2.3,Win32,59.88023952,,,0.498,2.752,274,up,1,0.9384,right,1,0.5562,2.002,0,1,1,99,1,100,incongruent,down,up,incongruent,Stim/Aincon.png,up,0,-0.1,0,7,1000,congruent,left,right,incongruent,Stim/Acon.png,right,-0.1,0,-90,2,2000,stimuli\\,,,,,,,,,,,,
,,,,,,,,,,zjr,1,2024-06-28_19h44.06.846,DCT_v1_online,2021.2.3,Win32,59.88023952,,,0.118,3.132,275,up,1,0.605,left,1,0.5331,2.382,0,2,2,65,1,66,incongruent,up,up,congruent,Stim/Aincon.png,up,0,0.1,0,5,1000,congruent,left,left,congruent,Stim/Acon.png,left,-0.1,0,90,1,2000,stimuli\\,,,,,,,,,,,,
,,,,,,,,,,zjr,1,2024-06-28_19h44.06.846,DCT_v1_online,2021.2.3,Win32,59.88023952,,,0.484,2.766,276,down,1,0.6568,right,1,0.6251,2.016,0,3,3,59,1,60,congruent,down,down,congruent,Stim/Acon.png,down,0,-0.1,180,4,1000,incongruent,left,right,incongruent,Stim/Aincon.png,right,-0.1,0,-90,6,2000,stimuli\\,,,,,,,,,,,,
,,,,,,,,,,zjr,1,2024-06-28_19h44.06.846,DCT_v1_online,2021.2.3,Win32,59.88023952,,,0.398,2.852,277,down,1,0.5688,right,1,0.5028,2.102,0,4,4,51,1,52,congruent,down,down,congruent,Stim/Acon.png,down,0,-0.1,180,4,1000,congruent,left,right,incongruent,Stim/Acon.png,right,-0.1,0,-90,2,2000,stimuli\\,,,,,,,,,,,,
,,,,,,,,,,zjr,1,2024-06-28_19h44.06.846,DCT_v1_online,2021.2.3,Win32,59.88023952,,,0.239,3.011,278,up,0,0.4711,left,1,0.6391,2.261,0,5,5,89,1,90,incongruent,up,down,incongruent,Stim/Aincon.png,down,0,0.1,180,6,1000,incongruent,left,left,congruent,Stim/Aincon.png,left,-0.1,0,90,5,2000,stimuli\\,,,,,,,,,,,,
,,,,,,,,,,zjr,1,2024-06-28_19h44.06.846,DCT_v1_online,2021.2.3,Win32,59.88023952,,,0.399,2.851,279,up,1,0.6693,left,1,0.8722,2.101,0,6,6,73,1,74,incongruent,up,up,congruent,Stim/Aincon.png,up,0,0.1,0,5,1000,incongruent,left,left,congruent,Stim/Aincon.png,left,-0.1,0,90,5,2000,stimuli\\,,,,,,,,,,,,
,,,,,,,,,,zjr,1,2024-06-28_19h44.06.846,DCT_v1_online,2021.2.3,Win32,59.88023952,,,0.318,2.032,280,up,1,0.7974,right,1,0.8665,2.182,0,7,7,74,1,75,incongruent,up,up,congruent,Stim/Aincon.png,up,0,0.1,0,5,100,incongruent,left,right,incongruent,Stim/Aincon.png,right,-0.1,0,-90,6,2000,stimuli\\,,,,,,,,,,,,
,,,,,,,,,,zjr,1,2024-06-28_19h44.06.846,DCT_v1_online,2021.2.3,Win32,59.88023952,,,0.227,3.023,281,up,1,0.5586,left,1,0.8,2.273,0,8,8,13,1,14,congruent,up,up,congruent,Stim/Acon.png,up,0,0.1,0,1,1000,incongruent,right,left,incongruent,Stim/Aincon.png,left,0.1,0,90,7,2000,stimuli\\,,,,,,,,,,,,
,,,,,,,,,,zjr,1,2024-06-28_19h44.06.846,DCT_v1_online,2021.2.3,Win32,59.88023952,,,0.158,2.192,282,down,1,0.8304,right,1,0.8831,2.342,0,9,9,86,1,87,incongruent,up,down,incongruent,Stim/Aincon.png,down,0,0.1,180,6,100,congruent,right,right,congruent,Stim/Acon.png,right,0.1,0,-90,4,2000,stimuli\\,,,,,,,,,,,,
,,,,,,,,,,zjr,1,2024-06-28_19h44.06.846,DCT_v1_online,2021.2.3,Win32,59.88023952,,,0.17,3.08,283,down,1,0.6735,left,1,0.6603,2.33,0,10,10,53,1,54,congruent,down,down,congruent,Stim/Acon.png,down,0,-0.1,180,4,1000,congruent,right,left,incongruent,Stim/Acon.png,left,0.1,0,90,3,2000,stimuli\\,,,,,,,,,,,,
,,,,,,,,,,zjr,1,2024-06-28_19h44.06.846,DCT_v1_online,2021.2.3,Win32,59.88023952,,,0.234,2.116,284,down,1,0.7544,right,1,1.0172,2.266,0,11,11,26,1,27,congruent,up,down,incongruent,Stim/Acon.png,down,0,0.1,180,2,100,incongruent,left,right,incongruent,Stim/Aincon.png,right,-0.1,0,-90,6,2000,stimuli\\,,,,,,,,,,,,
,,,,,,,,,,zjr,1,2024-06-28_19h44.06.846,DCT_v1_online,2021.2.3,Win32,59.88023952,,,0.486,2.764,285,down,1,0.6549,right,1,0.6041,2.014,0,12,12,55,1,56,congruent,down,down,congruent,Stim/Acon.png,down,0,-0.1,180,4,1000,congruent,right,right,congruent,Stim/Acon.png,right,0.1,0,-90,4,2000,stimuli\\,,,,,,,,,,,,
,,,,,,,,,,zjr,1,2024-06-28_19h44.06.846,DCT_v1_online,2021.2.3,Win32,59.88023952,,,0.361,1.989,286,down,1,0.6334,left,1,0.6835,2.139,0,13,13,16,1,17,congruent,up,down,incongruent,Stim/Acon.png,down,0,0.1,180,2,100,congruent,left,left,congruent,Stim/Acon.png,left,-0.1,0,90,1,2000,stimuli\\,,,,,,,,,,,,
,,,,,,,,,,zjr,1,2024-06-28_19h44.06.846,DCT_v1_online,2021.2.3,Win32,59.88023952,,,0.027,2.323,287,up,1,0.5126,right,0,0.5737,2.473,0,14,14,12,1,13,congruent,up,up,congruent,Stim/Acon.png,up,0,0.1,0,1,100,incongruent,right,left,incongruent,Stim/Aincon.png,left,0.1,0,90,7,2000,stimuli\\,,,,,,,,,,,,
,,,,,,,,,,zjr,1,2024-06-28_19h44.06.846,DCT_v1_online,2021.2.3,Win32,59.88023952,,,0.433,2.817,288,down,1,0.852,left,1,0.5233,2.067,0,15,15,117,1,118,incongruent,down,down,congruent,Stim/Aincon.png,down,0,-0.1,180,8,1000,congruent,right,left,incongruent,Stim/Acon.png,left,0.1,0,90,3,2000,stimuli\\,,,,,,,,,,,,
,,,,,,,,,,zjr,1,2024-06-28_19h44.06.846,DCT_v1_online,2021.2.3,Win32,59.88023952,,,0.497,1.853,289,down,1,0.7911,left,1,0.9077,2.003,0,16,16,60,1,61,congruent,down,down,congruent,Stim/Acon.png,down,0,-0.1,180,4,100,incongruent,right,left,incongruent,Stim/Aincon.png,left,0.1,0,90,7,2000,stimuli\\,,,,,,,,,,,,
,,,,,,,,,,zjr,1,2024-06-28_19h44.06.846,DCT_v1_online,2021.2.3,Win32,59.88023952,,,0.086,3.164,290,down,0,0.5617,right,1,0.8011,2.414,0,17,17,79,1,80,incongruent,up,up,congruent,Stim/Aincon.png,up,0,0.1,0,5,1000,incongruent,right,right,congruent,Stim/Aincon.png,right,0.1,0,-90,8,2000,stimuli\\,,,,,,,,,,,,
,,,,,,,,,,zjr,1,2024-06-28_19h44.06.846,DCT_v1_online,2021.2.3,Win32,59.88023952,,,0.388,2.862,291,up,1,0.5841,left,1,0.6071,2.112,0,18,18,5,1,6,congruent,up,up,congruent,Stim/Acon.png,up,0,0.1,0,1,1000,congruent,right,left,incongruent,Stim/Acon.png,left,0.1,0,90,3,2000,stimuli\\,,,,,,,,,,,,
,,,,,,,,,,zjr,1,2024-06-28_19h44.06.846,DCT_v1_online,2021.2.3,Win32,59.88023952,,,0.216,3.034,292,down,1,0.7852,left,1,1.0004,2.284,0,19,19,121,1,122,incongruent,down,down,congruent,Stim/Aincon.png,down,0,-0.1,180,8,1000,incongruent,left,left,congruent,Stim/Aincon.png,left,-0.1,0,90,5,2000,stimuli\\,,,,,,,,,,,,
,,,,,,,,,,zjr,1,2024-06-28_19h44.06.846,DCT_v1_online,2021.2.3,Win32,59.88023952,,,0.071,2.279,293,down,1,0.7196,right,1,0.7524,2.429,0,20,20,18,1,19,congruent,up,down,incongruent,Stim/Acon.png,down,0,0.1,180,2,100,congruent,left,right,incongruent,Stim/Acon.png,right,-0.1,0,-90,2,2000,stimuli\\,,,,,,,,,,,,
,,,,,,,,,,zjr,1,2024-06-28_19h44.06.846,DCT_v1_online,2021.2.3,Win32,59.88023952,,,0.094,2.256,294,down,1,0.8543,right,1,0.9116,2.406,0,21,21,90,1,91,incongruent,up,down,incongruent,Stim/Aincon.png,down,0,0.1,180,6,100,incongruent,left,right,incongruent,Stim/Aincon.png,right,-0.1,0,-90,6,2000,stimuli\\,,,,,,,,,,,,
,,,,,,,,,,zjr,1,2024-06-28_19h44.06.846,DCT_v1_online,2021.2.3,Win32,59.88023952,,,0.295,2.055,295,up,1,0.896,right,1,0.9547,2.205,0,22,22,102,1,103,incongruent,down,up,incongruent,Stim/Aincon.png,up,0,-0.1,0,7,100,congruent,right,right,congruent,Stim/Acon.png,right,0.1,0,-90,4,2000,stimuli\\,,,,,,,,,,,,
,,,,,,,,,,zjr,1,2024-06-28_19h44.06.846,DCT_v1_online,2021.2.3,Win32,59.88023952,,,0.141,2.209,296,down,1,0.8162,right,1,0.8703,2.359,0,23,23,118,1,119,incongruent,down,down,congruent,Stim/Aincon.png,down,0,-0.1,180,8,100,congruent,right,right,congruent,Stim/Acon.png,right,0.1,0,-90,4,2000,stimuli\\,,,,,,,,,,,,
,,,,,,,,,,zjr,1,2024-06-28_19h44.06.846,DCT_v1_online,2021.2.3,Win32,59.88023952,,,0.493,2.757,297,up,1,0.6786,left,1,0.7082,2.007,0,24,24,9,1,10,congruent,up,up,congruent,Stim/Acon.png,up,0,0.1,0,1,1000,incongruent,left,left,congruent,Stim/Aincon.png,left,-0.1,0,90,5,2000,stimuli\\,,,,,,,,,,,,
,,,,,,,,,,zjr,1,2024-06-28_19h44.06.846,DCT_v1_online,2021.2.3,Win32,59.88023952,,,0.11,3.14,298,up,1,0.7014,right,1,0.7556,2.39,0,25,25,111,1,112,incongruent,down,up,incongruent,Stim/Aincon.png,up,0,-0.1,0,7,1000,incongruent,right,right,congruent,Stim/Aincon.png,right,0.1,0,-90,8,2000,stimuli\\,,,,,,,,,,,,
,,,,,,,,,,zjr,1,2024-06-28_19h44.06.846,DCT_v1_online,2021.2.3,Win32,59.88023952,,,0.459,1.891,299,up,1,0.9025,right,1,0.9859,2.041,0,26,26,106,1,107,incongruent,down,up,incongruent,Stim/Aincon.png,up,0,-0.1,0,7,100,incongruent,left,right,incongruent,Stim/Aincon.png,right,-0.1,0,-90,6,2000,stimuli\\,,,,,,,,,,,,
,,,,,,,,,,zjr,1,2024-06-28_19h44.06.846,DCT_v1_online,2021.2.3,Win32,59.88023952,,,0.492,2.758,300,up,1,0.6498,left,0,0.5732,2.008,0,27,27,15,1,16,congruent,up,up,congruent,Stim/Acon.png,up,0,0.1,0,1,1000,incongruent,right,right,congruent,Stim/Aincon.png,right,0.1,0,-90,8,2000,stimuli\\,,,,,,,,,,,,
,,,,,,,,,,zjr,1,2024-06-28_19h44.06.846,DCT_v1_online,2021.2.3,Win32,59.88023952,,,0.413,1.937,301,down,1,0.8031,right,0,0.8668,2.087,0,28,28,84,1,85,incongruent,up,down,incongruent,Stim/Aincon.png,down,0,0.1,180,6,100,congruent,right,left,incongruent,Stim/Acon.png,left,0.1,0,90,3,2000,stimuli\\,,,,,,,,,,,,
,,,,,,,,,,zjr,1,2024-06-28_19h44.06.846,DCT_v1_online,2021.2.3,Win32,59.88023952,,,0.189,2.161,302,up,1,0.4681,left,1,0.9041,2.311,0,29,29,4,1,5,congruent,up,up,congruent,Stim/Acon.png,up,0,0.1,0,1,100,congruent,right,left,incongruent,Stim/Acon.png,left,0.1,0,90,3,2000,stimuli\\,,,,,,,,,,,,
,,,,,,,,,,zjr,1,2024-06-28_19h44.06.846,DCT_v1_online,2021.2.3,Win32,59.88023952,,,0.318,2.932,303,up,1,0.7198,left,1,0.5337,2.182,0,30,30,97,1,98,incongruent,down,up,incongruent,Stim/Aincon.png,up,0,-0.1,0,7,1000,congruent,left,left,congruent,Stim/Acon.png,left,-0.1,0,90,1,2000,stimuli\\,,,,,,,,,,,,
,,,,,,,,,,zjr,1,2024-06-28_19h44.06.846,DCT_v1_online,2021.2.3,Win32,59.88023952,,,0.007,3.243,304,up,1,0.5799,left,1,0.4176,2.493,0,31,31,33,1,34,congruent,down,up,incongruent,Stim/Acon.png,up,0,-0.1,0,3,1000,congruent,left,left,congruent,Stim/Acon.png,left,-0.1,0,90,1,2000,stimuli\\,,,,,,,,,,,,
,,,,,,,,,,zjr,1,2024-06-28_19h44.06.846,DCT_v1_online,2021.2.3,Win32,59.88023952,,,0.452,2.798,305,up,0,0.5644,left,1,0.7698,2.048,0,32,32,125,1,126,incongruent,down,down,congruent,Stim/Aincon.png,down,0,-0.1,180,8,1000,incongruent,right,left,incongruent,Stim/Aincon.png,left,0.1,0,90,7,2000,stimuli\\,,,,,,,,,,,,
,,,,,,,,,,zjr,1,2024-06-28_19h44.06.846,DCT_v1_online,2021.2.3,Win32,59.88023952,,,0.251,2.099,306,up,1,0.9539,left,1,0.9791,2.249,0,33,33,76,1,77,incongruent,up,up,congruent,Stim/Aincon.png,up,0,0.1,0,5,100,incongruent,right,left,incongruent,Stim/Aincon.png,left,0.1,0,90,7,2000,stimuli\\,,,,,,,,,,,,
,,,,,,,,,,zjr,1,2024-06-28_19h44.06.846,DCT_v1_online,2021.2.3,Win32,59.88023952,,,0.187,3.063,307,up,1,0.6401,right,1,0.6035,2.313,0,34,34,35,1,36,congruent,down,up,incongruent,Stim/Acon.png,up,0,-0.1,0,3,1000,congruent,left,right,incongruent,Stim/Acon.png,right,-0.1,0,-90,2,2000,stimuli\\,,,,,,,,,,,,
,,,,,,,,,,zjr,1,2024-06-28_19h44.06.846,DCT_v1_online,2021.2.3,Win32,59.88023952,,,0.425,1.925,308,down,1,0.8181,left,1,0.8364,2.075,0,35,35,112,1,113,incongruent,down,down,congruent,Stim/Aincon.png,down,0,-0.1,180,8,100,congruent,left,left,congruent,Stim/Acon.png,left,-0.1,0,90,1,2000,stimuli\\,,,,,,,,,,,,
,,,,,,,,,,zjr,1,2024-06-28_19h44.06.846,DCT_v1_online,2021.2.3,Win32,59.88023952,,,0.127,3.123,309,down,1,0.7504,left,1,0.4424,2.373,0,36,36,17,1,18,congruent,up,down,incongruent,Stim/Acon.png,down,0,0.1,180,2,1000,congruent,left,left,congruent,Stim/Acon.png,left,-0.1,0,90,1,2000,stimuli\\,,,,,,,,,,,,
,,,,,,,,,,zjr,1,2024-06-28_19h44.06.846,DCT_v1_online,2021.2.3,Win32,59.88023952,,,0.308,2.042,310,down,1,1.0493,right,1,1.2054,2.192,0,37,37,122,1,123,incongruent,down,down,congruent,Stim/Aincon.png,down,0,-0.1,180,8,100,incongruent,left,right,incongruent,Stim/Aincon.png,right,-0.1,0,-90,6,2000,stimuli\\,,,,,,,,,,,,
,,,,,,,,,,zjr,1,2024-06-28_19h44.06.846,DCT_v1_online,2021.2.3,Win32,59.88023952,,,0.012,3.238,311,up,1,0.5498,right,1,0.467,2.488,0,38,38,39,1,40,congruent,down,up,incongruent,Stim/Acon.png,up,0,-0.1,0,3,1000,congruent,right,right,congruent,Stim/Acon.png,right,0.1,0,-90,4,2000,stimuli\\,,,,,,,,,,,,
,,,,,,,,,,zjr,1,2024-06-28_19h44.06.846,DCT_v1_online,2021.2.3,Win32,59.88023952,,,0.495,1.855,312,up,1,0.9141,left,1,0.9283,2.005,0,39,39,72,1,73,incongruent,up,up,congruent,Stim/Aincon.png,up,0,0.1,0,5,100,incongruent,left,left,congruent,Stim/Aincon.png,left,-0.1,0,90,5,2000,stimuli\\,,,,,,,,,,,,
,,,,,,,,,,zjr,1,2024-06-28_19h44.06.846,DCT_v1_online,2021.2.3,Win32,59.88023952,,,0.23,3.02,313,down,1,0.6826,left,1,0.5921,2.27,0,40,40,49,1,50,congruent,down,down,congruent,Stim/Acon.png,down,0,-0.1,180,4,1000,congruent,left,left,congruent,Stim/Acon.png,left,-0.1,0,90,1,2000,stimuli\\,,,,,,,,,,,,
,,,,,,,,,,zjr,1,2024-06-28_19h44.06.846,DCT_v1_online,2021.2.3,Win32,59.88023952,,,0.213,2.137,314,up,1,0.9499,left,1,1.0657,2.287,0,41,41,40,1,41,congruent,down,up,incongruent,Stim/Acon.png,up,0,-0.1,0,3,100,incongruent,left,left,congruent,Stim/Aincon.png,left,-0.1,0,90,5,2000,stimuli\\,,,,,,,,,,,,
,,,,,,,,,,zjr,1,2024-06-28_19h44.06.846,DCT_v1_online,2021.2.3,Win32,59.88023952,,,0.104,3.146,315,up,1,0.8132,right,1,0.5829,2.396,0,42,42,107,1,108,incongruent,down,up,incongruent,Stim/Aincon.png,up,0,-0.1,0,7,1000,incongruent,left,right,incongruent,Stim/Aincon.png,right,-0.1,0,-90,6,2000,stimuli\\,,,,,,,,,,,,
,,,,,,,,,,zjr,1,2024-06-28_19h44.06.846,DCT_v1_online,2021.2.3,Win32,59.88023952,,,0.4,1.95,316,down,1,0.8226,right,1,0.9678,2.1,0,43,43,54,1,55,congruent,down,down,congruent,Stim/Acon.png,down,0,-0.1,180,4,100,congruent,right,right,congruent,Stim/Acon.png,right,0.1,0,-90,4,2000,stimuli\\,,,,,,,,,,,,
,,,,,,,,,,zjr,1,2024-06-28_19h44.06.846,DCT_v1_online,2021.2.3,Win32,59.88023952,,,0.22,3.03,317,down,1,0.5902,right,1,0.803,2.28,0,44,44,31,1,32,congruent,up,down,incongruent,Stim/Acon.png,down,0,0.1,180,2,1000,incongruent,right,right,congruent,Stim/Aincon.png,right,0.1,0,-90,8,2000,stimuli\\,,,,,,,,,,,,
,,,,,,,,,,zjr,1,2024-06-28_19h44.06.846,DCT_v1_online,2021.2.3,Win32,59.88023952,,,0.015,3.235,318,up,1,0.4694,right,1,0.4889,2.485,0,45,45,7,1,8,congruent,up,up,congruent,Stim/Acon.png,up,0,0.1,0,1,1000,congruent,right,right,congruent,Stim/Acon.png,right,0.1,0,-90,4,2000,stimuli\\,,,,,,,,,,,,
,,,,,,,,,,zjr,1,2024-06-28_19h44.06.846,DCT_v1_online,2021.2.3,Win32,59.88023952,,,0.055,2.295,319,up,1,0.8496,right,1,0.8665,2.445,0,46,46,2,1,3,congruent,up,up,congruent,Stim/Acon.png,up,0,0.1,0,1,100,congruent,left,right,incongruent,Stim/Acon.png,right,-0.1,0,-90,2,2000,stimuli\\,,,,,,,,,,,,
,,,,,,,,,,zjr,1,2024-06-28_19h44.06.846,DCT_v1_online,2021.2.3,Win32,59.88023952,,,0.001,3.249,320,up,1,0.42,left,1,0.5375,2.499,0,47,47,1,1,2,congruent,up,up,congruent,Stim/Acon.png,up,0,0.1,0,1,1000,congruent,left,left,congruent,Stim/Acon.png,left,-0.1,0,90,1,2000,stimuli\\,,,,,,,,,,,,
