﻿key_resp.keys,key_resp.rt,trials_2.thisRepN,trials_2.thisTrialN,trials_2.thisN,trials_2.thisIndex,trials_2.ran,stim_ins,size_insrx,size_insry,name,session,date,expName,psychopyVersion,OS,frameRate,key_resp_2.keys,key_resp_2.rt,注视点1,试次呈现时间+注视点2,count,key_resp_T1.keys,key_resp_T1.corr,key_resp_T2.keys,key_resp_T2.corr,trials.thisRepN,trials.thisTrialN,trials.thisN,trials.thisIndex,trials.ran,TrialNumber,FlankerConditionT1,LocationT1,DirectionT1,LocationConditionT1,ImageT1,CorrectAnswerT1,PositionT1x,PositionT1y,anglefilpT1,ConditionT1,IntervalT1toT2,FlankerConditionT2,LocationT2,DirectionT2,LocationConditionT2,ImageT2,CorrectAnswerT2,PositionT2x,PositionT2y,anglefilpT2,ConditionT2,DurationFixation,TargetFilePath,key_resp_T1.rt,key_resp_T2.rt,注视点2,key_resp_3.keys,key_resp_3.rt,trials_3.thisRepN,trials_3.thisTrialN,trials_3.thisN,trials_3.thisIndex,trials_3.ran,instr_p_t,block_type,cond,size_p_tx,size_p_ty
space,5.8247,0,0,0,0,1,Instructions/i1.png,1,0.4,ssf,1,2024-06-28_16h13.45.416,DCT_v1_online,2021.2.3,Win32,60.24096386,,,,,,,,,,,,,,,,,,,,,,,,,,,,,,,,,,,,,,,,,,,,,,,,,,,,,
space,9.7184,0,1,1,1,1,Instructions/i2.png,1.4,0.85,ssf,1,2024-06-28_16h13.45.416,DCT_v1_online,2021.2.3,Win32,60.24096386,,,,,,,,,,,,,,,,,,,,,,,,,,,,,,,,,,,,,,,,,,,,,,,,,,,,,
space,43.2258,0,2,2,2,1,Instructions/i3.png,1.2,0.85,ssf,1,2024-06-28_16h13.45.416,DCT_v1_online,2021.2.3,Win32,60.24096386,,,,,,,,,,,,,,,,,,,,,,,,,,,,,,,,,,,,,,,,,,,,,,,,,,,,,
,,,,,,,,,,ssf,1,2024-06-28_16h13.45.416,DCT_v1_online,2021.2.3,Win32,60.24096386,space,10.0392,0.07,2.28,1,,0,,0,0,0,0,10,1,81,incongruent,up,down,incongruent,Stim/Aincon.png,down,0,0.1,180,6,100,congruent,left,right,congruent,Stim/Acon.png,right,-0.1,0,-90,1,2000,stimuli\\,,,,,,,,,,,,,,,
,,,,,,,,,,ssf,1,2024-06-28_16h13.45.416,DCT_v1_online,2021.2.3,Win32,60.24096386,,,0.076,2.274,2,up,1,,0,0,1,1,12,1,111,incongruent,down,up,incongruent,Stim/Aincon.png,up,0,-0.1,0,7,100,incongruent,right,left,congruent,Stim/Aincon.png,left,0.1,0,90,8,2000,stimuli\\,0.9238,,,,,,,,,,,,,,
,,,,,,,,,,ssf,1,2024-06-28_16h13.45.416,DCT_v1_online,2021.2.3,Win32,60.24096386,,,0.053,2.297,3,up,1,,0,0,2,2,0,1,1,congruent,up,up,congruent,Stim/Acon.png,up,0,0.1,0,1,100,congruent,left,right,congruent,Stim/Acon.png,right,-0.1,0,-90,1,2000,stimuli\\,0.8512,,,,,,,,,,,,,,
,,,,,,,,,,ssf,1,2024-06-28_16h13.45.416,DCT_v1_online,2021.2.3,Win32,60.24096386,,,0.327,2.923,4,up,1,left,1,0,3,3,13,1,112,incongruent,down,up,incongruent,Stim/Aincon.png,up,0,-0.1,0,7,1000,incongruent,right,left,congruent,Stim/Aincon.png,left,0.1,0,90,8,2000,stimuli\\,0.802,1.0841,2.173,,,,,,,,,,,,
,,,,,,,,,,ssf,1,2024-06-28_16h13.45.416,DCT_v1_online,2021.2.3,Win32,60.24096386,,,0.216,3.034,5,up,1,right,1,0,4,4,9,1,66,incongruent,up,up,congruent,Stim/Aincon.png,up,0,0.1,0,5,1000,congruent,left,right,congruent,Stim/Acon.png,right,-0.1,0,-90,1,2000,stimuli\\,0.6246,0.9338,2.284,,,,,,,,,,,,
,,,,,,,,,,ssf,1,2024-06-28_16h13.45.416,DCT_v1_online,2021.2.3,Win32,60.24096386,,,0.091,3.159,6,up,1,left,1,0,5,5,5,1,34,congruent,down,up,incongruent,Stim/Acon.png,up,0,-0.1,0,3,1000,incongruent,left,left,congruent,Stim/Aincon.png,left,-0.1,0,90,1,2000,stimuli\\,0.7727,0.8711,2.409,,,,,,,,,,,,
,,,,,,,,,,ssf,1,2024-06-28_16h13.45.416,DCT_v1_online,2021.2.3,Win32,60.24096386,,,0.168,2.182,7,down,1,right,1,0,6,6,14,1,113,incongruent,down,down,congruent,Stim/Aincon.png,down,0,-0.1,180,8,100,incongruent,left,right,congruent,Stim/Aincon.png,right,-0.1,0,-90,1,2000,stimuli\\,0.7448,1.144,2.332,,,,,,,,,,,,
,,,,,,,,,,ssf,1,2024-06-28_16h13.45.416,DCT_v1_online,2021.2.3,Win32,60.24096386,,,0.43,1.92,8,down,1,left,1,0,7,7,6,1,49,congruent,down,down,congruent,Stim/Acon.png,down,0,-0.1,180,4,100,incongruent,left,left,congruent,Stim/Aincon.png,left,-0.1,0,90,1,2000,stimuli\\,0.8264,1.3178,2.07,,,,,,,,,,,,
,,,,,,,,,,ssf,1,2024-06-28_16h13.45.416,DCT_v1_online,2021.2.3,Win32,60.24096386,,,0.2,3.05,9,up,0,right,1,0,8,8,11,1,82,incongruent,up,down,incongruent,Stim/Aincon.png,down,0,0.1,180,6,1000,congruent,left,right,congruent,Stim/Acon.png,right,-0.1,0,-90,1,2000,stimuli\\,0.7919,0.6984,2.3,,,,,,,,,,,,
,,,,,,,,,,ssf,1,2024-06-28_16h13.45.416,DCT_v1_online,2021.2.3,Win32,60.24096386,,,0.163,3.087,10,up,1,right,1,0,9,9,1,1,2,congruent,up,up,congruent,Stim/Acon.png,up,0,0.1,0,1,1000,congruent,left,right,congruent,Stim/Acon.png,right,-0.1,0,-90,1,2000,stimuli\\,0.6676,0.4999,2.337,,,,,,,,,,,,
,,,,,,,,,,ssf,1,2024-06-28_16h13.45.416,DCT_v1_online,2021.2.3,Win32,60.24096386,,,0.049,3.201,11,down,1,right,1,0,10,10,15,1,114,incongruent,down,down,congruent,Stim/Aincon.png,down,0,-0.1,180,8,1000,incongruent,left,right,congruent,Stim/Aincon.png,right,-0.1,0,-90,1,2000,stimuli\\,0.7792,0.5668,2.451,,,,,,,,,,,,
,,,,,,,,,,ssf,1,2024-06-28_16h13.45.416,DCT_v1_online,2021.2.3,Win32,60.24096386,,,0.475,2.775,12,down,1,right,1,0,11,11,3,1,18,congruent,up,down,incongruent,Stim/Acon.png,down,0,0.1,180,2,1000,congruent,left,right,congruent,Stim/Acon.png,right,-0.1,0,-90,1,2000,stimuli\\,0.6291,0.5516,2.025,,,,,,,,,,,,
,,,,,,,,,,ssf,1,2024-06-28_16h13.45.416,DCT_v1_online,2021.2.3,Win32,60.24096386,,,0.347,2.003,13,up,1,right,1,0,12,12,8,1,65,incongruent,up,up,congruent,Stim/Aincon.png,up,0,0.1,0,5,100,congruent,left,right,congruent,Stim/Acon.png,right,-0.1,0,-90,1,2000,stimuli\\,0.5366,0.8797,2.153,,,,,,,,,,,,
,,,,,,,,,,ssf,1,2024-06-28_16h13.45.416,DCT_v1_online,2021.2.3,Win32,60.24096386,,,0.242,2.108,14,down,1,right,1,0,13,13,2,1,17,congruent,up,down,incongruent,Stim/Acon.png,down,0,0.1,180,2,100,congruent,left,right,congruent,Stim/Acon.png,right,-0.1,0,-90,1,2000,stimuli\\,0.5442,0.8588,2.258,,,,,,,,,,,,
,,,,,,,,,,ssf,1,2024-06-28_16h13.45.416,DCT_v1_online,2021.2.3,Win32,60.24096386,,,0.144,2.206,15,up,1,,0,0,14,14,4,1,33,congruent,down,up,incongruent,Stim/Acon.png,up,0,-0.1,0,3,100,incongruent,left,left,congruent,Stim/Aincon.png,left,-0.1,0,90,1,2000,stimuli\\,1.1549,,,,,,,,,,,,,,
,,,,,,,,,,ssf,1,2024-06-28_16h13.45.416,DCT_v1_online,2021.2.3,Win32,60.24096386,,,0.291,2.959,16,down,1,right,0,0,15,15,7,1,50,congruent,down,down,congruent,Stim/Acon.png,down,0,-0.1,180,4,1000,incongruent,left,left,congruent,Stim/Aincon.png,left,-0.1,0,90,1,2000,stimuli\\,0.5614,0.5184,2.209,,,,,,,,,,,,
,,,,,,,,,,ssf,1,2024-06-28_16h13.45.416,DCT_v1_online,2021.2.3,Win32,60.24096386,,,,,,,,,,,,,,,,,,,,,,,,,,,,,,,,,,,,,,,,,,space,16.8092,0,0,0,0,1,Instructions/i4.png,pra,conditions/blockpra.xlsx,0.8,0.45
,,,,,,,,,,ssf,1,2024-06-28_16h13.45.416,DCT_v1_online,2021.2.3,Win32,60.24096386,space,0.6899,0.337,2.013,17,up,1,left,1,0,0,0,104,1,105,incongruent,down,up,incongruent,Stim/Aincon.png,up,0,-0.1,0,7,100,incongruent,left,left,congruent,Stim/Aincon.png,left,-0.1,0,90,5,2000,stimuli\\,0.9273,1.1351,2.163,,,,,,,,,,,,
,,,,,,,,,,ssf,1,2024-06-28_16h13.45.416,DCT_v1_online,2021.2.3,Win32,60.24096386,,,0.095,2.255,18,down,1,right,1,0,1,1,122,1,123,incongruent,down,down,congruent,Stim/Aincon.png,down,0,-0.1,180,8,100,incongruent,left,right,incongruent,Stim/Aincon.png,right,-0.1,0,-90,6,2000,stimuli\\,0.9725,1.2556,2.405,,,,,,,,,,,,
,,,,,,,,,,ssf,1,2024-06-28_16h13.45.416,DCT_v1_online,2021.2.3,Win32,60.24096386,,,0.455,1.895,19,down,1,right,0,0,2,2,28,1,29,congruent,up,down,incongruent,Stim/Acon.png,down,0,0.1,180,2,100,incongruent,right,left,incongruent,Stim/Aincon.png,left,0.1,0,90,7,2000,stimuli\\,0.7498,0.9198,2.045,,,,,,,,,,,,
,,,,,,,,,,ssf,1,2024-06-28_16h13.45.416,DCT_v1_online,2021.2.3,Win32,60.24096386,,,0.332,2.018,20,down,0,right,1,0,3,3,110,1,111,incongruent,down,up,incongruent,Stim/Aincon.png,up,0,-0.1,0,7,100,incongruent,right,right,congruent,Stim/Aincon.png,right,0.1,0,-90,8,2000,stimuli\\,0.8176,1.1265,2.168,,,,,,,,,,,,
,,,,,,,,,,ssf,1,2024-06-28_16h13.45.416,DCT_v1_online,2021.2.3,Win32,60.24096386,,,0.461,2.789,21,down,1,right,1,0,4,4,27,1,28,congruent,up,down,incongruent,Stim/Acon.png,down,0,0.1,180,2,1000,incongruent,left,right,incongruent,Stim/Aincon.png,right,-0.1,0,-90,6,2000,stimuli\\,0.484,0.6858,2.039,,,,,,,,,,,,
,,,,,,,,,,ssf,1,2024-06-28_16h13.45.416,DCT_v1_online,2021.2.3,Win32,60.24096386,,,0.428,1.922,22,up,1,left,1,0,5,5,100,1,101,incongruent,down,up,incongruent,Stim/Aincon.png,up,0,-0.1,0,7,100,congruent,right,left,incongruent,Stim/Acon.png,left,0.1,0,90,3,2000,stimuli\\,0.7843,1.109,2.072,,,,,,,,,,,,
,,,,,,,,,,ssf,1,2024-06-28_16h13.45.416,DCT_v1_online,2021.2.3,Win32,60.24096386,,,0.128,3.122,23,up,1,right,1,0,6,6,111,1,112,incongruent,down,up,incongruent,Stim/Aincon.png,up,0,-0.1,0,7,1000,incongruent,right,right,congruent,Stim/Aincon.png,right,0.1,0,-90,8,2000,stimuli\\,0.7,0.7458,2.372,,,,,,,,,,,,
,,,,,,,,,,ssf,1,2024-06-28_16h13.45.416,DCT_v1_online,2021.2.3,Win32,60.24096386,,,0.203,2.147,24,down,1,left,1,0,7,7,112,1,113,incongruent,down,down,congruent,Stim/Aincon.png,down,0,-0.1,180,8,100,congruent,left,left,congruent,Stim/Acon.png,left,-0.1,0,90,1,2000,stimuli\\,0.9579,1.2021,2.297,,,,,,,,,,,,
,,,,,,,,,,ssf,1,2024-06-28_16h13.45.416,DCT_v1_online,2021.2.3,Win32,60.24096386,,,0.015,3.235,25,up,1,right,1,0,8,8,3,1,4,congruent,up,up,congruent,Stim/Acon.png,up,0,0.1,0,1,1000,congruent,left,right,incongruent,Stim/Acon.png,right,-0.1,0,-90,2,2000,stimuli\\,0.5106,0.5382,2.485,,,,,,,,,,,,
,,,,,,,,,,ssf,1,2024-06-28_16h13.45.416,DCT_v1_online,2021.2.3,Win32,60.24096386,,,0.383,2.867,26,down,1,left,1,0,9,9,81,1,82,incongruent,up,down,incongruent,Stim/Aincon.png,down,0,0.1,180,6,1000,congruent,left,left,congruent,Stim/Acon.png,left,-0.1,0,90,1,2000,stimuli\\,0.5549,0.606,2.117,,,,,,,,,,,,
,,,,,,,,,,ssf,1,2024-06-28_16h13.45.416,DCT_v1_online,2021.2.3,Win32,60.24096386,,,0.238,3.012,27,up,1,right,1,0,10,10,35,1,36,congruent,down,up,incongruent,Stim/Acon.png,up,0,-0.1,0,3,1000,congruent,left,right,incongruent,Stim/Acon.png,right,-0.1,0,-90,2,2000,stimuli\\,0.7322,0.4725,2.262,,,,,,,,,,,,
,,,,,,,,,,ssf,1,2024-06-28_16h13.45.416,DCT_v1_online,2021.2.3,Win32,60.24096386,,,0.287,2.963,28,up,1,left,1,0,11,11,1,1,2,congruent,up,up,congruent,Stim/Acon.png,up,0,0.1,0,1,1000,congruent,left,left,congruent,Stim/Acon.png,left,-0.1,0,90,1,2000,stimuli\\,0.4016,0.4683,2.213,,,,,,,,,,,,
,,,,,,,,,,ssf,1,2024-06-28_16h13.45.416,DCT_v1_online,2021.2.3,Win32,60.24096386,,,0.313,2.037,29,down,1,left,1,0,12,12,84,1,85,incongruent,up,down,incongruent,Stim/Aincon.png,down,0,0.1,180,6,100,congruent,right,left,incongruent,Stim/Acon.png,left,0.1,0,90,3,2000,stimuli\\,0.5773,0.9044,2.187,,,,,,,,,,,,
,,,,,,,,,,ssf,1,2024-06-28_16h13.45.416,DCT_v1_online,2021.2.3,Win32,60.24096386,,,0.072,3.178,30,down,1,right,1,0,13,13,87,1,88,incongruent,up,down,incongruent,Stim/Aincon.png,down,0,0.1,180,6,1000,congruent,right,right,congruent,Stim/Acon.png,right,0.1,0,-90,4,2000,stimuli\\,0.6082,0.6817,2.428,,,,,,,,,,,,
,,,,,,,,,,ssf,1,2024-06-28_16h13.45.416,DCT_v1_online,2021.2.3,Win32,60.24096386,,,0.144,3.106,31,down,1,right,1,0,14,14,23,1,24,congruent,up,down,incongruent,Stim/Acon.png,down,0,0.1,180,2,1000,congruent,right,right,congruent,Stim/Acon.png,right,0.1,0,-90,4,2000,stimuli\\,0.5204,0.7048,2.356,,,,,,,,,,,,
,,,,,,,,,,ssf,1,2024-06-28_16h13.45.416,DCT_v1_online,2021.2.3,Win32,60.24096386,,,0.112,2.238,32,down,1,left,1,0,15,15,20,1,21,congruent,up,down,incongruent,Stim/Acon.png,down,0,0.1,180,2,100,congruent,right,left,incongruent,Stim/Acon.png,left,0.1,0,90,3,2000,stimuli\\,0.5005,0.7063,2.388,,,,,,,,,,,,
,,,,,,,,,,ssf,1,2024-06-28_16h13.45.416,DCT_v1_online,2021.2.3,Win32,60.24096386,,,0.266,2.984,33,up,1,right,1,0,16,16,39,1,40,congruent,down,up,incongruent,Stim/Acon.png,up,0,-0.1,0,3,1000,congruent,right,right,congruent,Stim/Acon.png,right,0.1,0,-90,4,2000,stimuli\\,0.8215,0.4725,2.234,,,,,,,,,,,,
,,,,,,,,,,ssf,1,2024-06-28_16h13.45.416,DCT_v1_online,2021.2.3,Win32,60.24096386,,,0.441,2.809,34,up,1,left,1,0,17,17,5,1,6,congruent,up,up,congruent,Stim/Acon.png,up,0,0.1,0,1,1000,congruent,right,left,incongruent,Stim/Acon.png,left,0.1,0,90,3,2000,stimuli\\,0.4521,0.4769,2.059,,,,,,,,,,,,
,,,,,,,,,,ssf,1,2024-06-28_16h13.45.416,DCT_v1_online,2021.2.3,Win32,60.24096386,,,0.191,2.159,35,up,1,right,1,0,18,18,106,1,107,incongruent,down,up,incongruent,Stim/Aincon.png,up,0,-0.1,0,7,100,incongruent,left,right,incongruent,Stim/Aincon.png,right,-0.1,0,-90,6,2000,stimuli\\,1.0894,1.5866,2.309,,,,,,,,,,,,
,,,,,,,,,,ssf,1,2024-06-28_16h13.45.416,DCT_v1_online,2021.2.3,Win32,60.24096386,,,0.23,3.02,36,down,1,left,1,0,19,19,121,1,122,incongruent,down,down,congruent,Stim/Aincon.png,down,0,-0.1,180,8,1000,incongruent,left,left,congruent,Stim/Aincon.png,left,-0.1,0,90,5,2000,stimuli\\,0.8004,0.5357,2.27,,,,,,,,,,,,
,,,,,,,,,,ssf,1,2024-06-28_16h13.45.416,DCT_v1_online,2021.2.3,Win32,60.24096386,,,0.12,3.13,37,down,1,right,1,0,20,20,91,1,92,incongruent,up,down,incongruent,Stim/Aincon.png,down,0,0.1,180,6,1000,incongruent,left,right,incongruent,Stim/Aincon.png,right,-0.1,0,-90,6,2000,stimuli\\,0.6166,0.4917,2.38,,,,,,,,,,,,
,,,,,,,,,,ssf,1,2024-06-28_16h13.45.416,DCT_v1_online,2021.2.3,Win32,60.24096386,,,0.425,2.825,38,up,1,left,1,0,21,21,13,1,14,congruent,up,up,congruent,Stim/Acon.png,up,0,0.1,0,1,1000,incongruent,right,left,incongruent,Stim/Aincon.png,left,0.1,0,90,7,2000,stimuli\\,0.5319,0.6655,2.075,,,,,,,,,,,,
,,,,,,,,,,ssf,1,2024-06-28_16h13.45.416,DCT_v1_online,2021.2.3,Win32,60.24096386,,,0.488,1.862,39,up,1,right,1,0,22,22,10,1,11,congruent,up,up,congruent,Stim/Acon.png,up,0,0.1,0,1,100,incongruent,left,right,incongruent,Stim/Aincon.png,right,-0.1,0,-90,6,2000,stimuli\\,0.5681,0.8811,2.012,,,,,,,,,,,,
,,,,,,,,,,ssf,1,2024-06-28_16h13.45.416,DCT_v1_online,2021.2.3,Win32,60.24096386,,,0.056,2.294,40,up,1,right,1,0,23,23,70,1,71,incongruent,up,up,congruent,Stim/Aincon.png,up,0,0.1,0,5,100,congruent,right,right,congruent,Stim/Acon.png,right,0.1,0,-90,4,2000,stimuli\\,0.7952,1.003,2.444,,,,,,,,,,,,
,,,,,,,,,,ssf,1,2024-06-28_16h13.45.416,DCT_v1_online,2021.2.3,Win32,60.24096386,,,0.368,2.882,41,up,1,left,1,0,24,24,73,1,74,incongruent,up,up,congruent,Stim/Aincon.png,up,0,0.1,0,5,1000,incongruent,left,left,congruent,Stim/Aincon.png,left,-0.1,0,90,5,2000,stimuli\\,0.4979,0.5897,2.132,,,,,,,,,,,,
,,,,,,,,,,ssf,1,2024-06-28_16h13.45.416,DCT_v1_online,2021.2.3,Win32,60.24096386,,,0.045,2.305,42,down,1,left,1,0,25,25,80,1,81,incongruent,up,down,incongruent,Stim/Aincon.png,down,0,0.1,180,6,100,congruent,left,left,congruent,Stim/Acon.png,left,-0.1,0,90,1,2000,stimuli\\,0.6,0.8577,2.455,,,,,,,,,,,,
,,,,,,,,,,ssf,1,2024-06-28_16h13.45.416,DCT_v1_online,2021.2.3,Win32,60.24096386,,,0.305,2.945,43,up,1,left,1,0,26,26,45,1,46,congruent,down,up,incongruent,Stim/Acon.png,up,0,-0.1,0,3,1000,incongruent,right,left,incongruent,Stim/Aincon.png,left,0.1,0,90,7,2000,stimuli\\,0.7119,0.7218,2.195,,,,,,,,,,,,
,,,,,,,,,,ssf,1,2024-06-28_16h13.45.416,DCT_v1_online,2021.2.3,Win32,60.24096386,,,0.499,2.751,44,down,1,right,1,0,27,27,119,1,120,incongruent,down,down,congruent,Stim/Aincon.png,down,0,-0.1,180,8,1000,congruent,right,right,congruent,Stim/Acon.png,right,0.1,0,-90,4,2000,stimuli\\,0.9764,0.6272,2.001,,,,,,,,,,,,
,,,,,,,,,,ssf,1,2024-06-28_16h13.45.416,DCT_v1_online,2021.2.3,Win32,60.24096386,,,0.027,2.323,45,down,1,left,1,0,28,28,56,1,57,congruent,down,down,congruent,Stim/Acon.png,down,0,-0.1,180,4,100,incongruent,left,left,congruent,Stim/Aincon.png,left,-0.1,0,90,5,2000,stimuli\\,0.8192,0.9711,2.473,,,,,,,,,,,,
,,,,,,,,,,ssf,1,2024-06-28_16h13.45.416,DCT_v1_online,2021.2.3,Win32,60.24096386,,,0.068,2.282,46,down,1,left,1,0,29,29,92,1,93,incongruent,up,down,incongruent,Stim/Aincon.png,down,0,0.1,180,6,100,incongruent,right,left,incongruent,Stim/Aincon.png,left,0.1,0,90,7,2000,stimuli\\,0.831,0.9687,2.432,,,,,,,,,,,,
,,,,,,,,,,ssf,1,2024-06-28_16h13.45.416,DCT_v1_online,2021.2.3,Win32,60.24096386,,,0.49,1.86,47,up,1,left,1,0,30,30,108,1,109,incongruent,down,up,incongruent,Stim/Aincon.png,up,0,-0.1,0,7,100,incongruent,right,left,incongruent,Stim/Aincon.png,left,0.1,0,90,7,2000,stimuli\\,0.7663,1.0851,2.01,,,,,,,,,,,,
,,,,,,,,,,ssf,1,2024-06-28_16h13.45.416,DCT_v1_online,2021.2.3,Win32,60.24096386,,,0.402,1.948,48,down,0,left,0,0,31,31,74,1,75,incongruent,up,up,congruent,Stim/Aincon.png,up,0,0.1,0,5,100,incongruent,left,right,incongruent,Stim/Aincon.png,right,-0.1,0,-90,6,2000,stimuli\\,0.7706,0.9673,2.098,,,,,,,,,,,,
,,,,,,,,,,ssf,1,2024-06-28_16h13.45.416,DCT_v1_online,2021.2.3,Win32,60.24096386,,,0.105,3.145,49,down,1,right,1,0,32,32,83,1,84,incongruent,up,down,incongruent,Stim/Aincon.png,down,0,0.1,180,6,1000,congruent,left,right,incongruent,Stim/Acon.png,right,-0.1,0,-90,2,2000,stimuli\\,0.5479,0.5333,2.395,,,,,,,,,,,,
,,,,,,,,,,ssf,1,2024-06-28_16h13.45.416,DCT_v1_online,2021.2.3,Win32,60.24096386,,,0.322,2.028,50,down,1,left,1,0,33,33,60,1,61,congruent,down,down,congruent,Stim/Acon.png,down,0,-0.1,180,4,100,incongruent,right,left,incongruent,Stim/Aincon.png,left,0.1,0,90,7,2000,stimuli\\,0.7169,0.9574,2.178,,,,,,,,,,,,
,,,,,,,,,,ssf,1,2024-06-28_16h13.45.416,DCT_v1_online,2021.2.3,Win32,60.24096386,,,0.172,3.078,51,down,1,left,0,0,34,34,63,1,64,congruent,down,down,congruent,Stim/Acon.png,down,0,-0.1,180,4,1000,incongruent,right,right,congruent,Stim/Aincon.png,right,0.1,0,-90,8,2000,stimuli\\,0.66,0.6338,2.328,,,,,,,,,,,,
,,,,,,,,,,ssf,1,2024-06-28_16h13.45.416,DCT_v1_online,2021.2.3,Win32,60.24096386,,,0.192,2.158,52,down,1,right,1,0,35,35,54,1,55,congruent,down,down,congruent,Stim/Acon.png,down,0,-0.1,180,4,100,congruent,right,right,congruent,Stim/Acon.png,right,0.1,0,-90,4,2000,stimuli\\,0.6503,0.7977,2.308,,,,,,,,,,,,
,,,,,,,,,,ssf,1,2024-06-28_16h13.45.416,DCT_v1_online,2021.2.3,Win32,60.24096386,,,0.179,2.171,53,down,1,right,1,0,36,36,62,1,63,congruent,down,down,congruent,Stim/Acon.png,down,0,-0.1,180,4,100,incongruent,right,right,congruent,Stim/Aincon.png,right,0.1,0,-90,8,2000,stimuli\\,0.745,0.9703,2.321,,,,,,,,,,,,
,,,,,,,,,,ssf,1,2024-06-28_16h13.45.416,DCT_v1_online,2021.2.3,Win32,60.24096386,,,0.227,2.123,54,down,1,right,1,0,37,37,58,1,59,congruent,down,down,congruent,Stim/Acon.png,down,0,-0.1,180,4,100,incongruent,left,right,incongruent,Stim/Aincon.png,right,-0.1,0,-90,6,2000,stimuli\\,0.8367,1.0203,2.273,,,,,,,,,,,,
,,,,,,,,,,ssf,1,2024-06-28_16h13.45.416,DCT_v1_online,2021.2.3,Win32,60.24096386,,,0.231,2.119,55,up,1,left,1,0,38,38,44,1,45,congruent,down,up,incongruent,Stim/Acon.png,up,0,-0.1,0,3,100,incongruent,right,left,incongruent,Stim/Aincon.png,left,0.1,0,90,7,2000,stimuli\\,0.7165,1.0402,2.269,,,,,,,,,,,,
,,,,,,,,,,ssf,1,2024-06-28_16h13.45.416,DCT_v1_online,2021.2.3,Win32,60.24096386,,,0.056,2.294,56,up,1,left,1,0,39,39,32,1,33,congruent,down,up,incongruent,Stim/Acon.png,up,0,-0.1,0,3,100,congruent,left,left,congruent,Stim/Acon.png,left,-0.1,0,90,1,2000,stimuli\\,0.7496,1.1101,2.444,,,,,,,,,,,,
,,,,,,,,,,ssf,1,2024-06-28_16h13.45.416,DCT_v1_online,2021.2.3,Win32,60.24096386,,,0.057,3.193,57,down,1,right,1,0,40,40,31,1,32,congruent,up,down,incongruent,Stim/Acon.png,down,0,0.1,180,2,1000,incongruent,right,right,congruent,Stim/Aincon.png,right,0.1,0,-90,8,2000,stimuli\\,0.6411,0.8914,2.443,,,,,,,,,,,,
,,,,,,,,,,ssf,1,2024-06-28_16h13.45.416,DCT_v1_online,2021.2.3,Win32,60.24096386,,,0.156,3.094,58,up,1,right,1,0,41,41,71,1,72,incongruent,up,up,congruent,Stim/Aincon.png,up,0,0.1,0,5,1000,congruent,right,right,congruent,Stim/Acon.png,right,0.1,0,-90,4,2000,stimuli\\,0.4815,0.5213,2.344,,,,,,,,,,,,
,,,,,,,,,,ssf,1,2024-06-28_16h13.45.416,DCT_v1_online,2021.2.3,Win32,60.24096386,,,0.302,2.948,59,down,1,right,1,0,42,42,51,1,52,congruent,down,down,congruent,Stim/Acon.png,down,0,-0.1,180,4,1000,congruent,left,right,incongruent,Stim/Acon.png,right,-0.1,0,-90,2,2000,stimuli\\,0.5769,0.4537,2.198,,,,,,,,,,,,
,,,,,,,,,,ssf,1,2024-06-28_16h13.45.416,DCT_v1_online,2021.2.3,Win32,60.24096386,,,0.317,2.033,60,up,1,right,1,0,43,43,102,1,103,incongruent,down,up,incongruent,Stim/Aincon.png,up,0,-0.1,0,7,100,congruent,right,right,congruent,Stim/Acon.png,right,0.1,0,-90,4,2000,stimuli\\,0.8553,1.0598,2.183,,,,,,,,,,,,
,,,,,,,,,,ssf,1,2024-06-28_16h13.45.416,DCT_v1_online,2021.2.3,Win32,60.24096386,,,0.463,1.887,61,down,1,left,1,0,44,44,120,1,121,incongruent,down,down,congruent,Stim/Aincon.png,down,0,-0.1,180,8,100,incongruent,left,left,congruent,Stim/Aincon.png,left,-0.1,0,90,5,2000,stimuli\\,0.995,1.3041,2.037,,,,,,,,,,,,
,,,,,,,,,,ssf,1,2024-06-28_16h13.45.416,DCT_v1_online,2021.2.3,Win32,60.24096386,,,0.307,2.943,62,up,1,right,1,0,45,45,11,1,12,congruent,up,up,congruent,Stim/Acon.png,up,0,0.1,0,1,1000,incongruent,left,right,incongruent,Stim/Aincon.png,right,-0.1,0,-90,6,2000,stimuli\\,0.5498,0.4941,2.193,,,,,,,,,,,,
,,,,,,,,,,ssf,1,2024-06-28_16h13.45.416,DCT_v1_online,2021.2.3,Win32,60.24096386,,,0.001,2.349,63,up,1,right,1,0,46,46,46,1,47,congruent,down,up,incongruent,Stim/Acon.png,up,0,-0.1,0,3,100,incongruent,right,right,congruent,Stim/Aincon.png,right,0.1,0,-90,8,2000,stimuli\\,0.6675,1.1021,2.499,,,,,,,,,,,,
,,,,,,,,,,ssf,1,2024-06-28_16h13.45.416,DCT_v1_online,2021.2.3,Win32,60.24096386,,,0.265,2.985,64,down,1,left,1,0,47,47,49,1,50,congruent,down,down,congruent,Stim/Acon.png,down,0,-0.1,180,4,1000,congruent,left,left,congruent,Stim/Acon.png,left,-0.1,0,90,1,2000,stimuli\\,0.4986,0.5986,2.235,,,,,,,,,,,,
,,,,,,,,,,ssf,1,2024-06-28_16h13.45.416,DCT_v1_online,2021.2.3,Win32,60.24096386,,,0.394,2.856,65,down,1,left,1,0,48,48,85,1,86,incongruent,up,down,incongruent,Stim/Aincon.png,down,0,0.1,180,6,1000,congruent,right,left,incongruent,Stim/Acon.png,left,0.1,0,90,3,2000,stimuli\\,0.7347,0.5747,2.106,,,,,,,,,,,,
,,,,,,,,,,ssf,1,2024-06-28_16h13.45.416,DCT_v1_online,2021.2.3,Win32,60.24096386,,,0.113,3.137,66,down,1,left,1,0,49,49,117,1,118,incongruent,down,down,congruent,Stim/Aincon.png,down,0,-0.1,180,8,1000,congruent,right,left,incongruent,Stim/Acon.png,left,0.1,0,90,3,2000,stimuli\\,0.7876,0.6353,2.387,,,,,,,,,,,,
,,,,,,,,,,ssf,1,2024-06-28_16h13.45.416,DCT_v1_online,2021.2.3,Win32,60.24096386,,,0.217,2.133,67,up,1,left,1,0,50,50,68,1,69,incongruent,up,up,congruent,Stim/Aincon.png,up,0,0.1,0,5,100,congruent,right,left,incongruent,Stim/Acon.png,left,0.1,0,90,3,2000,stimuli\\,0.6833,1.0179,2.283,,,,,,,,,,,,
,,,,,,,,,,ssf,1,2024-06-28_16h13.45.416,DCT_v1_online,2021.2.3,Win32,60.24096386,,,0.105,2.245,68,up,1,right,1,0,51,51,2,1,3,congruent,up,up,congruent,Stim/Acon.png,up,0,0.1,0,1,100,congruent,left,right,incongruent,Stim/Acon.png,right,-0.1,0,-90,2,2000,stimuli\\,0.7941,1.3507,2.395,,,,,,,,,,,,
,,,,,,,,,,ssf,1,2024-06-28_16h13.45.416,DCT_v1_online,2021.2.3,Win32,60.24096386,,,0.302,2.048,69,down,1,right,1,0,52,52,18,1,19,congruent,up,down,incongruent,Stim/Acon.png,down,0,0.1,180,2,100,congruent,left,right,incongruent,Stim/Acon.png,right,-0.1,0,-90,2,2000,stimuli\\,0.7327,1.051,2.198,,,,,,,,,,,,
,,,,,,,,,,ssf,1,2024-06-28_16h13.45.416,DCT_v1_online,2021.2.3,Win32,60.24096386,,,0.017,3.233,70,down,1,left,1,0,53,53,25,1,26,congruent,up,down,incongruent,Stim/Acon.png,down,0,0.1,180,2,1000,incongruent,left,left,congruent,Stim/Aincon.png,left,-0.1,0,90,5,2000,stimuli\\,0.4869,0.6347,2.483,,,,,,,,,,,,
,,,,,,,,,,ssf,1,2024-06-28_16h13.45.416,DCT_v1_online,2021.2.3,Win32,60.24096386,,,0.45,1.9,71,up,1,right,1,0,54,54,78,1,79,incongruent,up,up,congruent,Stim/Aincon.png,up,0,0.1,0,5,100,incongruent,right,right,congruent,Stim/Aincon.png,right,0.1,0,-90,8,2000,stimuli\\,0.5483,0.8695,2.05,,,,,,,,,,,,
,,,,,,,,,,ssf,1,2024-06-28_16h13.45.416,DCT_v1_online,2021.2.3,Win32,60.24096386,,,0.017,3.233,72,up,1,right,1,0,55,55,75,1,76,incongruent,up,up,congruent,Stim/Aincon.png,up,0,0.1,0,5,1000,incongruent,left,right,incongruent,Stim/Aincon.png,right,-0.1,0,-90,6,2000,stimuli\\,0.7735,0.5612,2.483,,,,,,,,,,,,
,,,,,,,,,,ssf,1,2024-06-28_16h13.45.416,DCT_v1_online,2021.2.3,Win32,60.24096386,,,0.428,2.822,73,down,1,left,1,0,56,56,21,1,22,congruent,up,down,incongruent,Stim/Acon.png,down,0,0.1,180,2,1000,congruent,right,left,incongruent,Stim/Acon.png,left,0.1,0,90,3,2000,stimuli\\,0.5052,0.5331,2.072,,,,,,,,,,,,
,,,,,,,,,,ssf,1,2024-06-28_16h13.45.416,DCT_v1_online,2021.2.3,Win32,60.24096386,,,0.118,2.232,74,down,1,left,1,0,57,57,16,1,17,congruent,up,down,incongruent,Stim/Acon.png,down,0,0.1,180,2,100,congruent,left,left,congruent,Stim/Acon.png,left,-0.1,0,90,1,2000,stimuli\\,0.5038,0.7709,2.382,,,,,,,,,,,,
,,,,,,,,,,ssf,1,2024-06-28_16h13.45.416,DCT_v1_online,2021.2.3,Win32,60.24096386,,,0.235,3.015,75,up,1,left,1,0,58,58,33,1,34,congruent,down,up,incongruent,Stim/Acon.png,up,0,-0.1,0,3,1000,congruent,left,left,congruent,Stim/Acon.png,left,-0.1,0,90,1,2000,stimuli\\,0.6743,0.3802,2.265,,,,,,,,,,,,
,,,,,,,,,,ssf,1,2024-06-28_16h13.45.416,DCT_v1_online,2021.2.3,Win32,60.24096386,,,0.462,2.788,76,up,1,right,1,0,59,59,7,1,8,congruent,up,up,congruent,Stim/Acon.png,up,0,0.1,0,1,1000,congruent,right,right,congruent,Stim/Acon.png,right,0.1,0,-90,4,2000,stimuli\\,0.4335,0.5677,2.038,,,,,,,,,,,,
,,,,,,,,,,ssf,1,2024-06-28_16h13.45.416,DCT_v1_online,2021.2.3,Win32,60.24096386,,,0.288,2.062,77,down,1,right,1,0,60,60,26,1,27,congruent,up,down,incongruent,Stim/Acon.png,down,0,0.1,180,2,100,incongruent,left,right,incongruent,Stim/Aincon.png,right,-0.1,0,-90,6,2000,stimuli\\,0.6297,1.1868,2.212,,,,,,,,,,,,
,,,,,,,,,,ssf,1,2024-06-28_16h13.45.416,DCT_v1_online,2021.2.3,Win32,60.24096386,,,0.226,3.024,78,up,1,left,1,0,61,61,65,1,66,incongruent,up,up,congruent,Stim/Aincon.png,up,0,0.1,0,5,1000,congruent,left,left,congruent,Stim/Acon.png,left,-0.1,0,90,1,2000,stimuli\\,0.6005,0.4158,2.274,,,,,,,,,,,,
,,,,,,,,,,ssf,1,2024-06-28_16h13.45.416,DCT_v1_online,2021.2.3,Win32,60.24096386,,,0.255,2.095,79,up,1,left,1,0,62,62,8,1,9,congruent,up,up,congruent,Stim/Acon.png,up,0,0.1,0,1,100,incongruent,left,left,congruent,Stim/Aincon.png,left,-0.1,0,90,5,2000,stimuli\\,0.5321,0.8799,2.245,,,,,,,,,,,,
,,,,,,,,,,ssf,1,2024-06-28_16h13.45.416,DCT_v1_online,2021.2.3,Win32,60.24096386,,,0.329,2.021,80,up,1,right,1,0,63,63,42,1,43,congruent,down,up,incongruent,Stim/Acon.png,up,0,-0.1,0,3,100,incongruent,left,right,incongruent,Stim/Aincon.png,right,-0.1,0,-90,6,2000,stimuli\\,0.6336,1.0758,2.171,,,,,,,,,,,,
,,,,,,,,,,ssf,1,2024-06-28_16h13.45.416,DCT_v1_online,2021.2.3,Win32,60.24096386,,,0.157,3.093,81,up,1,right,1,0,64,64,107,1,108,incongruent,down,up,incongruent,Stim/Aincon.png,up,0,-0.1,0,7,1000,incongruent,left,right,incongruent,Stim/Aincon.png,right,-0.1,0,-90,6,2000,stimuli\\,0.7161,0.5774,2.343,,,,,,,,,,,,
,,,,,,,,,,ssf,1,2024-06-28_16h13.45.416,DCT_v1_online,2021.2.3,Win32,60.24096386,,,0.111,3.139,82,up,0,right,1,0,65,65,95,1,96,incongruent,up,down,incongruent,Stim/Aincon.png,down,0,0.1,180,6,1000,incongruent,right,right,congruent,Stim/Aincon.png,right,0.1,0,-90,8,2000,stimuli\\,0.5162,0.7418,2.389,,,,,,,,,,,,
,,,,,,,,,,ssf,1,2024-06-28_16h13.45.416,DCT_v1_online,2021.2.3,Win32,60.24096386,,,0.021,2.329,83,up,1,right,1,0,66,66,34,1,35,congruent,down,up,incongruent,Stim/Acon.png,up,0,-0.1,0,3,100,congruent,left,right,incongruent,Stim/Acon.png,right,-0.1,0,-90,2,2000,stimuli\\,0.6008,0.783,2.479,,,,,,,,,,,,
,,,,,,,,,,ssf,1,2024-06-28_16h13.45.416,DCT_v1_online,2021.2.3,Win32,60.24096386,,,0.267,2.983,84,up,1,left,1,0,67,67,97,1,98,incongruent,down,up,incongruent,Stim/Aincon.png,up,0,-0.1,0,7,1000,congruent,left,left,congruent,Stim/Acon.png,left,-0.1,0,90,1,2000,stimuli\\,0.6685,0.5873,2.233,,,,,,,,,,,,
,,,,,,,,,,ssf,1,2024-06-28_16h13.45.416,DCT_v1_online,2021.2.3,Win32,60.24096386,,,0.195,2.155,85,up,1,right,1,0,68,68,6,1,7,congruent,up,up,congruent,Stim/Acon.png,up,0,0.1,0,1,100,congruent,right,right,congruent,Stim/Acon.png,right,0.1,0,-90,4,2000,stimuli\\,0.5216,0.683,2.305,,,,,,,,,,,,
,,,,,,,,,,ssf,1,2024-06-28_16h13.45.416,DCT_v1_online,2021.2.3,Win32,60.24096386,,,0.473,1.877,86,down,1,right,1,0,69,69,94,1,95,incongruent,up,down,incongruent,Stim/Aincon.png,down,0,0.1,180,6,100,incongruent,right,right,congruent,Stim/Aincon.png,right,0.1,0,-90,8,2000,stimuli\\,0.6778,1.0014,2.027,,,,,,,,,,,,
,,,,,,,,,,ssf,1,2024-06-28_16h13.45.416,DCT_v1_online,2021.2.3,Win32,60.24096386,,,0.177,2.173,87,up,1,left,1,0,70,70,12,1,13,congruent,up,up,congruent,Stim/Acon.png,up,0,0.1,0,1,100,incongruent,right,left,incongruent,Stim/Aincon.png,left,0.1,0,90,7,2000,stimuli\\,0.56,1.0233,2.323,,,,,,,,,,,,
,,,,,,,,,,ssf,1,2024-06-28_16h13.45.416,DCT_v1_online,2021.2.3,Win32,60.24096386,,,0.168,3.082,88,up,1,left,1,0,71,71,37,1,38,congruent,down,up,incongruent,Stim/Acon.png,up,0,-0.1,0,3,1000,congruent,right,left,incongruent,Stim/Acon.png,left,0.1,0,90,3,2000,stimuli\\,0.6194,0.6191,2.332,,,,,,,,,,,,
,,,,,,,,,,ssf,1,2024-06-28_16h13.45.416,DCT_v1_online,2021.2.3,Win32,60.24096386,,,0.364,2.886,89,up,1,left,1,0,72,72,41,1,42,congruent,down,up,incongruent,Stim/Acon.png,up,0,-0.1,0,3,1000,incongruent,left,left,congruent,Stim/Aincon.png,left,-0.1,0,90,5,2000,stimuli\\,0.528,0.7599,2.136,,,,,,,,,,,,
,,,,,,,,,,ssf,1,2024-06-28_16h13.45.416,DCT_v1_online,2021.2.3,Win32,60.24096386,,,0.451,1.899,90,down,1,right,1,0,73,73,30,1,31,congruent,up,down,incongruent,Stim/Acon.png,down,0,0.1,180,2,100,incongruent,right,right,congruent,Stim/Aincon.png,right,0.1,0,-90,8,2000,stimuli\\,0.6398,1.0561,2.049,,,,,,,,,,,,
,,,,,,,,,,ssf,1,2024-06-28_16h13.45.416,DCT_v1_online,2021.2.3,Win32,60.24096386,,,0.066,2.284,91,down,1,left,1,0,74,74,116,1,117,incongruent,down,down,congruent,Stim/Aincon.png,down,0,-0.1,180,8,100,congruent,right,left,incongruent,Stim/Acon.png,left,0.1,0,90,3,2000,stimuli\\,0.8739,1.1262,2.434,,,,,,,,,,,,
,,,,,,,,,,ssf,1,2024-06-28_16h13.45.416,DCT_v1_online,2021.2.3,Win32,60.24096386,,,0.261,2.989,92,down,1,left,1,0,75,75,89,1,90,incongruent,up,down,incongruent,Stim/Aincon.png,down,0,0.1,180,6,1000,incongruent,left,left,congruent,Stim/Aincon.png,left,-0.1,0,90,5,2000,stimuli\\,0.8255,0.8357,2.239,,,,,,,,,,,,
,,,,,,,,,,ssf,1,2024-06-28_16h13.45.416,DCT_v1_online,2021.2.3,Win32,60.24096386,,,0.088,2.262,93,up,1,left,1,0,76,76,40,1,41,congruent,down,up,incongruent,Stim/Acon.png,up,0,-0.1,0,3,100,incongruent,left,left,congruent,Stim/Aincon.png,left,-0.1,0,90,5,2000,stimuli\\,0.6926,1.0517,2.412,,,,,,,,,,,,
,,,,,,,,,,ssf,1,2024-06-28_16h13.45.416,DCT_v1_online,2021.2.3,Win32,60.24096386,,,0.165,3.085,94,down,1,right,1,0,77,77,59,1,60,congruent,down,down,congruent,Stim/Acon.png,down,0,-0.1,180,4,1000,incongruent,left,right,incongruent,Stim/Aincon.png,right,-0.1,0,-90,6,2000,stimuli\\,0.5909,0.5582,2.335,,,,,,,,,,,,
,,,,,,,,,,ssf,1,2024-06-28_16h13.45.416,DCT_v1_online,2021.2.3,Win32,60.24096386,,,0.23,3.02,95,up,1,left,1,0,78,78,105,1,106,incongruent,down,up,incongruent,Stim/Aincon.png,up,0,-0.1,0,7,1000,incongruent,left,left,congruent,Stim/Aincon.png,left,-0.1,0,90,5,2000,stimuli\\,0.6855,0.5784,2.27,,,,,,,,,,,,
,,,,,,,,,,ssf,1,2024-06-28_16h13.45.416,DCT_v1_online,2021.2.3,Win32,60.24096386,,,0.489,1.861,96,up,1,left,1,0,79,79,0,1,1,congruent,up,up,congruent,Stim/Acon.png,up,0,0.1,0,1,100,congruent,left,left,congruent,Stim/Acon.png,left,-0.1,0,90,1,2000,stimuli\\,0.74,0.8838,2.011,,,,,,,,,,,,
,,,,,,,,,,ssf,1,2024-06-28_16h13.45.416,DCT_v1_online,2021.2.3,Win32,60.24096386,,,0.254,2.996,97,up,1,right,1,0,80,80,103,1,104,incongruent,down,up,incongruent,Stim/Aincon.png,up,0,-0.1,0,7,1000,congruent,right,right,congruent,Stim/Acon.png,right,0.1,0,-90,4,2000,stimuli\\,0.7556,0.6071,2.246,,,,,,,,,,,,
,,,,,,,,,,ssf,1,2024-06-28_16h13.45.416,DCT_v1_online,2021.2.3,Win32,60.24096386,,,0.112,2.238,98,down,1,right,1,0,81,81,114,1,115,incongruent,down,down,congruent,Stim/Aincon.png,down,0,-0.1,180,8,100,congruent,left,right,incongruent,Stim/Acon.png,right,-0.1,0,-90,2,2000,stimuli\\,0.785,1.2405,2.388,,,,,,,,,,,,
,,,,,,,,,,ssf,1,2024-06-28_16h13.45.416,DCT_v1_online,2021.2.3,Win32,60.24096386,,,0.023,3.227,99,down,1,left,1,0,82,82,93,1,94,incongruent,up,down,incongruent,Stim/Aincon.png,down,0,0.1,180,6,1000,incongruent,right,left,incongruent,Stim/Aincon.png,left,0.1,0,90,7,2000,stimuli\\,0.6568,0.8276,2.477,,,,,,,,,,,,
,,,,,,,,,,ssf,1,2024-06-28_16h13.45.416,DCT_v1_online,2021.2.3,Win32,60.24096386,,,0.382,2.868,100,down,1,left,1,0,83,83,61,1,62,congruent,down,down,congruent,Stim/Acon.png,down,0,-0.1,180,4,1000,incongruent,right,left,incongruent,Stim/Aincon.png,left,0.1,0,90,7,2000,stimuli\\,0.5489,0.818,2.118,,,,,,,,,,,,
,,,,,,,,,,ssf,1,2024-06-28_16h13.45.416,DCT_v1_online,2021.2.3,Win32,60.24096386,,,0.28,2.07,101,down,1,right,1,0,84,84,22,1,23,congruent,up,down,incongruent,Stim/Acon.png,down,0,0.1,180,2,100,congruent,right,right,congruent,Stim/Acon.png,right,0.1,0,-90,4,2000,stimuli\\,0.6356,0.9587,2.22,,,,,,,,,,,,
,,,,,,,,,,ssf,1,2024-06-28_16h13.45.416,DCT_v1_online,2021.2.3,Win32,60.24096386,,,0.48,2.77,102,down,1,right,1,0,85,85,115,1,116,incongruent,down,down,congruent,Stim/Aincon.png,down,0,-0.1,180,8,1000,congruent,left,right,incongruent,Stim/Acon.png,right,-0.1,0,-90,2,2000,stimuli\\,0.6862,0.5448,2.02,,,,,,,,,,,,
,,,,,,,,,,ssf,1,2024-06-28_16h13.45.416,DCT_v1_online,2021.2.3,Win32,60.24096386,,,0.229,2.121,103,up,1,right,1,0,86,86,98,1,99,incongruent,down,up,incongruent,Stim/Aincon.png,up,0,-0.1,0,7,100,congruent,left,right,incongruent,Stim/Acon.png,right,-0.1,0,-90,2,2000,stimuli\\,1.3151,1.5886,2.271,,,,,,,,,,,,
,,,,,,,,,,ssf,1,2024-06-28_16h13.45.416,DCT_v1_online,2021.2.3,Win32,60.24096386,,,0.035,2.315,104,down,1,right,1,0,87,87,126,1,127,incongruent,down,down,congruent,Stim/Aincon.png,down,0,-0.1,180,8,100,incongruent,right,right,congruent,Stim/Aincon.png,right,0.1,0,-90,8,2000,stimuli\\,0.7396,1.0599,2.465,,,,,,,,,,,,
,,,,,,,,,,ssf,1,2024-06-28_16h13.45.416,DCT_v1_online,2021.2.3,Win32,60.24096386,,,0.447,2.803,105,down,0,right,1,0,88,88,67,1,68,incongruent,up,up,congruent,Stim/Aincon.png,up,0,0.1,0,5,1000,congruent,left,right,incongruent,Stim/Acon.png,right,-0.1,0,-90,2,2000,stimuli\\,0.4662,0.6578,2.053,,,,,,,,,,,,
,,,,,,,,,,ssf,1,2024-06-28_16h13.45.416,DCT_v1_online,2021.2.3,Win32,60.24096386,,,0.292,2.958,106,up,1,right,1,0,89,89,47,1,48,congruent,down,up,incongruent,Stim/Acon.png,up,0,-0.1,0,3,1000,incongruent,right,right,congruent,Stim/Aincon.png,right,0.1,0,-90,8,2000,stimuli\\,0.675,0.788,2.208,,,,,,,,,,,,
,,,,,,,,,,ssf,1,2024-06-28_16h13.45.416,DCT_v1_online,2021.2.3,Win32,60.24096386,,,0.108,3.142,107,up,1,left,1,0,90,90,69,1,70,incongruent,up,up,congruent,Stim/Aincon.png,up,0,0.1,0,5,1000,congruent,right,left,incongruent,Stim/Acon.png,left,0.1,0,90,3,2000,stimuli\\,0.7059,0.633,2.392,,,,,,,,,,,,
,,,,,,,,,,ssf,1,2024-06-28_16h13.45.416,DCT_v1_online,2021.2.3,Win32,60.24096386,,,0.473,2.777,108,down,1,left,1,0,91,91,29,1,30,congruent,up,down,incongruent,Stim/Acon.png,down,0,0.1,180,2,1000,incongruent,right,left,incongruent,Stim/Aincon.png,left,0.1,0,90,7,2000,stimuli\\,0.5555,0.7378,2.027,,,,,,,,,,,,
,,,,,,,,,,ssf,1,2024-06-28_16h13.45.416,DCT_v1_online,2021.2.3,Win32,60.24096386,,,0.303,2.047,109,down,1,right,1,0,92,92,50,1,51,congruent,down,down,congruent,Stim/Acon.png,down,0,-0.1,180,4,100,congruent,left,right,incongruent,Stim/Acon.png,right,-0.1,0,-90,2,2000,stimuli\\,0.85,1.1923,2.197,,,,,,,,,,,,
,,,,,,,,,,ssf,1,2024-06-28_16h13.45.416,DCT_v1_online,2021.2.3,Win32,60.24096386,,,0.258,2.992,110,down,1,left,1,0,93,93,57,1,58,congruent,down,down,congruent,Stim/Acon.png,down,0,-0.1,180,4,1000,incongruent,left,left,congruent,Stim/Aincon.png,left,-0.1,0,90,5,2000,stimuli\\,0.5072,0.5253,2.242,,,,,,,,,,,,
,,,,,,,,,,ssf,1,2024-06-28_16h13.45.416,DCT_v1_online,2021.2.3,Win32,60.24096386,,,0.149,3.101,111,up,1,left,1,0,94,94,109,1,110,incongruent,down,up,incongruent,Stim/Aincon.png,up,0,-0.1,0,7,1000,incongruent,right,left,incongruent,Stim/Aincon.png,left,0.1,0,90,7,2000,stimuli\\,0.7378,0.7348,2.351,,,,,,,,,,,,
,,,,,,,,,,ssf,1,2024-06-28_16h13.45.416,DCT_v1_online,2021.2.3,Win32,60.24096386,,,0.403,1.947,112,down,1,left,1,0,95,95,52,1,53,congruent,down,down,congruent,Stim/Acon.png,down,0,-0.1,180,4,100,congruent,right,left,incongruent,Stim/Acon.png,left,0.1,0,90,3,2000,stimuli\\,0.8224,0.9842,2.097,,,,,,,,,,,,
,,,,,,,,,,ssf,1,2024-06-28_16h13.45.416,DCT_v1_online,2021.2.3,Win32,60.24096386,,,0.126,3.124,113,down,1,left,1,0,96,96,125,1,126,incongruent,down,down,congruent,Stim/Aincon.png,down,0,-0.1,180,8,1000,incongruent,right,left,incongruent,Stim/Aincon.png,left,0.1,0,90,7,2000,stimuli\\,0.6322,0.8622,2.374,,,,,,,,,,,,
,,,,,,,,,,ssf,1,2024-06-28_16h13.45.416,DCT_v1_online,2021.2.3,Win32,60.24096386,,,0.003,2.347,114,down,1,left,1,0,97,97,24,1,25,congruent,up,down,incongruent,Stim/Acon.png,down,0,0.1,180,2,100,incongruent,left,left,congruent,Stim/Aincon.png,left,-0.1,0,90,5,2000,stimuli\\,0.736,0.9585,2.497,,,,,,,,,,,,
,,,,,,,,,,ssf,1,2024-06-28_16h13.45.416,DCT_v1_online,2021.2.3,Win32,60.24096386,,,0.362,1.988,115,up,1,left,1,0,98,98,96,1,97,incongruent,down,up,incongruent,Stim/Aincon.png,up,0,-0.1,0,7,100,congruent,left,left,congruent,Stim/Acon.png,left,-0.1,0,90,1,2000,stimuli\\,0.9495,1.1242,2.138,,,,,,,,,,,,
,,,,,,,,,,ssf,1,2024-06-28_16h13.45.416,DCT_v1_online,2021.2.3,Win32,60.24096386,,,0.312,2.038,116,up,1,right,1,0,99,99,38,1,39,congruent,down,up,incongruent,Stim/Acon.png,up,0,-0.1,0,3,100,congruent,right,right,congruent,Stim/Acon.png,right,0.1,0,-90,4,2000,stimuli\\,0.8835,1.2376,2.188,,,,,,,,,,,,
,,,,,,,,,,ssf,1,2024-06-28_16h13.45.416,DCT_v1_online,2021.2.3,Win32,60.24096386,,,0.01,2.34,117,up,1,right,1,0,100,100,14,1,15,congruent,up,up,congruent,Stim/Acon.png,up,0,0.1,0,1,100,incongruent,right,right,congruent,Stim/Aincon.png,right,0.1,0,-90,8,2000,stimuli\\,0.7338,1.0686,2.49,,,,,,,,,,,,
,,,,,,,,,,ssf,1,2024-06-28_16h13.45.416,DCT_v1_online,2021.2.3,Win32,60.24096386,,,0.174,3.076,118,up,1,right,1,0,101,101,15,1,16,congruent,up,up,congruent,Stim/Acon.png,up,0,0.1,0,1,1000,incongruent,right,right,congruent,Stim/Aincon.png,right,0.1,0,-90,8,2000,stimuli\\,0.4853,1.0177,2.326,,,,,,,,,,,,
,,,,,,,,,,ssf,1,2024-06-28_16h13.45.416,DCT_v1_online,2021.2.3,Win32,60.24096386,,,0.494,2.756,119,down,1,left,1,0,102,102,53,1,54,congruent,down,down,congruent,Stim/Acon.png,down,0,-0.1,180,4,1000,congruent,right,left,incongruent,Stim/Acon.png,left,0.1,0,90,3,2000,stimuli\\,0.543,0.661,2.006,,,,,,,,,,,,
,,,,,,,,,,ssf,1,2024-06-28_16h13.45.416,DCT_v1_online,2021.2.3,Win32,60.24096386,,,0.113,3.137,120,up,1,right,1,0,103,103,43,1,44,congruent,down,up,incongruent,Stim/Acon.png,up,0,-0.1,0,3,1000,incongruent,left,right,incongruent,Stim/Aincon.png,right,-0.1,0,-90,6,2000,stimuli\\,0.602,0.6833,2.387,,,,,,,,,,,,
,,,,,,,,,,ssf,1,2024-06-28_16h13.45.416,DCT_v1_online,2021.2.3,Win32,60.24096386,,,0.353,1.997,121,up,1,left,1,0,104,104,4,1,5,congruent,up,up,congruent,Stim/Acon.png,up,0,0.1,0,1,100,congruent,right,left,incongruent,Stim/Acon.png,left,0.1,0,90,3,2000,stimuli\\,0.4748,0.7993,2.147,,,,,,,,,,,,
,,,,,,,,,,ssf,1,2024-06-28_16h13.45.416,DCT_v1_online,2021.2.3,Win32,60.24096386,,,0.363,2.887,122,up,1,right,1,0,105,105,79,1,80,incongruent,up,up,congruent,Stim/Aincon.png,up,0,0.1,0,5,1000,incongruent,right,right,congruent,Stim/Aincon.png,right,0.1,0,-90,8,2000,stimuli\\,0.8001,0.7722,2.137,,,,,,,,,,,,
,,,,,,,,,,ssf,1,2024-06-28_16h13.45.416,DCT_v1_online,2021.2.3,Win32,60.24096386,,,0.235,3.015,123,up,0,right,1,0,106,106,123,1,124,incongruent,down,down,congruent,Stim/Aincon.png,down,0,-0.1,180,8,1000,incongruent,left,right,incongruent,Stim/Aincon.png,right,-0.1,0,-90,6,2000,stimuli\\,0.6185,0.5688,2.265,,,,,,,,,,,,
,,,,,,,,,,ssf,1,2024-06-28_16h13.45.416,DCT_v1_online,2021.2.3,Win32,60.24096386,,,0.285,2.065,124,up,1,left,1,0,107,107,64,1,65,incongruent,up,up,congruent,Stim/Aincon.png,up,0,0.1,0,5,100,congruent,left,left,congruent,Stim/Acon.png,left,-0.1,0,90,1,2000,stimuli\\,0.8709,1.1067,2.215,,,,,,,,,,,,
,,,,,,,,,,ssf,1,2024-06-28_16h13.45.416,DCT_v1_online,2021.2.3,Win32,60.24096386,,,0.191,3.059,125,down,1,right,1,0,108,108,127,1,128,incongruent,down,down,congruent,Stim/Aincon.png,down,0,-0.1,180,8,1000,incongruent,right,right,congruent,Stim/Aincon.png,right,0.1,0,-90,8,2000,stimuli\\,0.8926,0.788,2.309,,,,,,,,,,,,
,,,,,,,,,,ssf,1,2024-06-28_16h13.45.416,DCT_v1_online,2021.2.3,Win32,60.24096386,,,0.01,2.34,126,up,1,left,1,0,109,109,72,1,73,incongruent,up,up,congruent,Stim/Aincon.png,up,0,0.1,0,5,100,incongruent,left,left,congruent,Stim/Aincon.png,left,-0.1,0,90,5,2000,stimuli\\,0.669,0.9191,2.49,,,,,,,,,,,,
,,,,,,,,,,ssf,1,2024-06-28_16h13.45.416,DCT_v1_online,2021.2.3,Win32,60.24096386,,,0.145,3.105,127,down,0,right,1,0,110,110,99,1,100,incongruent,down,up,incongruent,Stim/Aincon.png,up,0,-0.1,0,7,1000,congruent,left,right,incongruent,Stim/Acon.png,right,-0.1,0,-90,2,2000,stimuli\\,0.6813,0.5696,2.355,,,,,,,,,,,,
,,,,,,,,,,ssf,1,2024-06-28_16h13.45.416,DCT_v1_online,2021.2.3,Win32,60.24096386,,,0.009,2.341,128,down,1,left,1,0,111,111,88,1,89,incongruent,up,down,incongruent,Stim/Aincon.png,down,0,0.1,180,6,100,incongruent,left,left,congruent,Stim/Aincon.png,left,-0.1,0,90,5,2000,stimuli\\,0.722,1.0909,2.491,,,,,,,,,,,,
,,,,,,,,,,ssf,1,2024-06-28_16h13.45.416,DCT_v1_online,2021.2.3,Win32,60.24096386,,,0.417,1.933,129,up,1,right,1,0,112,112,66,1,67,incongruent,up,up,congruent,Stim/Aincon.png,up,0,0.1,0,5,100,congruent,left,right,incongruent,Stim/Acon.png,right,-0.1,0,-90,2,2000,stimuli\\,0.9193,1.1835,2.083,,,,,,,,,,,,
,,,,,,,,,,ssf,1,2024-06-28_16h13.45.416,DCT_v1_online,2021.2.3,Win32,60.24096386,,,0.232,3.018,130,down,1,right,1,0,113,113,55,1,56,congruent,down,down,congruent,Stim/Acon.png,down,0,-0.1,180,4,1000,congruent,right,right,congruent,Stim/Acon.png,right,0.1,0,-90,4,2000,stimuli\\,0.6166,0.4733,2.268,,,,,,,,,,,,
,,,,,,,,,,ssf,1,2024-06-28_16h13.45.416,DCT_v1_online,2021.2.3,Win32,60.24096386,,,0.48,2.77,131,up,1,left,1,0,114,114,101,1,102,incongruent,down,up,incongruent,Stim/Aincon.png,up,0,-0.1,0,7,1000,congruent,right,left,incongruent,Stim/Acon.png,left,0.1,0,90,3,2000,stimuli\\,0.7897,0.6503,2.02,,,,,,,,,,,,
,,,,,,,,,,ssf,1,2024-06-28_16h13.45.416,DCT_v1_online,2021.2.3,Win32,60.24096386,,,0.44,1.91,132,up,1,left,1,0,115,115,36,1,37,congruent,down,up,incongruent,Stim/Acon.png,up,0,-0.1,0,3,100,congruent,right,left,incongruent,Stim/Acon.png,left,0.1,0,90,3,2000,stimuli\\,0.7693,0.9931,2.06,,,,,,,,,,,,
,,,,,,,,,,ssf,1,2024-06-28_16h13.45.416,DCT_v1_online,2021.2.3,Win32,60.24096386,,,0.454,2.796,133,up,1,left,1,0,116,116,77,1,78,incongruent,up,up,congruent,Stim/Aincon.png,up,0,0.1,0,5,1000,incongruent,right,left,incongruent,Stim/Aincon.png,left,0.1,0,90,7,2000,stimuli\\,0.7878,0.7171,2.046,,,,,,,,,,,,
,,,,,,,,,,ssf,1,2024-06-28_16h13.45.416,DCT_v1_online,2021.2.3,Win32,60.24096386,,,0.476,1.874,134,down,1,right,1,0,117,117,82,1,83,incongruent,up,down,incongruent,Stim/Aincon.png,down,0,0.1,180,6,100,congruent,left,right,incongruent,Stim/Acon.png,right,-0.1,0,-90,2,2000,stimuli\\,0.8087,1.1663,2.024,,,,,,,,,,,,
,,,,,,,,,,ssf,1,2024-06-28_16h13.45.416,DCT_v1_online,2021.2.3,Win32,60.24096386,,,0.315,2.935,135,down,1,right,1,0,118,118,19,1,20,congruent,up,down,incongruent,Stim/Acon.png,down,0,0.1,180,2,1000,congruent,left,right,incongruent,Stim/Acon.png,right,-0.1,0,-90,2,2000,stimuli\\,0.5159,0.4752,2.185,,,,,,,,,,,,
,,,,,,,,,,ssf,1,2024-06-28_16h13.45.416,DCT_v1_online,2021.2.3,Win32,60.24096386,,,0.004,2.346,136,down,1,left,1,0,119,119,124,1,125,incongruent,down,down,congruent,Stim/Aincon.png,down,0,-0.1,180,8,100,incongruent,right,left,incongruent,Stim/Aincon.png,left,0.1,0,90,7,2000,stimuli\\,0.951,1.2081,2.496,,,,,,,,,,,,
,,,,,,,,,,ssf,1,2024-06-28_16h13.45.416,DCT_v1_online,2021.2.3,Win32,60.24096386,,,0.138,3.112,137,up,1,left,1,0,120,120,9,1,10,congruent,up,up,congruent,Stim/Acon.png,up,0,0.1,0,1,1000,incongruent,left,left,congruent,Stim/Aincon.png,left,-0.1,0,90,5,2000,stimuli\\,0.4928,0.6262,2.362,,,,,,,,,,,,
,,,,,,,,,,ssf,1,2024-06-28_16h13.45.416,DCT_v1_online,2021.2.3,Win32,60.24096386,,,0.245,2.105,138,down,1,right,1,0,121,121,118,1,119,incongruent,down,down,congruent,Stim/Aincon.png,down,0,-0.1,180,8,100,congruent,right,right,congruent,Stim/Acon.png,right,0.1,0,-90,4,2000,stimuli\\,0.7104,0.9248,2.255,,,,,,,,,,,,
,,,,,,,,,,ssf,1,2024-06-28_16h13.45.416,DCT_v1_online,2021.2.3,Win32,60.24096386,,,0.044,3.206,139,down,1,left,1,0,122,122,113,1,114,incongruent,down,down,congruent,Stim/Aincon.png,down,0,-0.1,180,8,1000,congruent,left,left,congruent,Stim/Acon.png,left,-0.1,0,90,1,2000,stimuli\\,0.7484,0.4025,2.456,,,,,,,,,,,,
,,,,,,,,,,ssf,1,2024-06-28_16h13.45.416,DCT_v1_online,2021.2.3,Win32,60.24096386,,,0.484,1.866,140,down,0,left,1,0,123,123,76,1,77,incongruent,up,up,congruent,Stim/Aincon.png,up,0,0.1,0,5,100,incongruent,right,left,incongruent,Stim/Aincon.png,left,0.1,0,90,7,2000,stimuli\\,0.4989,1.0894,2.016,,,,,,,,,,,,
,,,,,,,,,,ssf,1,2024-06-28_16h13.45.416,DCT_v1_online,2021.2.3,Win32,60.24096386,,,0.111,2.239,141,down,1,right,1,0,124,124,86,1,87,incongruent,up,down,incongruent,Stim/Aincon.png,down,0,0.1,180,6,100,congruent,right,right,congruent,Stim/Acon.png,right,0.1,0,-90,4,2000,stimuli\\,0.767,1.0417,2.389,,,,,,,,,,,,
,,,,,,,,,,ssf,1,2024-06-28_16h13.45.416,DCT_v1_online,2021.2.3,Win32,60.24096386,,,0.454,2.796,142,down,1,left,1,0,125,125,17,1,18,congruent,up,down,incongruent,Stim/Acon.png,down,0,0.1,180,2,1000,congruent,left,left,congruent,Stim/Acon.png,left,-0.1,0,90,1,2000,stimuli\\,0.5564,0.4444,2.046,,,,,,,,,,,,
,,,,,,,,,,ssf,1,2024-06-28_16h13.45.416,DCT_v1_online,2021.2.3,Win32,60.24096386,,,0.055,2.295,143,down,1,right,1,0,126,126,90,1,91,incongruent,up,down,incongruent,Stim/Aincon.png,down,0,0.1,180,6,100,incongruent,left,right,incongruent,Stim/Aincon.png,right,-0.1,0,-90,6,2000,stimuli\\,0.6697,1.1559,2.445,,,,,,,,,,,,
,,,,,,,,,,ssf,1,2024-06-28_16h13.45.416,DCT_v1_online,2021.2.3,Win32,60.24096386,,,0.374,1.976,144,down,1,left,1,0,127,127,48,1,49,congruent,down,down,congruent,Stim/Acon.png,down,0,-0.1,180,4,100,congruent,left,left,congruent,Stim/Acon.png,left,-0.1,0,90,1,2000,stimuli\\,0.8456,0.9879,2.126,,,,,,,,,,,,
,,,,,,,,,,ssf,1,2024-06-28_16h13.45.416,DCT_v1_online,2021.2.3,Win32,60.24096386,,,,,,,,,,,,,,,,,,,,,,,,,,,,,,,,,,,,,,,,,,space,34.5921,0,1,1,1,1,Instructions/i5.png,test,conditions/block1.xlsx,1.2,0.8
,,,,,,,,,,ssf,1,2024-06-28_16h13.45.416,DCT_v1_online,2021.2.3,Win32,60.24096386,space,8.7526,0.048,3.202,145,up,1,right,1,0,0,0,47,1,48,congruent,down,up,incongruent,Stim/Acon.png,up,0,-0.1,0,3,1000,incongruent,right,right,congruent,Stim/Aincon.png,right,0.1,0,-90,8,2000,stimuli\\,0.6687,0.7568,2.452,,,,,,,,,,,,
,,,,,,,,,,ssf,1,2024-06-28_16h13.45.416,DCT_v1_online,2021.2.3,Win32,60.24096386,,,0.036,3.214,146,down,1,left,1,0,1,1,125,1,126,incongruent,down,down,congruent,Stim/Aincon.png,down,0,-0.1,180,8,1000,incongruent,right,left,incongruent,Stim/Aincon.png,left,0.1,0,90,7,2000,stimuli\\,0.7977,0.8084,2.464,,,,,,,,,,,,
,,,,,,,,,,ssf,1,2024-06-28_16h13.45.416,DCT_v1_online,2021.2.3,Win32,60.24096386,,,0.483,2.767,147,down,1,left,1,0,2,2,113,1,114,incongruent,down,down,congruent,Stim/Aincon.png,down,0,-0.1,180,8,1000,congruent,left,left,congruent,Stim/Acon.png,left,-0.1,0,90,1,2000,stimuli\\,0.649,0.4455,2.017,,,,,,,,,,,,
,,,,,,,,,,ssf,1,2024-06-28_16h13.45.416,DCT_v1_online,2021.2.3,Win32,60.24096386,,,0.289,2.961,148,up,1,right,1,0,3,3,43,1,44,congruent,down,up,incongruent,Stim/Acon.png,up,0,-0.1,0,3,1000,incongruent,left,right,incongruent,Stim/Aincon.png,right,-0.1,0,-90,6,2000,stimuli\\,0.5999,0.5845,2.211,,,,,,,,,,,,
,,,,,,,,,,ssf,1,2024-06-28_16h13.45.416,DCT_v1_online,2021.2.3,Win32,60.24096386,,,0.43,1.92,149,up,1,right,1,0,4,4,46,1,47,congruent,down,up,incongruent,Stim/Acon.png,up,0,-0.1,0,3,100,incongruent,right,right,congruent,Stim/Aincon.png,right,0.1,0,-90,8,2000,stimuli\\,0.6677,0.975,2.07,,,,,,,,,,,,
,,,,,,,,,,ssf,1,2024-06-28_16h13.45.416,DCT_v1_online,2021.2.3,Win32,60.24096386,,,0.467,1.883,150,up,1,right,1,0,5,5,98,1,99,incongruent,down,up,incongruent,Stim/Aincon.png,up,0,-0.1,0,7,100,congruent,left,right,incongruent,Stim/Acon.png,right,-0.1,0,-90,2,2000,stimuli\\,0.7092,0.9075,2.033,,,,,,,,,,,,
,,,,,,,,,,ssf,1,2024-06-28_16h13.45.416,DCT_v1_online,2021.2.3,Win32,60.24096386,,,0.213,2.137,151,up,1,left,1,0,6,6,40,1,41,congruent,down,up,incongruent,Stim/Acon.png,up,0,-0.1,0,3,100,incongruent,left,left,congruent,Stim/Aincon.png,left,-0.1,0,90,5,2000,stimuli\\,0.6063,0.723,2.287,,,,,,,,,,,,
,,,,,,,,,,ssf,1,2024-06-28_16h13.45.416,DCT_v1_online,2021.2.3,Win32,60.24096386,,,0.456,1.894,152,down,1,right,0,0,7,7,60,1,61,congruent,down,down,congruent,Stim/Acon.png,down,0,-0.1,180,4,100,incongruent,right,left,incongruent,Stim/Aincon.png,left,0.1,0,90,7,2000,stimuli\\,0.5534,0.7078,2.044,,,,,,,,,,,,
,,,,,,,,,,ssf,1,2024-06-28_16h13.45.416,DCT_v1_online,2021.2.3,Win32,60.24096386,,,0.053,3.197,153,down,1,right,1,0,8,8,95,1,96,incongruent,up,down,incongruent,Stim/Aincon.png,down,0,0.1,180,6,1000,incongruent,right,right,congruent,Stim/Aincon.png,right,0.1,0,-90,8,2000,stimuli\\,0.769,0.7989,2.447,,,,,,,,,,,,
,,,,,,,,,,ssf,1,2024-06-28_16h13.45.416,DCT_v1_online,2021.2.3,Win32,60.24096386,,,0.266,2.984,154,up,1,right,1,0,9,9,7,1,8,congruent,up,up,congruent,Stim/Acon.png,up,0,0.1,0,1,1000,congruent,right,right,congruent,Stim/Acon.png,right,0.1,0,-90,4,2000,stimuli\\,0.5104,0.5343,2.234,,,,,,,,,,,,
,,,,,,,,,,ssf,1,2024-06-28_16h13.45.416,DCT_v1_online,2021.2.3,Win32,60.24096386,,,0.455,2.795,155,down,1,left,1,0,10,10,21,1,22,congruent,up,down,incongruent,Stim/Acon.png,down,0,0.1,180,2,1000,congruent,right,left,incongruent,Stim/Acon.png,left,0.1,0,90,3,2000,stimuli\\,0.5983,0.5418,2.045,,,,,,,,,,,,
,,,,,,,,,,ssf,1,2024-06-28_16h13.45.416,DCT_v1_online,2021.2.3,Win32,60.24096386,,,0.469,1.881,156,up,1,left,1,0,11,11,96,1,97,incongruent,down,up,incongruent,Stim/Aincon.png,up,0,-0.1,0,7,100,congruent,left,left,congruent,Stim/Acon.png,left,-0.1,0,90,1,2000,stimuli\\,0.7425,1.1129,2.031,,,,,,,,,,,,
,,,,,,,,,,ssf,1,2024-06-28_16h13.45.416,DCT_v1_online,2021.2.3,Win32,60.24096386,,,0.006,3.244,157,down,1,right,1,0,12,12,83,1,84,incongruent,up,down,incongruent,Stim/Aincon.png,down,0,0.1,180,6,1000,congruent,left,right,incongruent,Stim/Acon.png,right,-0.1,0,-90,2,2000,stimuli\\,0.7529,0.6,2.494,,,,,,,,,,,,
,,,,,,,,,,ssf,1,2024-06-28_16h13.45.416,DCT_v1_online,2021.2.3,Win32,60.24096386,,,0.396,2.854,158,down,1,right,1,0,13,13,55,1,56,congruent,down,down,congruent,Stim/Acon.png,down,0,-0.1,180,4,1000,congruent,right,right,congruent,Stim/Acon.png,right,0.1,0,-90,4,2000,stimuli\\,0.4905,0.4516,2.104,,,,,,,,,,,,
,,,,,,,,,,ssf,1,2024-06-28_16h13.45.416,DCT_v1_online,2021.2.3,Win32,60.24096386,,,0.482,1.868,159,up,1,left,1,0,14,14,100,1,101,incongruent,down,up,incongruent,Stim/Aincon.png,up,0,-0.1,0,7,100,congruent,right,left,incongruent,Stim/Acon.png,left,0.1,0,90,3,2000,stimuli\\,0.7864,1.1434,2.018,,,,,,,,,,,,
,,,,,,,,,,ssf,1,2024-06-28_16h13.45.416,DCT_v1_online,2021.2.3,Win32,60.24096386,,,0.117,2.233,160,down,1,left,1,0,15,15,84,1,85,incongruent,up,down,incongruent,Stim/Aincon.png,down,0,0.1,180,6,100,congruent,right,left,incongruent,Stim/Acon.png,left,0.1,0,90,3,2000,stimuli\\,0.8833,1.1938,2.383,,,,,,,,,,,,
,,,,,,,,,,ssf,1,2024-06-28_16h13.45.416,DCT_v1_online,2021.2.3,Win32,60.24096386,,,0.105,3.145,161,up,1,left,1,0,16,16,33,1,34,congruent,down,up,incongruent,Stim/Acon.png,up,0,-0.1,0,3,1000,congruent,left,left,congruent,Stim/Acon.png,left,-0.1,0,90,1,2000,stimuli\\,0.6007,0.3917,2.395,,,,,,,,,,,,
,,,,,,,,,,ssf,1,2024-06-28_16h13.45.416,DCT_v1_online,2021.2.3,Win32,60.24096386,,,0.076,2.274,162,down,1,right,1,0,17,17,54,1,55,congruent,down,down,congruent,Stim/Acon.png,down,0,-0.1,180,4,100,congruent,right,right,congruent,Stim/Acon.png,right,0.1,0,-90,4,2000,stimuli\\,0.5928,0.8612,2.424,,,,,,,,,,,,
,,,,,,,,,,ssf,1,2024-06-28_16h13.45.416,DCT_v1_online,2021.2.3,Win32,60.24096386,,,0.096,2.254,163,up,1,left,1,0,18,18,36,1,37,congruent,down,up,incongruent,Stim/Acon.png,up,0,-0.1,0,3,100,congruent,right,left,incongruent,Stim/Acon.png,left,0.1,0,90,3,2000,stimuli\\,0.7822,1.0002,2.404,,,,,,,,,,,,
,,,,,,,,,,ssf,1,2024-06-28_16h13.45.416,DCT_v1_online,2021.2.3,Win32,60.24096386,,,0.015,2.335,164,down,1,right,1,0,19,19,114,1,115,incongruent,down,down,congruent,Stim/Aincon.png,down,0,-0.1,180,8,100,congruent,left,right,incongruent,Stim/Acon.png,right,-0.1,0,-90,2,2000,stimuli\\,0.8501,1.2037,2.485,,,,,,,,,,,,
,,,,,,,,,,ssf,1,2024-06-28_16h13.45.416,DCT_v1_online,2021.2.3,Win32,60.24096386,,,0.479,1.871,165,up,1,left,1,0,20,20,72,1,73,incongruent,up,up,congruent,Stim/Aincon.png,up,0,0.1,0,5,100,incongruent,left,left,congruent,Stim/Aincon.png,left,-0.1,0,90,5,2000,stimuli\\,0.7494,1.1296,2.021,,,,,,,,,,,,
,,,,,,,,,,ssf,1,2024-06-28_16h13.45.416,DCT_v1_online,2021.2.3,Win32,60.24096386,,,0.103,3.147,166,down,0,left,0,0,21,21,75,1,76,incongruent,up,up,congruent,Stim/Aincon.png,up,0,0.1,0,5,1000,incongruent,left,right,incongruent,Stim/Aincon.png,right,-0.1,0,-90,6,2000,stimuli\\,0.7005,0.4164,2.397,,,,,,,,,,,,
,,,,,,,,,,ssf,1,2024-06-28_16h13.45.416,DCT_v1_online,2021.2.3,Win32,60.24096386,,,0.335,2.915,167,down,1,left,1,0,22,22,121,1,122,incongruent,down,down,congruent,Stim/Aincon.png,down,0,-0.1,180,8,1000,incongruent,left,left,congruent,Stim/Aincon.png,left,-0.1,0,90,5,2000,stimuli\\,0.7753,0.5996,2.165,,,,,,,,,,,,
,,,,,,,,,,ssf,1,2024-06-28_16h13.45.416,DCT_v1_online,2021.2.3,Win32,60.24096386,,,0.202,2.148,168,down,1,left,1,0,23,23,88,1,89,incongruent,up,down,incongruent,Stim/Aincon.png,down,0,0.1,180,6,100,incongruent,left,left,congruent,Stim/Aincon.png,left,-0.1,0,90,5,2000,stimuli\\,0.6836,0.9901,2.298,,,,,,,,,,,,
,,,,,,,,,,ssf,1,2024-06-28_16h13.45.416,DCT_v1_online,2021.2.3,Win32,60.24096386,,,0.324,2.026,169,up,1,left,1,0,24,24,104,1,105,incongruent,down,up,incongruent,Stim/Aincon.png,up,0,-0.1,0,7,100,incongruent,left,left,congruent,Stim/Aincon.png,left,-0.1,0,90,5,2000,stimuli\\,0.7666,1.002,2.176,,,,,,,,,,,,
,,,,,,,,,,ssf,1,2024-06-28_16h13.45.416,DCT_v1_online,2021.2.3,Win32,60.24096386,,,0.34,2.91,170,down,1,left,1,0,25,25,25,1,26,congruent,up,down,incongruent,Stim/Acon.png,down,0,0.1,180,2,1000,incongruent,left,left,congruent,Stim/Aincon.png,left,-0.1,0,90,5,2000,stimuli\\,0.8284,0.6416,2.16,,,,,,,,,,,,
,,,,,,,,,,ssf,1,2024-06-28_16h13.45.416,DCT_v1_online,2021.2.3,Win32,60.24096386,,,0.467,1.883,171,down,1,right,1,0,26,26,50,1,51,congruent,down,down,congruent,Stim/Acon.png,down,0,-0.1,180,4,100,congruent,left,right,incongruent,Stim/Acon.png,right,-0.1,0,-90,2,2000,stimuli\\,0.6834,1.1043,2.033,,,,,,,,,,,,
,,,,,,,,,,ssf,1,2024-06-28_16h13.45.416,DCT_v1_online,2021.2.3,Win32,60.24096386,,,0.308,2.942,172,up,1,left,1,0,27,27,5,1,6,congruent,up,up,congruent,Stim/Acon.png,up,0,0.1,0,1,1000,congruent,right,left,incongruent,Stim/Acon.png,left,0.1,0,90,3,2000,stimuli\\,0.549,0.6082,2.192,,,,,,,,,,,,
,,,,,,,,,,ssf,1,2024-06-28_16h13.45.416,DCT_v1_online,2021.2.3,Win32,60.24096386,,,0.419,1.931,173,down,1,left,1,0,28,28,120,1,121,incongruent,down,down,congruent,Stim/Aincon.png,down,0,-0.1,180,8,100,incongruent,left,left,congruent,Stim/Aincon.png,left,-0.1,0,90,5,2000,stimuli\\,0.8477,1.1014,2.081,,,,,,,,,,,,
,,,,,,,,,,ssf,1,2024-06-28_16h13.45.416,DCT_v1_online,2021.2.3,Win32,60.24096386,,,0.225,2.125,174,up,1,right,1,0,29,29,38,1,39,congruent,down,up,incongruent,Stim/Acon.png,up,0,-0.1,0,3,100,congruent,right,right,congruent,Stim/Acon.png,right,0.1,0,-90,4,2000,stimuli\\,0.8028,1.1992,2.275,,,,,,,,,,,,
,,,,,,,,,,ssf,1,2024-06-28_16h13.45.416,DCT_v1_online,2021.2.3,Win32,60.24096386,,,0.378,1.972,175,up,1,right,1,0,30,30,66,1,67,incongruent,up,up,congruent,Stim/Aincon.png,up,0,0.1,0,5,100,congruent,left,right,incongruent,Stim/Acon.png,right,-0.1,0,-90,2,2000,stimuli\\,0.7816,1.0686,2.122,,,,,,,,,,,,
,,,,,,,,,,ssf,1,2024-06-28_16h13.45.416,DCT_v1_online,2021.2.3,Win32,60.24096386,,,0.461,2.789,176,down,1,right,1,0,31,31,119,1,120,incongruent,down,down,congruent,Stim/Aincon.png,down,0,-0.1,180,8,1000,congruent,right,right,congruent,Stim/Acon.png,right,0.1,0,-90,4,2000,stimuli\\,0.6726,0.4834,2.039,,,,,,,,,,,,
,,,,,,,,,,ssf,1,2024-06-28_16h13.45.416,DCT_v1_online,2021.2.3,Win32,60.24096386,,,0.448,1.902,177,down,1,right,1,0,32,32,90,1,91,incongruent,up,down,incongruent,Stim/Aincon.png,down,0,0.1,180,6,100,incongruent,left,right,incongruent,Stim/Aincon.png,right,-0.1,0,-90,6,2000,stimuli\\,0.8669,1.1538,2.052,,,,,,,,,,,,
,,,,,,,,,,ssf,1,2024-06-28_16h13.45.416,DCT_v1_online,2021.2.3,Win32,60.24096386,,,0.132,2.218,178,up,1,left,1,0,33,33,64,1,65,incongruent,up,up,congruent,Stim/Aincon.png,up,0,0.1,0,5,100,congruent,left,left,congruent,Stim/Acon.png,left,-0.1,0,90,1,2000,stimuli\\,0.9254,1.1248,2.368,,,,,,,,,,,,
,,,,,,,,,,ssf,1,2024-06-28_16h13.45.416,DCT_v1_online,2021.2.3,Win32,60.24096386,,,0.489,1.861,179,down,1,right,1,0,34,34,118,1,119,incongruent,down,down,congruent,Stim/Aincon.png,down,0,-0.1,180,8,100,congruent,right,right,congruent,Stim/Acon.png,right,0.1,0,-90,4,2000,stimuli\\,0.7987,0.9899,2.011,,,,,,,,,,,,
,,,,,,,,,,ssf,1,2024-06-28_16h13.45.416,DCT_v1_online,2021.2.3,Win32,60.24096386,,,0.263,2.987,180,down,1,right,1,0,35,35,59,1,60,congruent,down,down,congruent,Stim/Acon.png,down,0,-0.1,180,4,1000,incongruent,left,right,incongruent,Stim/Aincon.png,right,-0.1,0,-90,6,2000,stimuli\\,0.5941,0.7003,2.237,,,,,,,,,,,,
,,,,,,,,,,ssf,1,2024-06-28_16h13.45.416,DCT_v1_online,2021.2.3,Win32,60.24096386,,,0.305,2.945,181,up,1,left,1,0,36,36,77,1,78,incongruent,up,up,congruent,Stim/Aincon.png,up,0,0.1,0,5,1000,incongruent,right,left,incongruent,Stim/Aincon.png,left,0.1,0,90,7,2000,stimuli\\,0.6649,0.6418,2.195,,,,,,,,,,,,
,,,,,,,,,,ssf,1,2024-06-28_16h13.45.416,DCT_v1_online,2021.2.3,Win32,60.24096386,,,0.225,3.025,182,up,1,right,1,0,37,37,39,1,40,congruent,down,up,incongruent,Stim/Acon.png,up,0,-0.1,0,3,1000,congruent,right,right,congruent,Stim/Acon.png,right,0.1,0,-90,4,2000,stimuli\\,0.5818,0.6928,2.275,,,,,,,,,,,,
,,,,,,,,,,ssf,1,2024-06-28_16h13.45.416,DCT_v1_online,2021.2.3,Win32,60.24096386,,,0.005,3.245,183,down,1,right,1,0,38,38,91,1,92,incongruent,up,down,incongruent,Stim/Aincon.png,down,0,0.1,180,6,1000,incongruent,left,right,incongruent,Stim/Aincon.png,right,-0.1,0,-90,6,2000,stimuli\\,0.6038,0.5074,2.495,,,,,,,,,,,,
,,,,,,,,,,ssf,1,2024-06-28_16h13.45.416,DCT_v1_online,2021.2.3,Win32,60.24096386,,,0.129,2.221,184,down,1,right,1,0,39,39,126,1,127,incongruent,down,down,congruent,Stim/Aincon.png,down,0,-0.1,180,8,100,incongruent,right,right,congruent,Stim/Aincon.png,right,0.1,0,-90,8,2000,stimuli\\,0.6884,1.0254,2.371,,,,,,,,,,,,
,,,,,,,,,,ssf,1,2024-06-28_16h13.45.416,DCT_v1_online,2021.2.3,Win32,60.24096386,,,0.262,2.088,185,up,1,right,1,0,40,40,102,1,103,incongruent,down,up,incongruent,Stim/Aincon.png,up,0,-0.1,0,7,100,congruent,right,right,congruent,Stim/Acon.png,right,0.1,0,-90,4,2000,stimuli\\,0.7003,0.9333,2.238,,,,,,,,,,,,
,,,,,,,,,,ssf,1,2024-06-28_16h13.45.416,DCT_v1_online,2021.2.3,Win32,60.24096386,,,0.184,2.166,186,down,1,right,1,0,41,41,18,1,19,congruent,up,down,incongruent,Stim/Acon.png,down,0,0.1,180,2,100,congruent,left,right,incongruent,Stim/Acon.png,right,-0.1,0,-90,2,2000,stimuli\\,0.5095,0.8884,2.316,,,,,,,,,,,,
,,,,,,,,,,ssf,1,2024-06-28_16h13.45.416,DCT_v1_online,2021.2.3,Win32,60.24096386,,,0.098,2.252,187,down,1,right,1,0,42,42,122,1,123,incongruent,down,down,congruent,Stim/Aincon.png,down,0,-0.1,180,8,100,incongruent,left,right,incongruent,Stim/Aincon.png,right,-0.1,0,-90,6,2000,stimuli\\,0.7643,1.1123,2.402,,,,,,,,,,,,
,,,,,,,,,,ssf,1,2024-06-28_16h13.45.416,DCT_v1_online,2021.2.3,Win32,60.24096386,,,0.346,2.904,188,up,1,right,1,0,43,43,3,1,4,congruent,up,up,congruent,Stim/Acon.png,up,0,0.1,0,1,1000,congruent,left,right,incongruent,Stim/Acon.png,right,-0.1,0,-90,2,2000,stimuli\\,0.514,0.5664,2.154,,,,,,,,,,,,
,,,,,,,,,,ssf,1,2024-06-28_16h13.45.416,DCT_v1_online,2021.2.3,Win32,60.24096386,,,0.249,2.101,189,up,1,left,1,0,44,44,12,1,13,congruent,up,up,congruent,Stim/Acon.png,up,0,0.1,0,1,100,incongruent,right,left,incongruent,Stim/Aincon.png,left,0.1,0,90,7,2000,stimuli\\,0.5126,0.9426,2.251,,,,,,,,,,,,
,,,,,,,,,,ssf,1,2024-06-28_16h13.45.416,DCT_v1_online,2021.2.3,Win32,60.24096386,,,0.048,3.202,190,down,1,left,1,0,45,45,29,1,30,congruent,up,down,incongruent,Stim/Acon.png,down,0,0.1,180,2,1000,incongruent,right,left,incongruent,Stim/Aincon.png,left,0.1,0,90,7,2000,stimuli\\,0.578,0.7543,2.452,,,,,,,,,,,,
,,,,,,,,,,ssf,1,2024-06-28_16h13.45.416,DCT_v1_online,2021.2.3,Win32,60.24096386,,,0.087,2.263,191,up,1,right,1,0,46,46,6,1,7,congruent,up,up,congruent,Stim/Acon.png,up,0,0.1,0,1,100,congruent,right,right,congruent,Stim/Acon.png,right,0.1,0,-90,4,2000,stimuli\\,0.6522,0.8333,2.413,,,,,,,,,,,,
,,,,,,,,,,ssf,1,2024-06-28_16h13.45.416,DCT_v1_online,2021.2.3,Win32,60.24096386,,,0.401,1.949,192,up,1,right,1,0,47,47,42,1,43,congruent,down,up,incongruent,Stim/Acon.png,up,0,-0.1,0,3,100,incongruent,left,right,incongruent,Stim/Aincon.png,right,-0.1,0,-90,6,2000,stimuli\\,0.668,0.9244,2.099,,,,,,,,,,,,
,,,,,,,,,,ssf,1,2024-06-28_16h13.45.416,DCT_v1_online,2021.2.3,Win32,60.24096386,,,0.321,2.929,193,up,1,left,1,0,48,48,109,1,110,incongruent,down,up,incongruent,Stim/Aincon.png,up,0,-0.1,0,7,1000,incongruent,right,left,incongruent,Stim/Aincon.png,left,0.1,0,90,7,2000,stimuli\\,0.8057,0.6494,2.179,,,,,,,,,,,,
,,,,,,,,,,ssf,1,2024-06-28_16h13.45.416,DCT_v1_online,2021.2.3,Win32,60.24096386,,,0.217,2.133,194,up,1,left,1,0,49,49,76,1,77,incongruent,up,up,congruent,Stim/Aincon.png,up,0,0.1,0,5,100,incongruent,right,left,incongruent,Stim/Aincon.png,left,0.1,0,90,7,2000,stimuli\\,0.5663,0.9275,2.283,,,,,,,,,,,,
,,,,,,,,,,ssf,1,2024-06-28_16h13.45.416,DCT_v1_online,2021.2.3,Win32,60.24096386,,,0.49,1.86,195,down,1,right,1,0,50,50,62,1,63,congruent,down,down,congruent,Stim/Acon.png,down,0,-0.1,180,4,100,incongruent,right,right,congruent,Stim/Aincon.png,right,0.1,0,-90,8,2000,stimuli\\,0.7178,1.1024,2.01,,,,,,,,,,,,
,,,,,,,,,,ssf,1,2024-06-28_16h13.45.416,DCT_v1_online,2021.2.3,Win32,60.24096386,,,0.397,2.853,196,up,1,right,1,0,51,51,99,1,100,incongruent,down,up,incongruent,Stim/Aincon.png,up,0,-0.1,0,7,1000,congruent,left,right,incongruent,Stim/Acon.png,right,-0.1,0,-90,2,2000,stimuli\\,0.7635,0.6123,2.103,,,,,,,,,,,,
,,,,,,,,,,ssf,1,2024-06-28_16h13.45.416,DCT_v1_online,2021.2.3,Win32,60.24096386,,,0.329,2.021,197,down,1,left,1,0,52,52,56,1,57,congruent,down,down,congruent,Stim/Acon.png,down,0,-0.1,180,4,100,incongruent,left,left,congruent,Stim/Aincon.png,left,-0.1,0,90,5,2000,stimuli\\,0.6982,0.9947,2.171,,,,,,,,,,,,
,,,,,,,,,,ssf,1,2024-06-28_16h13.45.416,DCT_v1_online,2021.2.3,Win32,60.24096386,,,0.312,2.038,198,down,1,right,1,0,53,53,86,1,87,incongruent,up,down,incongruent,Stim/Aincon.png,down,0,0.1,180,6,100,congruent,right,right,congruent,Stim/Acon.png,right,0.1,0,-90,4,2000,stimuli\\,0.7505,1.0508,2.188,,,,,,,,,,,,
,,,,,,,,,,ssf,1,2024-06-28_16h13.45.416,DCT_v1_online,2021.2.3,Win32,60.24096386,,,0.387,1.963,199,up,1,left,1,0,54,54,44,1,45,congruent,down,up,incongruent,Stim/Acon.png,up,0,-0.1,0,3,100,incongruent,right,left,incongruent,Stim/Aincon.png,left,0.1,0,90,7,2000,stimuli\\,0.8667,1.1501,2.113,,,,,,,,,,,,
,,,,,,,,,,ssf,1,2024-06-28_16h13.45.416,DCT_v1_online,2021.2.3,Win32,60.24096386,,,0.098,3.152,200,down,1,left,1,0,55,55,17,1,18,congruent,up,down,incongruent,Stim/Acon.png,down,0,0.1,180,2,1000,congruent,left,left,congruent,Stim/Acon.png,left,-0.1,0,90,1,2000,stimuli\\,0.5591,0.4274,2.402,,,,,,,,,,,,
,,,,,,,,,,ssf,1,2024-06-28_16h13.45.416,DCT_v1_online,2021.2.3,Win32,60.24096386,,,0.328,2.922,201,up,1,left,1,0,56,56,1,1,2,congruent,up,up,congruent,Stim/Acon.png,up,0,0.1,0,1,1000,congruent,left,left,congruent,Stim/Acon.png,left,-0.1,0,90,1,2000,stimuli\\,0.4592,0.4187,2.172,,,,,,,,,,,,
,,,,,,,,,,ssf,1,2024-06-28_16h13.45.416,DCT_v1_online,2021.2.3,Win32,60.24096386,,,0.154,2.196,202,down,1,left,1,0,57,57,80,1,81,incongruent,up,down,incongruent,Stim/Aincon.png,down,0,0.1,180,6,100,congruent,left,left,congruent,Stim/Acon.png,left,-0.1,0,90,1,2000,stimuli\\,0.7168,0.9765,2.346,,,,,,,,,,,,
,,,,,,,,,,ssf,1,2024-06-28_16h13.45.416,DCT_v1_online,2021.2.3,Win32,60.24096386,,,0.302,2.948,203,down,1,right,1,0,58,58,87,1,88,incongruent,up,down,incongruent,Stim/Aincon.png,down,0,0.1,180,6,1000,congruent,right,right,congruent,Stim/Acon.png,right,0.1,0,-90,4,2000,stimuli\\,0.5004,0.6169,2.198,,,,,,,,,,,,
,,,,,,,,,,ssf,1,2024-06-28_16h13.45.416,DCT_v1_online,2021.2.3,Win32,60.24096386,,,0.496,2.754,204,down,1,right,1,0,59,59,27,1,28,congruent,up,down,incongruent,Stim/Acon.png,down,0,0.1,180,2,1000,incongruent,left,right,incongruent,Stim/Aincon.png,right,-0.1,0,-90,6,2000,stimuli\\,0.4517,0.6921,2.004,,,,,,,,,,,,
,,,,,,,,,,ssf,1,2024-06-28_16h13.45.416,DCT_v1_online,2021.2.3,Win32,60.24096386,,,0.003,3.247,205,down,1,right,1,0,60,60,31,1,32,congruent,up,down,incongruent,Stim/Acon.png,down,0,0.1,180,2,1000,incongruent,right,right,congruent,Stim/Aincon.png,right,0.1,0,-90,8,2000,stimuli\\,0.5338,0.9014,2.497,,,,,,,,,,,,
,,,,,,,,,,ssf,1,2024-06-28_16h13.45.416,DCT_v1_online,2021.2.3,Win32,60.24096386,,,0.453,1.897,206,down,1,left,1,0,61,61,124,1,125,incongruent,down,down,congruent,Stim/Aincon.png,down,0,-0.1,180,8,100,incongruent,right,left,incongruent,Stim/Aincon.png,left,0.1,0,90,7,2000,stimuli\\,0.7185,1.0357,2.047,,,,,,,,,,,,
,,,,,,,,,,ssf,1,2024-06-28_16h13.45.416,DCT_v1_online,2021.2.3,Win32,60.24096386,,,0.132,2.218,207,down,1,right,1,0,62,62,22,1,23,congruent,up,down,incongruent,Stim/Acon.png,down,0,0.1,180,2,100,congruent,right,right,congruent,Stim/Acon.png,right,0.1,0,-90,4,2000,stimuli\\,0.5481,0.8004,2.368,,,,,,,,,,,,
,,,,,,,,,,ssf,1,2024-06-28_16h13.45.416,DCT_v1_online,2021.2.3,Win32,60.24096386,,,0.203,3.047,208,down,1,right,1,0,63,63,115,1,116,incongruent,down,down,congruent,Stim/Aincon.png,down,0,-0.1,180,8,1000,congruent,left,right,incongruent,Stim/Acon.png,right,-0.1,0,-90,2,2000,stimuli\\,0.983,0.5179,2.297,,,,,,,,,,,,
,,,,,,,,,,ssf,1,2024-06-28_16h13.45.416,DCT_v1_online,2021.2.3,Win32,60.24096386,,,0.258,2.992,209,down,1,left,1,0,64,64,117,1,118,incongruent,down,down,congruent,Stim/Aincon.png,down,0,-0.1,180,8,1000,congruent,right,left,incongruent,Stim/Acon.png,left,0.1,0,90,3,2000,stimuli\\,0.5015,0.7394,2.242,,,,,,,,,,,,
,,,,,,,,,,ssf,1,2024-06-28_16h13.45.416,DCT_v1_online,2021.2.3,Win32,60.24096386,,,0.271,2.979,210,up,1,left,1,0,65,65,73,1,74,incongruent,up,up,congruent,Stim/Aincon.png,up,0,0.1,0,5,1000,incongruent,left,left,congruent,Stim/Aincon.png,left,-0.1,0,90,5,2000,stimuli\\,1.009,0.7679,2.229,,,,,,,,,,,,
,,,,,,,,,,ssf,1,2024-06-28_16h13.45.416,DCT_v1_online,2021.2.3,Win32,60.24096386,,,0.248,3.002,211,down,1,left,1,0,66,66,93,1,94,incongruent,up,down,incongruent,Stim/Aincon.png,down,0,0.1,180,6,1000,incongruent,right,left,incongruent,Stim/Aincon.png,left,0.1,0,90,7,2000,stimuli\\,0.7387,0.6676,2.252,,,,,,,,,,,,
,,,,,,,,,,ssf,1,2024-06-28_16h13.45.416,DCT_v1_online,2021.2.3,Win32,60.24096386,,,0.06,3.19,212,up,1,left,1,0,67,67,41,1,42,congruent,down,up,incongruent,Stim/Acon.png,up,0,-0.1,0,3,1000,incongruent,left,left,congruent,Stim/Aincon.png,left,-0.1,0,90,5,2000,stimuli\\,0.6407,0.6542,2.44,,,,,,,,,,,,
,,,,,,,,,,ssf,1,2024-06-28_16h13.45.416,DCT_v1_online,2021.2.3,Win32,60.24096386,,,0.335,2.015,213,down,1,right,1,0,68,68,26,1,27,congruent,up,down,incongruent,Stim/Acon.png,down,0,0.1,180,2,100,incongruent,left,right,incongruent,Stim/Aincon.png,right,-0.1,0,-90,6,2000,stimuli\\,0.6242,1.1161,2.165,,,,,,,,,,,,
,,,,,,,,,,ssf,1,2024-06-28_16h13.45.416,DCT_v1_online,2021.2.3,Win32,60.24096386,,,0.173,2.177,214,up,1,right,1,0,69,69,14,1,15,congruent,up,up,congruent,Stim/Acon.png,up,0,0.1,0,1,100,incongruent,right,right,congruent,Stim/Aincon.png,right,0.1,0,-90,8,2000,stimuli\\,0.6994,0.957,2.327,,,,,,,,,,,,
,,,,,,,,,,ssf,1,2024-06-28_16h13.45.416,DCT_v1_online,2021.2.3,Win32,60.24096386,,,0.216,3.034,215,down,1,left,1,0,70,70,49,1,50,congruent,down,down,congruent,Stim/Acon.png,down,0,-0.1,180,4,1000,congruent,left,left,congruent,Stim/Acon.png,left,-0.1,0,90,1,2000,stimuli\\,0.799,0.4508,2.284,,,,,,,,,,,,
,,,,,,,,,,ssf,1,2024-06-28_16h13.45.416,DCT_v1_online,2021.2.3,Win32,60.24096386,,,0.465,2.785,216,down,1,left,1,0,71,71,57,1,58,congruent,down,down,congruent,Stim/Acon.png,down,0,-0.1,180,4,1000,incongruent,left,left,congruent,Stim/Aincon.png,left,-0.1,0,90,5,2000,stimuli\\,0.572,0.5892,2.035,,,,,,,,,,,,
,,,,,,,,,,ssf,1,2024-06-28_16h13.45.416,DCT_v1_online,2021.2.3,Win32,60.24096386,,,0.109,2.241,217,down,0,right,1,0,72,72,70,1,71,incongruent,up,up,congruent,Stim/Aincon.png,up,0,0.1,0,5,100,congruent,right,right,congruent,Stim/Acon.png,right,0.1,0,-90,4,2000,stimuli\\,0.9693,1.2227,2.391,,,,,,,,,,,,
,,,,,,,,,,ssf,1,2024-06-28_16h13.45.416,DCT_v1_online,2021.2.3,Win32,60.24096386,,,0.456,2.794,218,down,0,left,0,0,73,73,79,1,80,incongruent,up,up,congruent,Stim/Aincon.png,up,0,0.1,0,5,1000,incongruent,right,right,congruent,Stim/Aincon.png,right,0.1,0,-90,8,2000,stimuli\\,0.6117,0.828,2.044,,,,,,,,,,,,
,,,,,,,,,,ssf,1,2024-06-28_16h13.45.416,DCT_v1_online,2021.2.3,Win32,60.24096386,,,0.057,2.293,219,down,1,left,1,0,74,74,28,1,29,congruent,up,down,incongruent,Stim/Acon.png,down,0,0.1,180,2,100,incongruent,right,left,incongruent,Stim/Aincon.png,left,0.1,0,90,7,2000,stimuli\\,0.5684,0.9497,2.443,,,,,,,,,,,,
,,,,,,,,,,ssf,1,2024-06-28_16h13.45.416,DCT_v1_online,2021.2.3,Win32,60.24096386,,,0.357,1.993,220,down,1,left,1,0,75,75,112,1,113,incongruent,down,down,congruent,Stim/Aincon.png,down,0,-0.1,180,8,100,congruent,left,left,congruent,Stim/Acon.png,left,-0.1,0,90,1,2000,stimuli\\,0.682,0.8706,2.143,,,,,,,,,,,,
,,,,,,,,,,ssf,1,2024-06-28_16h13.45.416,DCT_v1_online,2021.2.3,Win32,60.24096386,,,0.126,2.224,221,down,0,left,1,0,76,76,68,1,69,incongruent,up,up,congruent,Stim/Aincon.png,up,0,0.1,0,5,100,congruent,right,left,incongruent,Stim/Acon.png,left,0.1,0,90,3,2000,stimuli\\,0.7175,1.0522,2.374,,,,,,,,,,,,
,,,,,,,,,,ssf,1,2024-06-28_16h13.45.416,DCT_v1_online,2021.2.3,Win32,60.24096386,,,0.236,2.114,222,down,1,right,1,0,77,77,58,1,59,congruent,down,down,congruent,Stim/Acon.png,down,0,-0.1,180,4,100,incongruent,left,right,incongruent,Stim/Aincon.png,right,-0.1,0,-90,6,2000,stimuli\\,0.573,0.9167,2.264,,,,,,,,,,,,
,,,,,,,,,,ssf,1,2024-06-28_16h13.45.416,DCT_v1_online,2021.2.3,Win32,60.24096386,,,0.325,2.025,223,up,1,left,1,0,78,78,32,1,33,congruent,down,up,incongruent,Stim/Acon.png,up,0,-0.1,0,3,100,congruent,left,left,congruent,Stim/Acon.png,left,-0.1,0,90,1,2000,stimuli\\,0.6922,0.9414,2.175,,,,,,,,,,,,
,,,,,,,,,,ssf,1,2024-06-28_16h13.45.416,DCT_v1_online,2021.2.3,Win32,60.24096386,,,0.225,3.025,224,up,1,right,1,0,79,79,103,1,104,incongruent,down,up,incongruent,Stim/Aincon.png,up,0,-0.1,0,7,1000,congruent,right,right,congruent,Stim/Acon.png,right,0.1,0,-90,4,2000,stimuli\\,0.7037,0.5823,2.275,,,,,,,,,,,,
,,,,,,,,,,ssf,1,2024-06-28_16h13.45.416,DCT_v1_online,2021.2.3,Win32,60.24096386,,,0.045,3.205,225,down,1,left,1,0,80,80,61,1,62,congruent,down,down,congruent,Stim/Acon.png,down,0,-0.1,180,4,1000,incongruent,right,left,incongruent,Stim/Aincon.png,left,0.1,0,90,7,2000,stimuli\\,0.4847,0.6959,2.455,,,,,,,,,,,,
,,,,,,,,,,ssf,1,2024-06-28_16h13.45.416,DCT_v1_online,2021.2.3,Win32,60.24096386,,,0.341,2.909,226,down,1,left,1,0,81,81,53,1,54,congruent,down,down,congruent,Stim/Acon.png,down,0,-0.1,180,4,1000,congruent,right,left,incongruent,Stim/Acon.png,left,0.1,0,90,3,2000,stimuli\\,0.5601,0.5794,2.159,,,,,,,,,,,,
,,,,,,,,,,ssf,1,2024-06-28_16h13.45.416,DCT_v1_online,2021.2.3,Win32,60.24096386,,,0.124,3.126,227,up,1,right,1,0,82,82,35,1,36,congruent,down,up,incongruent,Stim/Acon.png,up,0,-0.1,0,3,1000,congruent,left,right,incongruent,Stim/Acon.png,right,-0.1,0,-90,2,2000,stimuli\\,0.6049,0.6194,2.376,,,,,,,,,,,,
,,,,,,,,,,ssf,1,2024-06-28_16h13.45.416,DCT_v1_online,2021.2.3,Win32,60.24096386,,,0.089,3.161,228,down,1,right,1,0,83,83,127,1,128,incongruent,down,down,congruent,Stim/Aincon.png,down,0,-0.1,180,8,1000,incongruent,right,right,congruent,Stim/Aincon.png,right,0.1,0,-90,8,2000,stimuli\\,0.6166,0.793,2.411,,,,,,,,,,,,
,,,,,,,,,,ssf,1,2024-06-28_16h13.45.416,DCT_v1_online,2021.2.3,Win32,60.24096386,,,0.494,1.856,229,down,1,left,1,0,84,84,52,1,53,congruent,down,down,congruent,Stim/Acon.png,down,0,-0.1,180,4,100,congruent,right,left,incongruent,Stim/Acon.png,left,0.1,0,90,3,2000,stimuli\\,0.5494,0.8171,2.006,,,,,,,,,,,,
,,,,,,,,,,ssf,1,2024-06-28_16h13.45.416,DCT_v1_online,2021.2.3,Win32,60.24096386,,,0.265,2.085,230,up,1,right,1,0,85,85,78,1,79,incongruent,up,up,congruent,Stim/Aincon.png,up,0,0.1,0,5,100,incongruent,right,right,congruent,Stim/Aincon.png,right,0.1,0,-90,8,2000,stimuli\\,0.7773,1.0225,2.235,,,,,,,,,,,,
,,,,,,,,,,ssf,1,2024-06-28_16h13.45.416,DCT_v1_online,2021.2.3,Win32,60.24096386,,,0.488,2.762,231,up,1,left,1,0,86,86,9,1,10,congruent,up,up,congruent,Stim/Acon.png,up,0,0.1,0,1,1000,incongruent,left,left,congruent,Stim/Aincon.png,left,-0.1,0,90,5,2000,stimuli\\,0.4834,0.6761,2.012,,,,,,,,,,,,
,,,,,,,,,,ssf,1,2024-06-28_16h13.45.416,DCT_v1_online,2021.2.3,Win32,60.24096386,,,0.125,3.125,232,down,1,right,1,0,87,87,19,1,20,congruent,up,down,incongruent,Stim/Acon.png,down,0,0.1,180,2,1000,congruent,left,right,incongruent,Stim/Acon.png,right,-0.1,0,-90,2,2000,stimuli\\,0.665,0.5509,2.375,,,,,,,,,,,,
,,,,,,,,,,ssf,1,2024-06-28_16h13.45.416,DCT_v1_online,2021.2.3,Win32,60.24096386,,,0.457,2.793,233,up,0,right,1,0,88,88,123,1,124,incongruent,down,down,congruent,Stim/Aincon.png,down,0,-0.1,180,8,1000,incongruent,left,right,incongruent,Stim/Aincon.png,right,-0.1,0,-90,6,2000,stimuli\\,0.7511,0.7809,2.043,,,,,,,,,,,,
,,,,,,,,,,ssf,1,2024-06-28_16h13.45.416,DCT_v1_online,2021.2.3,Win32,60.24096386,,,0.35,2,234,down,1,right,1,0,89,89,94,1,95,incongruent,up,down,incongruent,Stim/Aincon.png,down,0,0.1,180,6,100,incongruent,right,right,congruent,Stim/Aincon.png,right,0.1,0,-90,8,2000,stimuli\\,0.6965,1.0688,2.15,,,,,,,,,,,,
,,,,,,,,,,ssf,1,2024-06-28_16h13.45.416,DCT_v1_online,2021.2.3,Win32,60.24096386,,,0.279,2.071,235,up,1,right,1,0,90,90,2,1,3,congruent,up,up,congruent,Stim/Acon.png,up,0,0.1,0,1,100,congruent,left,right,incongruent,Stim/Acon.png,right,-0.1,0,-90,2,2000,stimuli\\,0.6997,0.9487,2.221,,,,,,,,,,,,
,,,,,,,,,,ssf,1,2024-06-28_16h13.45.416,DCT_v1_online,2021.2.3,Win32,60.24096386,,,0.103,2.247,236,down,1,left,1,0,91,91,16,1,17,congruent,up,down,incongruent,Stim/Acon.png,down,0,0.1,180,2,100,congruent,left,left,congruent,Stim/Acon.png,left,-0.1,0,90,1,2000,stimuli\\,1.1602,0.6176,2.397,,,,,,,,,,,,
,,,,,,,,,,ssf,1,2024-06-28_16h13.45.416,DCT_v1_online,2021.2.3,Win32,60.24096386,,,0.108,3.142,237,down,0,left,1,0,92,92,101,1,102,incongruent,down,up,incongruent,Stim/Aincon.png,up,0,-0.1,0,7,1000,congruent,right,left,incongruent,Stim/Acon.png,left,0.1,0,90,3,2000,stimuli\\,0.845,0.6334,2.392,,,,,,,,,,,,
,,,,,,,,,,ssf,1,2024-06-28_16h13.45.416,DCT_v1_online,2021.2.3,Win32,60.24096386,,,0.217,3.033,238,down,1,left,1,0,93,93,85,1,86,incongruent,up,down,incongruent,Stim/Aincon.png,down,0,0.1,180,6,1000,congruent,right,left,incongruent,Stim/Acon.png,left,0.1,0,90,3,2000,stimuli\\,0.8407,0.6235,2.283,,,,,,,,,,,,
,,,,,,,,,,ssf,1,2024-06-28_16h13.45.416,DCT_v1_online,2021.2.3,Win32,60.24096386,,,0.141,2.209,239,down,0,right,1,0,94,94,74,1,75,incongruent,up,up,congruent,Stim/Aincon.png,up,0,0.1,0,5,100,incongruent,left,right,incongruent,Stim/Aincon.png,right,-0.1,0,-90,6,2000,stimuli\\,0.7647,1.2764,2.359,,,,,,,,,,,,
,,,,,,,,,,ssf,1,2024-06-28_16h13.45.416,DCT_v1_online,2021.2.3,Win32,60.24096386,,,0.378,2.872,240,up,1,right,1,0,95,95,71,1,72,incongruent,up,up,congruent,Stim/Aincon.png,up,0,0.1,0,5,1000,congruent,right,right,congruent,Stim/Acon.png,right,0.1,0,-90,4,2000,stimuli\\,0.959,0.5163,2.122,,,,,,,,,,,,
,,,,,,,,,,ssf,1,2024-06-28_16h13.45.416,DCT_v1_online,2021.2.3,Win32,60.24096386,,,0.37,1.98,241,down,1,left,1,0,96,96,48,1,49,congruent,down,down,congruent,Stim/Acon.png,down,0,-0.1,180,4,100,congruent,left,left,congruent,Stim/Acon.png,left,-0.1,0,90,1,2000,stimuli\\,0.5195,0.7721,2.13,,,,,,,,,,,,
,,,,,,,,,,ssf,1,2024-06-28_16h13.45.416,DCT_v1_online,2021.2.3,Win32,60.24096386,,,0.412,1.938,242,down,1,left,1,0,97,97,92,1,93,incongruent,up,down,incongruent,Stim/Aincon.png,down,0,0.1,180,6,100,incongruent,right,left,incongruent,Stim/Aincon.png,left,0.1,0,90,7,2000,stimuli\\,0.7363,1.1348,2.088,,,,,,,,,,,,
,,,,,,,,,,ssf,1,2024-06-28_16h13.45.416,DCT_v1_online,2021.2.3,Win32,60.24096386,,,0.029,3.221,243,up,1,left,1,0,98,98,13,1,14,congruent,up,up,congruent,Stim/Acon.png,up,0,0.1,0,1,1000,incongruent,right,left,incongruent,Stim/Aincon.png,left,0.1,0,90,7,2000,stimuli\\,0.7036,0.6846,2.471,,,,,,,,,,,,
,,,,,,,,,,ssf,1,2024-06-28_16h13.45.416,DCT_v1_online,2021.2.3,Win32,60.24096386,,,0.413,1.937,244,down,0,right,1,0,99,99,106,1,107,incongruent,down,up,incongruent,Stim/Aincon.png,up,0,-0.1,0,7,100,incongruent,left,right,incongruent,Stim/Aincon.png,right,-0.1,0,-90,6,2000,stimuli\\,1.301,0.8392,2.087,,,,,,,,,,,,
,,,,,,,,,,ssf,1,2024-06-28_16h13.45.416,DCT_v1_online,2021.2.3,Win32,60.24096386,,,0.127,3.123,245,up,1,left,1,0,100,100,45,1,46,congruent,down,up,incongruent,Stim/Acon.png,up,0,-0.1,0,3,1000,incongruent,right,left,incongruent,Stim/Aincon.png,left,0.1,0,90,7,2000,stimuli\\,0.6185,0.6898,2.373,,,,,,,,,,,,
,,,,,,,,,,ssf,1,2024-06-28_16h13.45.416,DCT_v1_online,2021.2.3,Win32,60.24096386,,,0.368,1.982,246,up,1,left,0,0,101,101,10,1,11,congruent,up,up,congruent,Stim/Acon.png,up,0,0.1,0,1,100,incongruent,left,right,incongruent,Stim/Aincon.png,right,-0.1,0,-90,6,2000,stimuli\\,0.5077,0.5835,2.132,,,,,,,,,,,,
,,,,,,,,,,ssf,1,2024-06-28_16h13.45.416,DCT_v1_online,2021.2.3,Win32,60.24096386,,,0.478,2.772,247,up,1,left,1,0,102,102,97,1,98,incongruent,down,up,incongruent,Stim/Aincon.png,up,0,-0.1,0,7,1000,congruent,left,left,congruent,Stim/Acon.png,left,-0.1,0,90,1,2000,stimuli\\,0.7233,0.5459,2.022,,,,,,,,,,,,
,,,,,,,,,,ssf,1,2024-06-28_16h13.45.416,DCT_v1_online,2021.2.3,Win32,60.24096386,,,0.181,3.069,248,up,1,right,1,0,103,103,67,1,68,incongruent,up,up,congruent,Stim/Aincon.png,up,0,0.1,0,5,1000,congruent,left,right,incongruent,Stim/Acon.png,right,-0.1,0,-90,2,2000,stimuli\\,0.8574,0.5206,2.319,,,,,,,,,,,,
,,,,,,,,,,ssf,1,2024-06-28_16h13.45.416,DCT_v1_online,2021.2.3,Win32,60.24096386,,,0.062,2.288,249,down,1,left,1,0,104,104,20,1,21,congruent,up,down,incongruent,Stim/Acon.png,down,0,0.1,180,2,100,congruent,right,left,incongruent,Stim/Acon.png,left,0.1,0,90,3,2000,stimuli\\,0.5333,0.7705,2.438,,,,,,,,,,,,
,,,,,,,,,,ssf,1,2024-06-28_16h13.45.416,DCT_v1_online,2021.2.3,Win32,60.24096386,,,0.48,1.87,250,up,1,left,1,0,105,105,0,1,1,congruent,up,up,congruent,Stim/Acon.png,up,0,0.1,0,1,100,congruent,left,left,congruent,Stim/Acon.png,left,-0.1,0,90,1,2000,stimuli\\,0.6854,0.7945,2.02,,,,,,,,,,,,
,,,,,,,,,,ssf,1,2024-06-28_16h13.45.416,DCT_v1_online,2021.2.3,Win32,60.24096386,,,0.407,2.843,251,down,1,right,1,0,106,106,63,1,64,congruent,down,down,congruent,Stim/Acon.png,down,0,-0.1,180,4,1000,incongruent,right,right,congruent,Stim/Aincon.png,right,0.1,0,-90,8,2000,stimuli\\,0.6232,0.843,2.093,,,,,,,,,,,,
,,,,,,,,,,ssf,1,2024-06-28_16h13.45.416,DCT_v1_online,2021.2.3,Win32,60.24096386,,,0.422,2.828,252,up,1,left,1,0,107,107,37,1,38,congruent,down,up,incongruent,Stim/Acon.png,up,0,-0.1,0,3,1000,congruent,right,left,incongruent,Stim/Acon.png,left,0.1,0,90,3,2000,stimuli\\,0.6378,0.6159,2.078,,,,,,,,,,,,
,,,,,,,,,,ssf,1,2024-06-28_16h13.45.416,DCT_v1_online,2021.2.3,Win32,60.24096386,,,0.219,3.031,253,up,1,right,1,0,108,108,111,1,112,incongruent,down,up,incongruent,Stim/Aincon.png,up,0,-0.1,0,7,1000,incongruent,right,right,congruent,Stim/Aincon.png,right,0.1,0,-90,8,2000,stimuli\\,0.8158,0.9021,2.281,,,,,,,,,,,,
,,,,,,,,,,ssf,1,2024-06-28_16h13.45.416,DCT_v1_online,2021.2.3,Win32,60.24096386,,,0.174,2.176,254,down,1,left,1,0,109,109,116,1,117,incongruent,down,down,congruent,Stim/Aincon.png,down,0,-0.1,180,8,100,congruent,right,left,incongruent,Stim/Acon.png,left,0.1,0,90,3,2000,stimuli\\,1.0066,1.2253,2.326,,,,,,,,,,,,
,,,,,,,,,,ssf,1,2024-06-28_16h13.45.416,DCT_v1_online,2021.2.3,Win32,60.24096386,,,0.103,3.147,255,up,1,right,1,0,110,110,107,1,108,incongruent,down,up,incongruent,Stim/Aincon.png,up,0,-0.1,0,7,1000,incongruent,left,right,incongruent,Stim/Aincon.png,right,-0.1,0,-90,6,2000,stimuli\\,0.7533,0.7175,2.397,,,,,,,,,,,,
,,,,,,,,,,ssf,1,2024-06-28_16h13.45.416,DCT_v1_online,2021.2.3,Win32,60.24096386,,,0.149,3.101,256,up,1,right,1,0,111,111,15,1,16,congruent,up,up,congruent,Stim/Acon.png,up,0,0.1,0,1,1000,incongruent,right,right,congruent,Stim/Aincon.png,right,0.1,0,-90,8,2000,stimuli\\,0.4885,0.8176,2.351,,,,,,,,,,,,
,,,,,,,,,,ssf,1,2024-06-28_16h13.45.416,DCT_v1_online,2021.2.3,Win32,60.24096386,,,0.151,2.199,257,up,1,left,1,0,112,112,8,1,9,congruent,up,up,congruent,Stim/Acon.png,up,0,0.1,0,1,100,incongruent,left,left,congruent,Stim/Aincon.png,left,-0.1,0,90,5,2000,stimuli\\,0.593,0.9379,2.349,,,,,,,,,,,,
,,,,,,,,,,ssf,1,2024-06-28_16h13.45.416,DCT_v1_online,2021.2.3,Win32,60.24096386,,,0.115,3.135,258,up,1,right,1,0,113,113,11,1,12,congruent,up,up,congruent,Stim/Acon.png,up,0,0.1,0,1,1000,incongruent,left,right,incongruent,Stim/Aincon.png,right,-0.1,0,-90,6,2000,stimuli\\,0.4373,0.6185,2.385,,,,,,,,,,,,
,,,,,,,,,,ssf,1,2024-06-28_16h13.45.416,DCT_v1_online,2021.2.3,Win32,60.24096386,,,0.414,2.836,259,down,1,right,1,0,114,114,51,1,52,congruent,down,down,congruent,Stim/Acon.png,down,0,-0.1,180,4,1000,congruent,left,right,incongruent,Stim/Acon.png,right,-0.1,0,-90,2,2000,stimuli\\,0.6152,0.5181,2.086,,,,,,,,,,,,
,,,,,,,,,,ssf,1,2024-06-28_16h13.45.416,DCT_v1_online,2021.2.3,Win32,60.24096386,,,0.14,2.21,260,down,1,left,1,0,115,115,24,1,25,congruent,up,down,incongruent,Stim/Acon.png,down,0,0.1,180,2,100,incongruent,left,left,congruent,Stim/Aincon.png,left,-0.1,0,90,5,2000,stimuli\\,0.5339,0.942,2.36,,,,,,,,,,,,
,,,,,,,,,,ssf,1,2024-06-28_16h13.45.416,DCT_v1_online,2021.2.3,Win32,60.24096386,,,0.314,2.936,261,up,1,left,1,0,116,116,69,1,70,incongruent,up,up,congruent,Stim/Aincon.png,up,0,0.1,0,5,1000,congruent,right,left,incongruent,Stim/Acon.png,left,0.1,0,90,3,2000,stimuli\\,0.6656,0.6361,2.186,,,,,,,,,,,,
,,,,,,,,,,ssf,1,2024-06-28_16h13.45.416,DCT_v1_online,2021.2.3,Win32,60.24096386,,,0.161,3.089,262,up,1,left,1,0,117,117,65,1,66,incongruent,up,up,congruent,Stim/Aincon.png,up,0,0.1,0,5,1000,congruent,left,left,congruent,Stim/Acon.png,left,-0.1,0,90,1,2000,stimuli\\,0.9678,0.4968,2.339,,,,,,,,,,,,
,,,,,,,,,,ssf,1,2024-06-28_16h13.45.416,DCT_v1_online,2021.2.3,Win32,60.24096386,,,0.016,3.234,263,down,1,left,1,0,118,118,81,1,82,incongruent,up,down,incongruent,Stim/Aincon.png,down,0,0.1,180,6,1000,congruent,left,left,congruent,Stim/Acon.png,left,-0.1,0,90,1,2000,stimuli\\,0.6421,0.4102,2.484,,,,,,,,,,,,
,,,,,,,,,,ssf,1,2024-06-28_16h13.45.416,DCT_v1_online,2021.2.3,Win32,60.24096386,,,0.49,1.86,264,down,1,right,1,0,119,119,82,1,83,incongruent,up,down,incongruent,Stim/Aincon.png,down,0,0.1,180,6,100,congruent,left,right,incongruent,Stim/Acon.png,right,-0.1,0,-90,2,2000,stimuli\\,0.7746,1.1499,2.01,,,,,,,,,,,,
,,,,,,,,,,ssf,1,2024-06-28_16h13.45.416,DCT_v1_online,2021.2.3,Win32,60.24096386,,,0.203,3.047,265,down,1,left,1,0,120,120,89,1,90,incongruent,up,down,incongruent,Stim/Aincon.png,down,0,0.1,180,6,1000,incongruent,left,left,congruent,Stim/Aincon.png,left,-0.1,0,90,5,2000,stimuli\\,0.739,0.5328,2.297,,,,,,,,,,,,
,,,,,,,,,,ssf,1,2024-06-28_16h13.45.416,DCT_v1_online,2021.2.3,Win32,60.24096386,,,0.486,1.864,266,up,1,right,1,0,121,121,34,1,35,congruent,down,up,incongruent,Stim/Acon.png,up,0,-0.1,0,3,100,congruent,left,right,incongruent,Stim/Acon.png,right,-0.1,0,-90,2,2000,stimuli\\,0.7083,0.9608,2.014,,,,,,,,,,,,
,,,,,,,,,,ssf,1,2024-06-28_16h13.45.416,DCT_v1_online,2021.2.3,Win32,60.24096386,,,0.102,2.248,267,down,0,left,1,0,122,122,108,1,109,incongruent,down,up,incongruent,Stim/Aincon.png,up,0,-0.1,0,7,100,incongruent,right,left,incongruent,Stim/Aincon.png,left,0.1,0,90,7,2000,stimuli\\,0.7331,1.0505,2.398,,,,,,,,,,,,
,,,,,,,,,,ssf,1,2024-06-28_16h13.45.416,DCT_v1_online,2021.2.3,Win32,60.24096386,,,0.297,2.953,268,down,0,left,1,0,123,123,105,1,106,incongruent,down,up,incongruent,Stim/Aincon.png,up,0,-0.1,0,7,1000,incongruent,left,left,congruent,Stim/Aincon.png,left,-0.1,0,90,5,2000,stimuli\\,0.5461,0.5389,2.203,,,,,,,,,,,,
,,,,,,,,,,ssf,1,2024-06-28_16h13.45.416,DCT_v1_online,2021.2.3,Win32,60.24096386,,,0.429,2.821,269,down,1,right,1,0,124,124,23,1,24,congruent,up,down,incongruent,Stim/Acon.png,down,0,0.1,180,2,1000,congruent,right,right,congruent,Stim/Acon.png,right,0.1,0,-90,4,2000,stimuli\\,0.5661,0.6162,2.071,,,,,,,,,,,,
,,,,,,,,,,ssf,1,2024-06-28_16h13.45.416,DCT_v1_online,2021.2.3,Win32,60.24096386,,,0.044,2.306,270,up,1,left,1,0,125,125,4,1,5,congruent,up,up,congruent,Stim/Acon.png,up,0,0.1,0,1,100,congruent,right,left,incongruent,Stim/Acon.png,left,0.1,0,90,3,2000,stimuli\\,0.6552,0.9454,2.456,,,,,,,,,,,,
,,,,,,,,,,ssf,1,2024-06-28_16h13.45.416,DCT_v1_online,2021.2.3,Win32,60.24096386,,,0.451,1.899,271,up,1,right,1,0,126,126,110,1,111,incongruent,down,up,incongruent,Stim/Aincon.png,up,0,-0.1,0,7,100,incongruent,right,right,congruent,Stim/Aincon.png,right,0.1,0,-90,8,2000,stimuli\\,0.8162,1.3127,2.049,,,,,,,,,,,,
,,,,,,,,,,ssf,1,2024-06-28_16h13.45.416,DCT_v1_online,2021.2.3,Win32,60.24096386,,,0.321,2.029,272,down,1,right,1,0,127,127,30,1,31,congruent,up,down,incongruent,Stim/Acon.png,down,0,0.1,180,2,100,incongruent,right,right,congruent,Stim/Aincon.png,right,0.1,0,-90,8,2000,stimuli\\,0.6419,1.1339,2.179,,,,,,,,,,,,
,,,,,,,,,,ssf,1,2024-06-28_16h13.45.416,DCT_v1_online,2021.2.3,Win32,60.24096386,,,,,,,,,,,,,,,,,,,,,,,,,,,,,,,,,,,,,,,,,,space,168.0218,0,2,2,2,1,Instructions/i6.png,test,conditions/block1.xlsx,1.2,0.5
,,,,,,,,,,ssf,1,2024-06-28_16h13.45.416,DCT_v1_online,2021.2.3,Win32,60.24096386,space,0.9358,0.442,1.908,273,down,1,right,1,0,0,0,122,1,123,incongruent,down,down,congruent,Stim/Aincon.png,down,0,-0.1,180,8,100,incongruent,left,right,incongruent,Stim/Aincon.png,right,-0.1,0,-90,6,2000,stimuli\\,0.9683,1.0531,2.058,,,,,,,,,,,,
,,,,,,,,,,ssf,1,2024-06-28_16h13.45.416,DCT_v1_online,2021.2.3,Win32,60.24096386,,,0.136,2.214,274,up,1,left,1,0,1,1,76,1,77,incongruent,up,up,congruent,Stim/Aincon.png,up,0,0.1,0,5,100,incongruent,right,left,incongruent,Stim/Aincon.png,left,0.1,0,90,7,2000,stimuli\\,0.753,1.0666,2.364,,,,,,,,,,,,
,,,,,,,,,,ssf,1,2024-06-28_16h13.45.416,DCT_v1_online,2021.2.3,Win32,60.24096386,,,0.046,3.204,275,up,1,left,1,0,2,2,97,1,98,incongruent,down,up,incongruent,Stim/Aincon.png,up,0,-0.1,0,7,1000,congruent,left,left,congruent,Stim/Acon.png,left,-0.1,0,90,1,2000,stimuli\\,0.8091,0.384,2.454,,,,,,,,,,,,
,,,,,,,,,,ssf,1,2024-06-28_16h13.45.416,DCT_v1_online,2021.2.3,Win32,60.24096386,,,0.391,2.859,276,down,1,right,1,0,3,3,19,1,20,congruent,up,down,incongruent,Stim/Acon.png,down,0,0.1,180,2,1000,congruent,left,right,incongruent,Stim/Acon.png,right,-0.1,0,-90,2,2000,stimuli\\,0.5716,0.4488,2.109,,,,,,,,,,,,
,,,,,,,,,,ssf,1,2024-06-28_16h13.45.416,DCT_v1_online,2021.2.3,Win32,60.24096386,,,0.098,3.152,277,up,1,right,1,0,4,4,71,1,72,incongruent,up,up,congruent,Stim/Aincon.png,up,0,0.1,0,5,1000,congruent,right,right,congruent,Stim/Acon.png,right,0.1,0,-90,4,2000,stimuli\\,0.5259,0.5711,2.402,,,,,,,,,,,,
,,,,,,,,,,ssf,1,2024-06-28_16h13.45.416,DCT_v1_online,2021.2.3,Win32,60.24096386,,,0.091,2.259,278,up,1,left,1,0,5,5,100,1,101,incongruent,down,up,incongruent,Stim/Aincon.png,up,0,-0.1,0,7,100,congruent,right,left,incongruent,Stim/Acon.png,left,0.1,0,90,3,2000,stimuli\\,0.7286,0.9106,2.409,,,,,,,,,,,,
,,,,,,,,,,ssf,1,2024-06-28_16h13.45.416,DCT_v1_online,2021.2.3,Win32,60.24096386,,,0.186,2.164,279,down,1,left,1,0,6,6,92,1,93,incongruent,up,down,incongruent,Stim/Aincon.png,down,0,0.1,180,6,100,incongruent,right,left,incongruent,Stim/Aincon.png,left,0.1,0,90,7,2000,stimuli\\,0.6941,0.9625,2.314,,,,,,,,,,,,
,,,,,,,,,,ssf,1,2024-06-28_16h13.45.416,DCT_v1_online,2021.2.3,Win32,60.24096386,,,0.312,2.938,280,down,1,right,1,0,7,7,51,1,52,congruent,down,down,congruent,Stim/Acon.png,down,0,-0.1,180,4,1000,congruent,left,right,incongruent,Stim/Acon.png,right,-0.1,0,-90,2,2000,stimuli\\,0.5373,0.5273,2.188,,,,,,,,,,,,
,,,,,,,,,,ssf,1,2024-06-28_16h13.45.416,DCT_v1_online,2021.2.3,Win32,60.24096386,,,0.001,3.249,281,up,1,right,1,0,8,8,99,1,100,incongruent,down,up,incongruent,Stim/Aincon.png,up,0,-0.1,0,7,1000,congruent,left,right,incongruent,Stim/Acon.png,right,-0.1,0,-90,2,2000,stimuli\\,0.657,0.5028,2.499,,,,,,,,,,,,
,,,,,,,,,,ssf,1,2024-06-28_16h13.45.416,DCT_v1_online,2021.2.3,Win32,60.24096386,,,0.361,1.989,282,up,1,right,1,0,9,9,10,1,11,congruent,up,up,congruent,Stim/Acon.png,up,0,0.1,0,1,100,incongruent,left,right,incongruent,Stim/Aincon.png,right,-0.1,0,-90,6,2000,stimuli\\,0.6005,0.9674,2.139,,,,,,,,,,,,
,,,,,,,,,,ssf,1,2024-06-28_16h13.45.416,DCT_v1_online,2021.2.3,Win32,60.24096386,,,0.261,2.089,283,down,1,right,1,0,10,10,50,1,51,congruent,down,down,congruent,Stim/Acon.png,down,0,-0.1,180,4,100,congruent,left,right,incongruent,Stim/Acon.png,right,-0.1,0,-90,2,2000,stimuli\\,0.8137,1.1567,2.239,,,,,,,,,,,,
,,,,,,,,,,ssf,1,2024-06-28_16h13.45.416,DCT_v1_online,2021.2.3,Win32,60.24096386,,,0.385,1.965,284,up,1,left,1,0,11,11,64,1,65,incongruent,up,up,congruent,Stim/Aincon.png,up,0,0.1,0,5,100,congruent,left,left,congruent,Stim/Acon.png,left,-0.1,0,90,1,2000,stimuli\\,0.6833,0.9542,2.115,,,,,,,,,,,,
,,,,,,,,,,ssf,1,2024-06-28_16h13.45.416,DCT_v1_online,2021.2.3,Win32,60.24096386,,,0.295,2.055,285,up,1,right,1,0,12,12,66,1,67,incongruent,up,up,congruent,Stim/Aincon.png,up,0,0.1,0,5,100,congruent,left,right,incongruent,Stim/Acon.png,right,-0.1,0,-90,2,2000,stimuli\\,0.6054,0.8715,2.205,,,,,,,,,,,,
,,,,,,,,,,ssf,1,2024-06-28_16h13.45.416,DCT_v1_online,2021.2.3,Win32,60.24096386,,,0.393,1.957,286,down,1,left,1,0,13,13,124,1,125,incongruent,down,down,congruent,Stim/Aincon.png,down,0,-0.1,180,8,100,incongruent,right,left,incongruent,Stim/Aincon.png,left,0.1,0,90,7,2000,stimuli\\,0.7992,1.0873,2.107,,,,,,,,,,,,
,,,,,,,,,,ssf,1,2024-06-28_16h13.45.416,DCT_v1_online,2021.2.3,Win32,60.24096386,,,0.303,2.947,287,down,1,left,1,0,14,14,113,1,114,incongruent,down,down,congruent,Stim/Aincon.png,down,0,-0.1,180,8,1000,congruent,left,left,congruent,Stim/Acon.png,left,-0.1,0,90,1,2000,stimuli\\,0.8255,0.4544,2.197,,,,,,,,,,,,
,,,,,,,,,,ssf,1,2024-06-28_16h13.45.416,DCT_v1_online,2021.2.3,Win32,60.24096386,,,0.118,2.232,288,down,1,right,1,0,15,15,86,1,87,incongruent,up,down,incongruent,Stim/Aincon.png,down,0,0.1,180,6,100,congruent,right,right,congruent,Stim/Acon.png,right,0.1,0,-90,4,2000,stimuli\\,0.651,0.8767,2.382,,,,,,,,,,,,
,,,,,,,,,,ssf,1,2024-06-28_16h13.45.416,DCT_v1_online,2021.2.3,Win32,60.24096386,,,0.073,3.177,289,up,1,right,1,0,16,16,7,1,8,congruent,up,up,congruent,Stim/Acon.png,up,0,0.1,0,1,1000,congruent,right,right,congruent,Stim/Acon.png,right,0.1,0,-90,4,2000,stimuli\\,0.4573,0.4432,2.427,,,,,,,,,,,,
,,,,,,,,,,ssf,1,2024-06-28_16h13.45.416,DCT_v1_online,2021.2.3,Win32,60.24096386,,,0.086,2.264,290,up,1,left,1,0,17,17,104,1,105,incongruent,down,up,incongruent,Stim/Aincon.png,up,0,-0.1,0,7,100,incongruent,left,left,congruent,Stim/Aincon.png,left,-0.1,0,90,5,2000,stimuli\\,0.7453,1.0256,2.414,,,,,,,,,,,,
,,,,,,,,,,ssf,1,2024-06-28_16h13.45.416,DCT_v1_online,2021.2.3,Win32,60.24096386,,,0.456,2.794,291,up,1,left,1,0,18,18,33,1,34,congruent,down,up,incongruent,Stim/Acon.png,up,0,-0.1,0,3,1000,congruent,left,left,congruent,Stim/Acon.png,left,-0.1,0,90,1,2000,stimuli\\,0.5916,0.4176,2.044,,,,,,,,,,,,
,,,,,,,,,,ssf,1,2024-06-28_16h13.45.416,DCT_v1_online,2021.2.3,Win32,60.24096386,,,0.204,3.046,292,up,1,left,1,0,19,19,9,1,10,congruent,up,up,congruent,Stim/Acon.png,up,0,0.1,0,1,1000,incongruent,left,left,congruent,Stim/Aincon.png,left,-0.1,0,90,5,2000,stimuli\\,0.4901,0.6163,2.296,,,,,,,,,,,,
,,,,,,,,,,ssf,1,2024-06-28_16h13.45.416,DCT_v1_online,2021.2.3,Win32,60.24096386,,,0.404,2.846,293,down,1,left,1,0,20,20,49,1,50,congruent,down,down,congruent,Stim/Acon.png,down,0,-0.1,180,4,1000,congruent,left,left,congruent,Stim/Acon.png,left,-0.1,0,90,1,2000,stimuli\\,0.6339,0.3917,2.096,,,,,,,,,,,,
,,,,,,,,,,ssf,1,2024-06-28_16h13.45.416,DCT_v1_online,2021.2.3,Win32,60.24096386,,,0.171,3.079,294,up,1,left,1,0,21,21,105,1,106,incongruent,down,up,incongruent,Stim/Aincon.png,up,0,-0.1,0,7,1000,incongruent,left,left,congruent,Stim/Aincon.png,left,-0.1,0,90,5,2000,stimuli\\,0.6943,0.5005,2.329,,,,,,,,,,,,
,,,,,,,,,,ssf,1,2024-06-28_16h13.45.416,DCT_v1_online,2021.2.3,Win32,60.24096386,,,0.396,2.854,295,up,1,right,1,0,22,22,35,1,36,congruent,down,up,incongruent,Stim/Acon.png,up,0,-0.1,0,3,1000,congruent,left,right,incongruent,Stim/Acon.png,right,-0.1,0,-90,2,2000,stimuli\\,0.5325,0.6698,2.104,,,,,,,,,,,,
,,,,,,,,,,ssf,1,2024-06-28_16h13.45.416,DCT_v1_online,2021.2.3,Win32,60.24096386,,,0.218,3.032,296,down,1,left,1,0,23,23,89,1,90,incongruent,up,down,incongruent,Stim/Aincon.png,down,0,0.1,180,6,1000,incongruent,left,left,congruent,Stim/Aincon.png,left,-0.1,0,90,5,2000,stimuli\\,0.6535,0.4838,2.282,,,,,,,,,,,,
,,,,,,,,,,ssf,1,2024-06-28_16h13.45.416,DCT_v1_online,2021.2.3,Win32,60.24096386,,,0.254,2.096,297,down,1,right,1,0,24,24,82,1,83,incongruent,up,down,incongruent,Stim/Aincon.png,down,0,0.1,180,6,100,congruent,left,right,incongruent,Stim/Acon.png,right,-0.1,0,-90,2,2000,stimuli\\,0.6917,0.9901,2.246,,,,,,,,,,,,
,,,,,,,,,,ssf,1,2024-06-28_16h13.45.416,DCT_v1_online,2021.2.3,Win32,60.24096386,,,0.18,2.17,298,up,1,left,1,0,25,25,72,1,73,incongruent,up,up,congruent,Stim/Aincon.png,up,0,0.1,0,5,100,incongruent,left,left,congruent,Stim/Aincon.png,left,-0.1,0,90,5,2000,stimuli\\,0.5684,0.8214,2.32,,,,,,,,,,,,
,,,,,,,,,,ssf,1,2024-06-28_16h13.45.416,DCT_v1_online,2021.2.3,Win32,60.24096386,,,0.062,2.288,299,,0,left,0,0,26,26,94,1,95,incongruent,up,down,incongruent,Stim/Aincon.png,down,0,0.1,180,6,100,incongruent,right,right,congruent,Stim/Aincon.png,right,0.1,0,-90,8,2000,stimuli\\,,0.7506,,,,,,,,,,,,,
,,,,,,,,,,ssf,1,2024-06-28_16h13.45.416,DCT_v1_online,2021.2.3,Win32,60.24096386,,,0.226,2.124,300,down,1,left,1,0,27,27,120,1,121,incongruent,down,down,congruent,Stim/Aincon.png,down,0,-0.1,180,8,100,incongruent,left,left,congruent,Stim/Aincon.png,left,-0.1,0,90,5,2000,stimuli\\,1.1764,0.6652,2.274,,,,,,,,,,,,
,,,,,,,,,,ssf,1,2024-06-28_16h13.45.416,DCT_v1_online,2021.2.3,Win32,60.24096386,,,0.442,2.808,301,down,1,right,1,0,28,28,119,1,120,incongruent,down,down,congruent,Stim/Aincon.png,down,0,-0.1,180,8,1000,congruent,right,right,congruent,Stim/Acon.png,right,0.1,0,-90,4,2000,stimuli\\,0.6908,0.6498,2.058,,,,,,,,,,,,
,,,,,,,,,,ssf,1,2024-06-28_16h13.45.416,DCT_v1_online,2021.2.3,Win32,60.24096386,,,0.261,2.089,302,up,1,left,1,0,29,29,0,1,1,congruent,up,up,congruent,Stim/Acon.png,up,0,0.1,0,1,100,congruent,left,left,congruent,Stim/Acon.png,left,-0.1,0,90,1,2000,stimuli\\,1.4029,0.7928,2.239,,,,,,,,,,,,
,,,,,,,,,,ssf,1,2024-06-28_16h13.45.416,DCT_v1_online,2021.2.3,Win32,60.24096386,,,0.311,2.039,303,down,1,left,1,0,30,30,80,1,81,incongruent,up,down,incongruent,Stim/Aincon.png,down,0,0.1,180,6,100,congruent,left,left,congruent,Stim/Acon.png,left,-0.1,0,90,1,2000,stimuli\\,1.0465,0.487,2.189,,,,,,,,,,,,
,,,,,,,,,,ssf,1,2024-06-28_16h13.45.416,DCT_v1_online,2021.2.3,Win32,60.24096386,,,0.138,3.112,304,up,1,left,1,0,31,31,45,1,46,congruent,down,up,incongruent,Stim/Acon.png,up,0,-0.1,0,3,1000,incongruent,right,left,incongruent,Stim/Aincon.png,left,0.1,0,90,7,2000,stimuli\\,0.6357,0.7167,2.362,,,,,,,,,,,,
,,,,,,,,,,ssf,1,2024-06-28_16h13.45.416,DCT_v1_online,2021.2.3,Win32,60.24096386,,,0.339,2.011,305,up,1,right,1,0,32,32,46,1,47,congruent,down,up,incongruent,Stim/Acon.png,up,0,-0.1,0,3,100,incongruent,right,right,congruent,Stim/Aincon.png,right,0.1,0,-90,8,2000,stimuli\\,0.8153,1.1001,2.161,,,,,,,,,,,,
,,,,,,,,,,ssf,1,2024-06-28_16h13.45.416,DCT_v1_online,2021.2.3,Win32,60.24096386,,,0.199,3.051,306,down,1,right,1,0,33,33,55,1,56,congruent,down,down,congruent,Stim/Acon.png,down,0,-0.1,180,4,1000,congruent,right,right,congruent,Stim/Acon.png,right,0.1,0,-90,4,2000,stimuli\\,0.5988,0.5239,2.301,,,,,,,,,,,,
,,,,,,,,,,ssf,1,2024-06-28_16h13.45.416,DCT_v1_online,2021.2.3,Win32,60.24096386,,,0.145,2.205,307,up,1,right,1,0,34,34,98,1,99,incongruent,down,up,incongruent,Stim/Aincon.png,up,0,-0.1,0,7,100,congruent,left,right,incongruent,Stim/Acon.png,right,-0.1,0,-90,2,2000,stimuli\\,0.6835,0.911,2.355,,,,,,,,,,,,
,,,,,,,,,,ssf,1,2024-06-28_16h13.45.416,DCT_v1_online,2021.2.3,Win32,60.24096386,,,0.334,2.016,308,up,1,right,1,0,35,35,106,1,107,incongruent,down,up,incongruent,Stim/Aincon.png,up,0,-0.1,0,7,100,incongruent,left,right,incongruent,Stim/Aincon.png,right,-0.1,0,-90,6,2000,stimuli\\,0.5541,0.8957,2.166,,,,,,,,,,,,
,,,,,,,,,,ssf,1,2024-06-28_16h13.45.416,DCT_v1_online,2021.2.3,Win32,60.24096386,,,0.325,2.025,309,down,1,left,1,0,36,36,112,1,113,incongruent,down,down,congruent,Stim/Aincon.png,down,0,-0.1,180,8,100,congruent,left,left,congruent,Stim/Acon.png,left,-0.1,0,90,1,2000,stimuli\\,0.6707,0.9414,2.175,,,,,,,,,,,,
,,,,,,,,,,ssf,1,2024-06-28_16h13.45.416,DCT_v1_online,2021.2.3,Win32,60.24096386,,,0.323,2.027,310,down,1,left,1,0,37,37,56,1,57,congruent,down,down,congruent,Stim/Acon.png,down,0,-0.1,180,4,100,incongruent,left,left,congruent,Stim/Aincon.png,left,-0.1,0,90,5,2000,stimuli\\,0.7672,1.0707,2.177,,,,,,,,,,,,
,,,,,,,,,,ssf,1,2024-06-28_16h13.45.416,DCT_v1_online,2021.2.3,Win32,60.24096386,,,0.016,2.334,311,up,1,left,1,0,38,38,4,1,5,congruent,up,up,congruent,Stim/Acon.png,up,0,0.1,0,1,100,congruent,right,left,incongruent,Stim/Acon.png,left,0.1,0,90,3,2000,stimuli\\,0.6669,0.958,2.484,,,,,,,,,,,,
,,,,,,,,,,ssf,1,2024-06-28_16h13.45.416,DCT_v1_online,2021.2.3,Win32,60.24096386,,,0.317,2.933,312,up,1,right,1,0,39,39,3,1,4,congruent,up,up,congruent,Stim/Acon.png,up,0,0.1,0,1,1000,congruent,left,right,incongruent,Stim/Acon.png,right,-0.1,0,-90,2,2000,stimuli\\,0.5369,0.5506,2.183,,,,,,,,,,,,
,,,,,,,,,,ssf,1,2024-06-28_16h13.45.416,DCT_v1_online,2021.2.3,Win32,60.24096386,,,0.31,2.94,313,down,1,left,1,0,40,40,93,1,94,incongruent,up,down,incongruent,Stim/Aincon.png,down,0,0.1,180,6,1000,incongruent,right,left,incongruent,Stim/Aincon.png,left,0.1,0,90,7,2000,stimuli\\,0.6777,0.7341,2.19,,,,,,,,,,,,
,,,,,,,,,,ssf,1,2024-06-28_16h13.45.416,DCT_v1_online,2021.2.3,Win32,60.24096386,,,0.103,3.147,314,up,1,left,1,0,41,41,41,1,42,congruent,down,up,incongruent,Stim/Acon.png,up,0,-0.1,0,3,1000,incongruent,left,left,congruent,Stim/Aincon.png,left,-0.1,0,90,5,2000,stimuli\\,0.5738,0.6037,2.397,,,,,,,,,,,,
,,,,,,,,,,ssf,1,2024-06-28_16h13.45.416,DCT_v1_online,2021.2.3,Win32,60.24096386,,,0.179,3.071,315,down,1,right,1,0,42,42,23,1,24,congruent,up,down,incongruent,Stim/Acon.png,down,0,0.1,180,2,1000,congruent,right,right,congruent,Stim/Acon.png,right,0.1,0,-90,4,2000,stimuli\\,0.5658,0.606,2.321,,,,,,,,,,,,
,,,,,,,,,,ssf,1,2024-06-28_16h13.45.416,DCT_v1_online,2021.2.3,Win32,60.24096386,,,0.403,2.847,316,up,1,right,1,0,43,43,39,1,40,congruent,down,up,incongruent,Stim/Acon.png,up,0,-0.1,0,3,1000,congruent,right,right,congruent,Stim/Acon.png,right,0.1,0,-90,4,2000,stimuli\\,0.6008,0.485,2.097,,,,,,,,,,,,
,,,,,,,,,,ssf,1,2024-06-28_16h13.45.416,DCT_v1_online,2021.2.3,Win32,60.24096386,,,0.326,2.024,317,up,1,right,1,0,44,44,74,1,75,incongruent,up,up,congruent,Stim/Aincon.png,up,0,0.1,0,5,100,incongruent,left,right,incongruent,Stim/Aincon.png,right,-0.1,0,-90,6,2000,stimuli\\,0.6509,1.0001,2.174,,,,,,,,,,,,
,,,,,,,,,,ssf,1,2024-06-28_16h13.45.416,DCT_v1_online,2021.2.3,Win32,60.24096386,,,0.253,2.997,318,up,1,left,1,0,45,45,73,1,74,incongruent,up,up,congruent,Stim/Aincon.png,up,0,0.1,0,5,1000,incongruent,left,left,congruent,Stim/Aincon.png,left,-0.1,0,90,5,2000,stimuli\\,0.5007,0.491,2.247,,,,,,,,,,,,
,,,,,,,,,,ssf,1,2024-06-28_16h13.45.416,DCT_v1_online,2021.2.3,Win32,60.24096386,,,0.171,2.179,319,up,1,left,1,0,46,46,96,1,97,incongruent,down,up,incongruent,Stim/Aincon.png,up,0,-0.1,0,7,100,congruent,left,left,congruent,Stim/Acon.png,left,-0.1,0,90,1,2000,stimuli\\,0.7,0.9037,2.329,,,,,,,,,,,,
,,,,,,,,,,ssf,1,2024-06-28_16h13.45.416,DCT_v1_online,2021.2.3,Win32,60.24096386,,,0.491,2.759,320,down,1,right,0,0,47,47,29,1,30,congruent,up,down,incongruent,Stim/Acon.png,down,0,0.1,180,2,1000,incongruent,right,left,incongruent,Stim/Aincon.png,left,0.1,0,90,7,2000,stimuli\\,0.6029,0.4676,2.009,,,,,,,,,,,,
