﻿key_resp.keys,key_resp.rt,trials_2.thisRepN,trials_2.thisTrialN,trials_2.thisN,trials_2.thisIndex,trials_2.ran,stim_ins,size_insrx,size_insry,name,session,date,expName,psychopyVersion,OS,frameRate,key_resp_2.keys,key_resp_2.rt,注视点1,试次呈现时间+注视点2,count,key_resp_T1.keys,key_resp_T1.corr,key_resp_T1.rt,key_resp_T2.keys,key_resp_T2.corr,key_resp_T2.rt,注视点2,trials.thisRepN,trials.thisTrialN,trials.thisN,trials.thisIndex,trials.ran,TrialNumber,FlankerConditionT1,LocationT1,DirectionT1,LocationConditionT1,ImageT1,CorrectAnswerT1,PositionT1x,PositionT1y,anglefilpT1,ConditionT1,IntervalT1toT2,FlankerConditionT2,LocationT2,DirectionT2,LocationConditionT2,ImageT2,CorrectAnswerT2,PositionT2x,PositionT2y,anglefilpT2,ConditionT2,DurationFixation,TargetFilePath,key_resp_3.keys,key_resp_3.rt,trials_3.thisRepN,trials_3.thisTrialN,trials_3.thisN,trials_3.thisIndex,trials_3.ran,instr_p_t,block_type,cond,size_p_tx,size_p_ty
space,2.9546,0,0,0,0,1,Instructions/i1.png,1,0.4,zuxin,1,2024-06-29_10h00.44.555,DCT_v1_online,2021.2.3,Win32,60.31726883,,,,,,,,,,,,,,,,,,,,,,,,,,,,,,,,,,,,,,,,,,,,,,,,,,,,,
space,4.7251,0,1,1,1,1,Instructions/i2.png,1.4,0.85,zuxin,1,2024-06-29_10h00.44.555,DCT_v1_online,2021.2.3,Win32,60.31726883,,,,,,,,,,,,,,,,,,,,,,,,,,,,,,,,,,,,,,,,,,,,,,,,,,,,,
space,11.8501,0,2,2,2,1,Instructions/i3.png,1.2,0.85,zuxin,1,2024-06-29_10h00.44.555,DCT_v1_online,2021.2.3,Win32,60.31726883,,,,,,,,,,,,,,,,,,,,,,,,,,,,,,,,,,,,,,,,,,,,,,,,,,,,,
,,,,,,,,,,zuxin,1,2024-06-29_10h00.44.555,DCT_v1_online,2021.2.3,Win32,60.31726883,space,9.9933,0.221,2.129,1,down,1,1.3444,left,0,1.5101,2.279,0,0,0,14,1,113,incongruent,down,down,congruent,Stim/Aincon.png,down,0,-0.1,180,8,100,incongruent,left,right,congruent,Stim/Aincon.png,right,-0.1,0,-90,1,2000,stimuli\\,,,,,,,,,,,,
,,,,,,,,,,zuxin,1,2024-06-29_10h00.44.555,DCT_v1_online,2021.2.3,Win32,60.31726883,,,0.331,2.919,2,down,1,1.6675,right,1,0.9209,2.169,0,1,1,11,1,82,incongruent,up,down,incongruent,Stim/Aincon.png,down,0,0.1,180,6,1000,congruent,left,right,congruent,Stim/Acon.png,right,-0.1,0,-90,1,2000,stimuli\\,,,,,,,,,,,,
,,,,,,,,,,zuxin,1,2024-06-29_10h00.44.555,DCT_v1_online,2021.2.3,Win32,60.31726883,,,0.205,2.145,3,down,1,0.984,left,1,1.1351,2.295,0,2,2,6,1,49,congruent,down,down,congruent,Stim/Acon.png,down,0,-0.1,180,4,100,incongruent,left,left,congruent,Stim/Aincon.png,left,-0.1,0,90,1,2000,stimuli\\,,,,,,,,,,,,
,,,,,,,,,,zuxin,1,2024-06-29_10h00.44.555,DCT_v1_online,2021.2.3,Win32,60.31726883,,,0.436,1.914,4,down,1,0.9749,right,1,1.1022,2.064,0,3,3,10,1,81,incongruent,up,down,incongruent,Stim/Aincon.png,down,0,0.1,180,6,100,congruent,left,right,congruent,Stim/Acon.png,right,-0.1,0,-90,1,2000,stimuli\\,,,,,,,,,,,,
,,,,,,,,,,zuxin,1,2024-06-29_10h00.44.555,DCT_v1_online,2021.2.3,Win32,60.31726883,,,0.423,2.827,5,down,1,1.5781,right,1,0.8218,2.077,0,4,4,15,1,114,incongruent,down,down,congruent,Stim/Aincon.png,down,0,-0.1,180,8,1000,incongruent,left,right,congruent,Stim/Aincon.png,right,-0.1,0,-90,1,2000,stimuli\\,,,,,,,,,,,,
,,,,,,,,,,zuxin,1,2024-06-29_10h00.44.555,DCT_v1_online,2021.2.3,Win32,60.31726883,,,0.28,2.97,6,down,1,1.5126,left,1,0.7092,2.22,0,5,5,7,1,50,congruent,down,down,congruent,Stim/Acon.png,down,0,-0.1,180,4,1000,incongruent,left,left,congruent,Stim/Aincon.png,left,-0.1,0,90,1,2000,stimuli\\,,,,,,,,,,,,
,,,,,,,,,,zuxin,1,2024-06-29_10h00.44.555,DCT_v1_online,2021.2.3,Win32,60.31726883,,,0.445,2.805,7,up,1,1.4421,right,1,0.6909,2.055,0,6,6,1,1,2,congruent,up,up,congruent,Stim/Acon.png,up,0,0.1,0,1,1000,congruent,left,right,congruent,Stim/Acon.png,right,-0.1,0,-90,1,2000,stimuli\\,,,,,,,,,,,,
,,,,,,,,,,zuxin,1,2024-06-29_10h00.44.555,DCT_v1_online,2021.2.3,Win32,60.31726883,,,0.215,2.135,8,up,1,1.5425,right,0,1.6666,2.285,0,7,7,12,1,111,incongruent,down,up,incongruent,Stim/Aincon.png,up,0,-0.1,0,7,100,incongruent,right,left,congruent,Stim/Aincon.png,left,0.1,0,90,8,2000,stimuli\\,,,,,,,,,,,,
,,,,,,,,,,zuxin,1,2024-06-29_10h00.44.555,DCT_v1_online,2021.2.3,Win32,60.31726883,,,0.412,1.938,9,up,1,0.9507,left,1,1.0506,2.088,0,8,8,4,1,33,congruent,down,up,incongruent,Stim/Acon.png,up,0,-0.1,0,3,100,incongruent,left,left,congruent,Stim/Aincon.png,left,-0.1,0,90,1,2000,stimuli\\,,,,,,,,,,,,
,,,,,,,,,,zuxin,1,2024-06-29_10h00.44.555,DCT_v1_online,2021.2.3,Win32,60.31726883,,,0.371,1.979,10,up,1,0.7088,right,1,0.8608,2.129,0,9,9,0,1,1,congruent,up,up,congruent,Stim/Acon.png,up,0,0.1,0,1,100,congruent,left,right,congruent,Stim/Acon.png,right,-0.1,0,-90,1,2000,stimuli\\,,,,,,,,,,,,
,,,,,,,,,,zuxin,1,2024-06-29_10h00.44.555,DCT_v1_online,2021.2.3,Win32,60.31726883,,,0.306,2.044,11,down,1,0.8035,right,1,0.929,2.194,0,10,10,2,1,17,congruent,up,down,incongruent,Stim/Acon.png,down,0,0.1,180,2,100,congruent,left,right,congruent,Stim/Acon.png,right,-0.1,0,-90,1,2000,stimuli\\,,,,,,,,,,,,
,,,,,,,,,,zuxin,1,2024-06-29_10h00.44.555,DCT_v1_online,2021.2.3,Win32,60.31726883,,,0.109,2.241,12,up,1,0.8255,right,1,1.0287,2.391,0,11,11,8,1,65,incongruent,up,up,congruent,Stim/Aincon.png,up,0,0.1,0,5,100,congruent,left,right,congruent,Stim/Acon.png,right,-0.1,0,-90,1,2000,stimuli\\,,,,,,,,,,,,
,,,,,,,,,,zuxin,1,2024-06-29_10h00.44.555,DCT_v1_online,2021.2.3,Win32,60.31726883,,,0.223,3.027,13,up,1,0.9342,left,1,0.7343,2.277,0,12,12,13,1,112,incongruent,down,up,incongruent,Stim/Aincon.png,up,0,-0.1,0,7,1000,incongruent,right,left,congruent,Stim/Aincon.png,left,0.1,0,90,8,2000,stimuli\\,,,,,,,,,,,,
,,,,,,,,,,zuxin,1,2024-06-29_10h00.44.555,DCT_v1_online,2021.2.3,Win32,60.31726883,,,0.416,2.834,14,down,1,0.7346,right,1,0.4441,2.084,0,13,13,3,1,18,congruent,up,down,incongruent,Stim/Acon.png,down,0,0.1,180,2,1000,congruent,left,right,congruent,Stim/Acon.png,right,-0.1,0,-90,1,2000,stimuli\\,,,,,,,,,,,,
,,,,,,,,,,zuxin,1,2024-06-29_10h00.44.555,DCT_v1_online,2021.2.3,Win32,60.31726883,,,0.458,2.792,15,up,1,0.6948,right,1,0.4514,2.042,0,14,14,9,1,66,incongruent,up,up,congruent,Stim/Aincon.png,up,0,0.1,0,5,1000,congruent,left,right,congruent,Stim/Acon.png,right,-0.1,0,-90,1,2000,stimuli\\,,,,,,,,,,,,
,,,,,,,,,,zuxin,1,2024-06-29_10h00.44.555,DCT_v1_online,2021.2.3,Win32,60.31726883,,,0.064,3.186,16,up,1,0.687,left,1,0.7188,2.436,0,15,15,5,1,34,congruent,down,up,incongruent,Stim/Acon.png,up,0,-0.1,0,3,1000,incongruent,left,left,congruent,Stim/Aincon.png,left,-0.1,0,90,1,2000,stimuli\\,,,,,,,,,,,,
,,,,,,,,,,zuxin,1,2024-06-29_10h00.44.555,DCT_v1_online,2021.2.3,Win32,60.31726883,,,,,,,,,,,,,,,,,,,,,,,,,,,,,,,,,,,,,,,,,,space,3.4566,0,0,0,0,1,Instructions/i4.png,pra,conditions/blockpra.xlsx,0.8,0.45
,,,,,,,,,,zuxin,1,2024-06-29_10h00.44.555,DCT_v1_online,2021.2.3,Win32,60.31726883,space,5.9477,0.209,2.141,17,down,1,0.9477,left,1,1.0315,2.291,0,0,0,52,1,53,congruent,down,down,congruent,Stim/Acon.png,down,0,-0.1,180,4,100,congruent,right,left,incongruent,Stim/Acon.png,left,0.1,0,90,3,2000,stimuli\\,,,,,,,,,,,,
,,,,,,,,,,zuxin,1,2024-06-29_10h00.44.555,DCT_v1_online,2021.2.3,Win32,60.31726883,,,0.239,2.111,18,up,1,0.8561,left,1,0.9478,2.261,0,1,1,104,1,105,incongruent,down,up,incongruent,Stim/Aincon.png,up,0,-0.1,0,7,100,incongruent,left,left,congruent,Stim/Aincon.png,left,-0.1,0,90,5,2000,stimuli\\,,,,,,,,,,,,
,,,,,,,,,,zuxin,1,2024-06-29_10h00.44.555,DCT_v1_online,2021.2.3,Win32,60.31726883,,,0.437,2.813,19,up,1,0.7642,left,1,0.5129,2.063,0,2,2,109,1,110,incongruent,down,up,incongruent,Stim/Aincon.png,up,0,-0.1,0,7,1000,incongruent,right,left,incongruent,Stim/Aincon.png,left,0.1,0,90,7,2000,stimuli\\,,,,,,,,,,,,
,,,,,,,,,,zuxin,1,2024-06-29_10h00.44.555,DCT_v1_online,2021.2.3,Win32,60.31726883,,,0.477,1.873,20,down,1,0.9026,left,1,0.9925,2.023,0,3,3,80,1,81,incongruent,up,down,incongruent,Stim/Aincon.png,down,0,0.1,180,6,100,congruent,left,left,congruent,Stim/Acon.png,left,-0.1,0,90,1,2000,stimuli\\,,,,,,,,,,,,
,,,,,,,,,,zuxin,1,2024-06-29_10h00.44.555,DCT_v1_online,2021.2.3,Win32,60.31726883,,,0.456,2.794,21,up,1,0.6109,left,1,0.4068,2.044,0,4,4,41,1,42,congruent,down,up,incongruent,Stim/Acon.png,up,0,-0.1,0,3,1000,incongruent,left,left,congruent,Stim/Aincon.png,left,-0.1,0,90,5,2000,stimuli\\,,,,,,,,,,,,
,,,,,,,,,,zuxin,1,2024-06-29_10h00.44.555,DCT_v1_online,2021.2.3,Win32,60.31726883,,,0.378,2.872,22,up,1,0.8848,right,1,0.5832,2.122,0,5,5,75,1,76,incongruent,up,up,congruent,Stim/Aincon.png,up,0,0.1,0,5,1000,incongruent,left,right,incongruent,Stim/Aincon.png,right,-0.1,0,-90,6,2000,stimuli\\,,,,,,,,,,,,
,,,,,,,,,,zuxin,1,2024-06-29_10h00.44.555,DCT_v1_online,2021.2.3,Win32,60.31726883,,,0.221,3.029,23,down,1,0.6795,right,1,0.7522,2.279,0,6,6,31,1,32,congruent,up,down,incongruent,Stim/Acon.png,down,0,0.1,180,2,1000,incongruent,right,right,congruent,Stim/Aincon.png,right,0.1,0,-90,8,2000,stimuli\\,,,,,,,,,,,,
,,,,,,,,,,zuxin,1,2024-06-29_10h00.44.555,DCT_v1_online,2021.2.3,Win32,60.31726883,,,0.263,2.087,24,up,1,0.6833,left,1,0.8501,2.237,0,7,7,40,1,41,congruent,down,up,incongruent,Stim/Acon.png,up,0,-0.1,0,3,100,incongruent,left,left,congruent,Stim/Aincon.png,left,-0.1,0,90,5,2000,stimuli\\,,,,,,,,,,,,
,,,,,,,,,,zuxin,1,2024-06-29_10h00.44.555,DCT_v1_online,2021.2.3,Win32,60.31726883,,,0.228,3.022,25,up,1,0.5383,left,1,0.445,2.272,0,8,8,65,1,66,incongruent,up,up,congruent,Stim/Aincon.png,up,0,0.1,0,5,1000,congruent,left,left,congruent,Stim/Acon.png,left,-0.1,0,90,1,2000,stimuli\\,,,,,,,,,,,,
,,,,,,,,,,zuxin,1,2024-06-29_10h00.44.555,DCT_v1_online,2021.2.3,Win32,60.31726883,,,0.137,3.113,26,down,1,0.5607,left,1,0.6657,2.363,0,9,9,57,1,58,congruent,down,down,congruent,Stim/Acon.png,down,0,-0.1,180,4,1000,incongruent,left,left,congruent,Stim/Aincon.png,left,-0.1,0,90,5,2000,stimuli\\,,,,,,,,,,,,
,,,,,,,,,,zuxin,1,2024-06-29_10h00.44.555,DCT_v1_online,2021.2.3,Win32,60.31726883,,,0.278,2.972,27,up,1,0.5827,left,1,0.4922,2.222,0,10,10,37,1,38,congruent,down,up,incongruent,Stim/Acon.png,up,0,-0.1,0,3,1000,congruent,right,left,incongruent,Stim/Acon.png,left,0.1,0,90,3,2000,stimuli\\,,,,,,,,,,,,
,,,,,,,,,,zuxin,1,2024-06-29_10h00.44.555,DCT_v1_online,2021.2.3,Win32,60.31726883,,,0.191,2.159,28,up,1,0.7826,left,1,0.8584,2.309,0,11,11,4,1,5,congruent,up,up,congruent,Stim/Acon.png,up,0,0.1,0,1,100,congruent,right,left,incongruent,Stim/Acon.png,left,0.1,0,90,3,2000,stimuli\\,,,,,,,,,,,,
,,,,,,,,,,zuxin,1,2024-06-29_10h00.44.555,DCT_v1_online,2021.2.3,Win32,60.31726883,,,0.032,2.318,29,down,1,0.754,right,1,0.9019,2.468,0,12,12,126,1,127,incongruent,down,down,congruent,Stim/Aincon.png,down,0,-0.1,180,8,100,incongruent,right,right,congruent,Stim/Aincon.png,right,0.1,0,-90,8,2000,stimuli\\,,,,,,,,,,,,
,,,,,,,,,,zuxin,1,2024-06-29_10h00.44.555,DCT_v1_online,2021.2.3,Win32,60.31726883,,,0.489,1.861,30,down,1,0.8522,left,1,0.9733,2.011,0,13,13,92,1,93,incongruent,up,down,incongruent,Stim/Aincon.png,down,0,0.1,180,6,100,incongruent,right,left,incongruent,Stim/Aincon.png,left,0.1,0,90,7,2000,stimuli\\,,,,,,,,,,,,
,,,,,,,,,,zuxin,1,2024-06-29_10h00.44.555,DCT_v1_online,2021.2.3,Win32,60.31726883,,,0.043,3.207,31,down,1,0.7762,left,1,0.5141,2.457,0,14,14,117,1,118,incongruent,down,down,congruent,Stim/Aincon.png,down,0,-0.1,180,8,1000,congruent,right,left,incongruent,Stim/Acon.png,left,0.1,0,90,3,2000,stimuli\\,,,,,,,,,,,,
,,,,,,,,,,zuxin,1,2024-06-29_10h00.44.555,DCT_v1_online,2021.2.3,Win32,60.31726883,,,0.292,2.058,32,up,1,0.6768,right,1,0.8664,2.208,0,15,15,10,1,11,congruent,up,up,congruent,Stim/Acon.png,up,0,0.1,0,1,100,incongruent,left,right,incongruent,Stim/Aincon.png,right,-0.1,0,-90,6,2000,stimuli\\,,,,,,,,,,,,
,,,,,,,,,,zuxin,1,2024-06-29_10h00.44.555,DCT_v1_online,2021.2.3,Win32,60.31726883,,,0.102,2.248,33,down,1,0.6471,right,1,0.868,2.398,0,16,16,26,1,27,congruent,up,down,incongruent,Stim/Acon.png,down,0,0.1,180,2,100,incongruent,left,right,incongruent,Stim/Aincon.png,right,-0.1,0,-90,6,2000,stimuli\\,,,,,,,,,,,,
,,,,,,,,,,zuxin,1,2024-06-29_10h00.44.555,DCT_v1_online,2021.2.3,Win32,60.31726883,,,0.066,2.284,34,up,1,0.6498,right,1,0.7937,2.434,0,17,17,34,1,35,congruent,down,up,incongruent,Stim/Acon.png,up,0,-0.1,0,3,100,congruent,left,right,incongruent,Stim/Acon.png,right,-0.1,0,-90,2,2000,stimuli\\,,,,,,,,,,,,
,,,,,,,,,,zuxin,1,2024-06-29_10h00.44.555,DCT_v1_online,2021.2.3,Win32,60.31726883,,,0.154,3.096,35,up,1,0.5328,left,1,0.4484,2.346,0,18,18,5,1,6,congruent,up,up,congruent,Stim/Acon.png,up,0,0.1,0,1,1000,congruent,right,left,incongruent,Stim/Acon.png,left,0.1,0,90,3,2000,stimuli\\,,,,,,,,,,,,
,,,,,,,,,,zuxin,1,2024-06-29_10h00.44.555,DCT_v1_online,2021.2.3,Win32,60.31726883,,,0.472,2.778,36,down,1,0.576,left,1,0.7078,2.028,0,19,19,29,1,30,congruent,up,down,incongruent,Stim/Acon.png,down,0,0.1,180,2,1000,incongruent,right,left,incongruent,Stim/Aincon.png,left,0.1,0,90,7,2000,stimuli\\,,,,,,,,,,,,
,,,,,,,,,,zuxin,1,2024-06-29_10h00.44.555,DCT_v1_online,2021.2.3,Win32,60.31726883,,,0.32,2.03,37,up,1,0.801,left,1,0.9588,2.18,0,20,20,96,1,97,incongruent,down,up,incongruent,Stim/Aincon.png,up,0,-0.1,0,7,100,congruent,left,left,congruent,Stim/Acon.png,left,-0.1,0,90,1,2000,stimuli\\,,,,,,,,,,,,
,,,,,,,,,,zuxin,1,2024-06-29_10h00.44.555,DCT_v1_online,2021.2.3,Win32,60.31726883,,,0.448,1.902,38,down,1,0.7614,left,1,0.8932,2.052,0,21,21,112,1,113,incongruent,down,down,congruent,Stim/Aincon.png,down,0,-0.1,180,8,100,congruent,left,left,congruent,Stim/Acon.png,left,-0.1,0,90,1,2000,stimuli\\,,,,,,,,,,,,
,,,,,,,,,,zuxin,1,2024-06-29_10h00.44.555,DCT_v1_online,2021.2.3,Win32,60.31726883,,,0.449,2.801,39,down,1,0.6693,right,1,0.6832,2.051,0,22,22,95,1,96,incongruent,up,down,incongruent,Stim/Aincon.png,down,0,0.1,180,6,1000,incongruent,right,right,congruent,Stim/Aincon.png,right,0.1,0,-90,8,2000,stimuli\\,,,,,,,,,,,,
,,,,,,,,,,zuxin,1,2024-06-29_10h00.44.555,DCT_v1_online,2021.2.3,Win32,60.31726883,,,0.28,2.97,40,up,1,0.742,left,1,0.4328,2.22,0,23,23,97,1,98,incongruent,down,up,incongruent,Stim/Aincon.png,up,0,-0.1,0,7,1000,congruent,left,left,congruent,Stim/Acon.png,left,-0.1,0,90,1,2000,stimuli\\,,,,,,,,,,,,
,,,,,,,,,,zuxin,1,2024-06-29_10h00.44.555,DCT_v1_online,2021.2.3,Win32,60.31726883,,,0.017,2.333,41,down,1,0.7457,left,1,0.9073,2.483,0,24,24,16,1,17,congruent,up,down,incongruent,Stim/Acon.png,down,0,0.1,180,2,100,congruent,left,left,congruent,Stim/Acon.png,left,-0.1,0,90,1,2000,stimuli\\,,,,,,,,,,,,
,,,,,,,,,,zuxin,1,2024-06-29_10h00.44.555,DCT_v1_online,2021.2.3,Win32,60.31726883,,,0.008,2.342,42,up,1,0.8238,right,1,1.0067,2.492,0,25,25,66,1,67,incongruent,up,up,congruent,Stim/Aincon.png,up,0,0.1,0,5,100,congruent,left,right,incongruent,Stim/Acon.png,right,-0.1,0,-90,2,2000,stimuli\\,,,,,,,,,,,,
,,,,,,,,,,zuxin,1,2024-06-29_10h00.44.555,DCT_v1_online,2021.2.3,Win32,60.31726883,,,0.097,2.253,43,up,1,0.7163,left,0,0.8278,2.403,0,26,26,78,1,79,incongruent,up,up,congruent,Stim/Aincon.png,up,0,0.1,0,5,100,incongruent,right,right,congruent,Stim/Aincon.png,right,0.1,0,-90,8,2000,stimuli\\,,,,,,,,,,,,
,,,,,,,,,,zuxin,1,2024-06-29_10h00.44.555,DCT_v1_online,2021.2.3,Win32,60.31726883,,,0.447,2.803,44,down,1,0.5322,right,1,0.5401,2.053,0,27,27,23,1,24,congruent,up,down,incongruent,Stim/Acon.png,down,0,0.1,180,2,1000,congruent,right,right,congruent,Stim/Acon.png,right,0.1,0,-90,4,2000,stimuli\\,,,,,,,,,,,,
,,,,,,,,,,zuxin,1,2024-06-29_10h00.44.555,DCT_v1_online,2021.2.3,Win32,60.31726883,,,0.127,3.123,45,down,1,0.6472,right,1,0.4082,2.373,0,28,28,115,1,116,incongruent,down,down,congruent,Stim/Aincon.png,down,0,-0.1,180,8,1000,congruent,left,right,incongruent,Stim/Acon.png,right,-0.1,0,-90,2,2000,stimuli\\,,,,,,,,,,,,
,,,,,,,,,,zuxin,1,2024-06-29_10h00.44.555,DCT_v1_online,2021.2.3,Win32,60.31726883,,,0.212,2.138,46,up,1,0.6768,right,1,0.8431,2.288,0,29,29,6,1,7,congruent,up,up,congruent,Stim/Acon.png,up,0,0.1,0,1,100,congruent,right,right,congruent,Stim/Acon.png,right,0.1,0,-90,4,2000,stimuli\\,,,,,,,,,,,,
,,,,,,,,,,zuxin,1,2024-06-29_10h00.44.555,DCT_v1_online,2021.2.3,Win32,60.31726883,,,0.123,2.227,47,up,1,1.0585,left,1,1.1197,2.377,0,30,30,72,1,73,incongruent,up,up,congruent,Stim/Aincon.png,up,0,0.1,0,5,100,incongruent,left,left,congruent,Stim/Aincon.png,left,-0.1,0,90,5,2000,stimuli\\,,,,,,,,,,,,
,,,,,,,,,,zuxin,1,2024-06-29_10h00.44.555,DCT_v1_online,2021.2.3,Win32,60.31726883,,,0.493,2.757,48,down,1,0.728,left,1,0.4246,2.007,0,31,31,81,1,82,incongruent,up,down,incongruent,Stim/Aincon.png,down,0,0.1,180,6,1000,congruent,left,left,congruent,Stim/Acon.png,left,-0.1,0,90,1,2000,stimuli\\,,,,,,,,,,,,
,,,,,,,,,,zuxin,1,2024-06-29_10h00.44.555,DCT_v1_online,2021.2.3,Win32,60.31726883,,,0.002,3.248,49,up,1,0.8599,left,1,0.5248,2.498,0,32,32,105,1,106,incongruent,down,up,incongruent,Stim/Aincon.png,up,0,-0.1,0,7,1000,incongruent,left,left,congruent,Stim/Aincon.png,left,-0.1,0,90,5,2000,stimuli\\,,,,,,,,,,,,
,,,,,,,,,,zuxin,1,2024-06-29_10h00.44.555,DCT_v1_online,2021.2.3,Win32,60.31726883,,,0.3,2.05,50,down,1,0.5417,right,1,0.6604,2.2,0,33,33,86,1,87,incongruent,up,down,incongruent,Stim/Aincon.png,down,0,0.1,180,6,100,congruent,right,right,congruent,Stim/Acon.png,right,0.1,0,-90,4,2000,stimuli\\,,,,,,,,,,,,
,,,,,,,,,,zuxin,1,2024-06-29_10h00.44.555,DCT_v1_online,2021.2.3,Win32,60.31726883,,,0.431,2.819,51,down,1,0.6167,left,1,0.5166,2.069,0,34,34,53,1,54,congruent,down,down,congruent,Stim/Acon.png,down,0,-0.1,180,4,1000,congruent,right,left,incongruent,Stim/Acon.png,left,0.1,0,90,3,2000,stimuli\\,,,,,,,,,,,,
,,,,,,,,,,zuxin,1,2024-06-29_10h00.44.555,DCT_v1_online,2021.2.3,Win32,60.31726883,,,0.314,2.036,52,down,1,0.6835,right,1,0.9756,2.186,0,35,35,30,1,31,congruent,up,down,incongruent,Stim/Acon.png,down,0,0.1,180,2,100,incongruent,right,right,congruent,Stim/Aincon.png,right,0.1,0,-90,8,2000,stimuli\\,,,,,,,,,,,,
,,,,,,,,,,zuxin,1,2024-06-29_10h00.44.555,DCT_v1_online,2021.2.3,Win32,60.31726883,,,0.057,2.293,53,down,1,0.6223,left,0,0.7498,2.443,0,36,36,58,1,59,congruent,down,down,congruent,Stim/Acon.png,down,0,-0.1,180,4,100,incongruent,left,right,incongruent,Stim/Aincon.png,right,-0.1,0,-90,6,2000,stimuli\\,,,,,,,,,,,,
,,,,,,,,,,zuxin,1,2024-06-29_10h00.44.555,DCT_v1_online,2021.2.3,Win32,60.31726883,,,0.267,2.083,54,up,1,0.8818,right,1,0.9731,2.233,0,37,37,106,1,107,incongruent,down,up,incongruent,Stim/Aincon.png,up,0,-0.1,0,7,100,incongruent,left,right,incongruent,Stim/Aincon.png,right,-0.1,0,-90,6,2000,stimuli\\,,,,,,,,,,,,
,,,,,,,,,,zuxin,1,2024-06-29_10h00.44.555,DCT_v1_online,2021.2.3,Win32,60.31726883,,,0.05,3.2,55,down,1,0.6476,left,1,0.6642,2.45,0,38,38,121,1,122,incongruent,down,down,congruent,Stim/Aincon.png,down,0,-0.1,180,8,1000,incongruent,left,left,congruent,Stim/Aincon.png,left,-0.1,0,90,5,2000,stimuli\\,,,,,,,,,,,,
,,,,,,,,,,zuxin,1,2024-06-29_10h00.44.555,DCT_v1_online,2021.2.3,Win32,60.31726883,,,0.036,2.314,56,down,1,0.7513,right,1,0.8432,2.464,0,39,39,118,1,119,incongruent,down,down,congruent,Stim/Aincon.png,down,0,-0.1,180,8,100,congruent,right,right,congruent,Stim/Acon.png,right,0.1,0,-90,4,2000,stimuli\\,,,,,,,,,,,,
,,,,,,,,,,zuxin,1,2024-06-29_10h00.44.555,DCT_v1_online,2021.2.3,Win32,60.31726883,,,0.25,2.1,57,up,1,1.0321,right,1,1.1313,2.25,0,40,40,74,1,75,incongruent,up,up,congruent,Stim/Aincon.png,up,0,0.1,0,5,100,incongruent,left,right,incongruent,Stim/Aincon.png,right,-0.1,0,-90,6,2000,stimuli\\,,,,,,,,,,,,
,,,,,,,,,,zuxin,1,2024-06-29_10h00.44.555,DCT_v1_online,2021.2.3,Win32,60.31726883,,,0.008,3.242,58,down,1,0.709,left,1,0.4495,2.492,0,41,41,17,1,18,congruent,up,down,incongruent,Stim/Acon.png,down,0,0.1,180,2,1000,congruent,left,left,congruent,Stim/Acon.png,left,-0.1,0,90,1,2000,stimuli\\,,,,,,,,,,,,
,,,,,,,,,,zuxin,1,2024-06-29_10h00.44.555,DCT_v1_online,2021.2.3,Win32,60.31726883,,,0,3.25,59,up,1,0.6301,right,1,0.4641,2.5,0,42,42,35,1,36,congruent,down,up,incongruent,Stim/Acon.png,up,0,-0.1,0,3,1000,congruent,left,right,incongruent,Stim/Acon.png,right,-0.1,0,-90,2,2000,stimuli\\,,,,,,,,,,,,
,,,,,,,,,,zuxin,1,2024-06-29_10h00.44.555,DCT_v1_online,2021.2.3,Win32,60.31726883,,,0.216,3.034,60,up,1,0.6942,right,1,0.664,2.284,0,43,43,111,1,112,incongruent,down,up,incongruent,Stim/Aincon.png,up,0,-0.1,0,7,1000,incongruent,right,right,congruent,Stim/Aincon.png,right,0.1,0,-90,8,2000,stimuli\\,,,,,,,,,,,,
,,,,,,,,,,zuxin,1,2024-06-29_10h00.44.555,DCT_v1_online,2021.2.3,Win32,60.31726883,,,0.004,3.246,61,up,1,0.6613,right,1,0.4674,2.496,0,44,44,7,1,8,congruent,up,up,congruent,Stim/Acon.png,up,0,0.1,0,1,1000,congruent,right,right,congruent,Stim/Acon.png,right,0.1,0,-90,4,2000,stimuli\\,,,,,,,,,,,,
,,,,,,,,,,zuxin,1,2024-06-29_10h00.44.555,DCT_v1_online,2021.2.3,Win32,60.31726883,,,0.15,3.1,62,up,1,0.5189,right,1,0.6621,2.35,0,45,45,47,1,48,congruent,down,up,incongruent,Stim/Acon.png,up,0,-0.1,0,3,1000,incongruent,right,right,congruent,Stim/Aincon.png,right,0.1,0,-90,8,2000,stimuli\\,,,,,,,,,,,,
,,,,,,,,,,zuxin,1,2024-06-29_10h00.44.555,DCT_v1_online,2021.2.3,Win32,60.31726883,,,0.217,3.033,63,down,1,0.6056,left,1,0.6786,2.283,0,46,46,25,1,26,congruent,up,down,incongruent,Stim/Acon.png,down,0,0.1,180,2,1000,incongruent,left,left,congruent,Stim/Aincon.png,left,-0.1,0,90,5,2000,stimuli\\,,,,,,,,,,,,
,,,,,,,,,,zuxin,1,2024-06-29_10h00.44.555,DCT_v1_online,2021.2.3,Win32,60.31726883,,,0.494,2.756,64,down,1,0.5649,right,1,0.4127,2.006,0,47,47,51,1,52,congruent,down,down,congruent,Stim/Acon.png,down,0,-0.1,180,4,1000,congruent,left,right,incongruent,Stim/Acon.png,right,-0.1,0,-90,2,2000,stimuli\\,,,,,,,,,,,,
,,,,,,,,,,zuxin,1,2024-06-29_10h00.44.555,DCT_v1_online,2021.2.3,Win32,60.31726883,,,0.104,2.246,65,up,1,0.6185,left,1,0.7408,2.396,0,48,48,36,1,37,congruent,down,up,incongruent,Stim/Acon.png,up,0,-0.1,0,3,100,congruent,right,left,incongruent,Stim/Acon.png,left,0.1,0,90,3,2000,stimuli\\,,,,,,,,,,,,
,,,,,,,,,,zuxin,1,2024-06-29_10h00.44.555,DCT_v1_online,2021.2.3,Win32,60.31726883,,,0.323,2.027,66,up,1,1.1391,left,1,1.3193,2.177,0,49,49,100,1,101,incongruent,down,up,incongruent,Stim/Aincon.png,up,0,-0.1,0,7,100,congruent,right,left,incongruent,Stim/Acon.png,left,0.1,0,90,3,2000,stimuli\\,,,,,,,,,,,,
,,,,,,,,,,zuxin,1,2024-06-29_10h00.44.555,DCT_v1_online,2021.2.3,Win32,60.31726883,,,0.147,3.103,67,up,1,0.6704,left,1,0.4836,2.353,0,50,50,69,1,70,incongruent,up,up,congruent,Stim/Aincon.png,up,0,0.1,0,5,1000,congruent,right,left,incongruent,Stim/Acon.png,left,0.1,0,90,3,2000,stimuli\\,,,,,,,,,,,,
,,,,,,,,,,zuxin,1,2024-06-29_10h00.44.555,DCT_v1_online,2021.2.3,Win32,60.31726883,,,0.386,1.964,68,up,1,0.7325,left,1,0.8449,2.114,0,51,51,68,1,69,incongruent,up,up,congruent,Stim/Aincon.png,up,0,0.1,0,5,100,congruent,right,left,incongruent,Stim/Acon.png,left,0.1,0,90,3,2000,stimuli\\,,,,,,,,,,,,
,,,,,,,,,,zuxin,1,2024-06-29_10h00.44.555,DCT_v1_online,2021.2.3,Win32,60.31726883,,,0.46,2.79,69,down,1,0.5981,right,1,0.4452,2.04,0,52,52,19,1,20,congruent,up,down,incongruent,Stim/Acon.png,down,0,0.1,180,2,1000,congruent,left,right,incongruent,Stim/Acon.png,right,-0.1,0,-90,2,2000,stimuli\\,,,,,,,,,,,,
,,,,,,,,,,zuxin,1,2024-06-29_10h00.44.555,DCT_v1_online,2021.2.3,Win32,60.31726883,,,0.362,2.888,70,up,1,0.6265,left,1,0.732,2.138,0,53,53,77,1,78,incongruent,up,up,congruent,Stim/Aincon.png,up,0,0.1,0,5,1000,incongruent,right,left,incongruent,Stim/Aincon.png,left,0.1,0,90,7,2000,stimuli\\,,,,,,,,,,,,
,,,,,,,,,,zuxin,1,2024-06-29_10h00.44.555,DCT_v1_online,2021.2.3,Win32,60.31726883,,,0.376,1.974,71,down,1,0.7583,left,1,0.9661,2.124,0,54,54,20,1,21,congruent,up,down,incongruent,Stim/Acon.png,down,0,0.1,180,2,100,congruent,right,left,incongruent,Stim/Acon.png,left,0.1,0,90,3,2000,stimuli\\,,,,,,,,,,,,
,,,,,,,,,,zuxin,1,2024-06-29_10h00.44.555,DCT_v1_online,2021.2.3,Win32,60.31726883,,,0.399,1.951,72,up,1,0.6542,right,1,0.8108,2.101,0,55,55,2,1,3,congruent,up,up,congruent,Stim/Acon.png,up,0,0.1,0,1,100,congruent,left,right,incongruent,Stim/Acon.png,right,-0.1,0,-90,2,2000,stimuli\\,,,,,,,,,,,,
,,,,,,,,,,zuxin,1,2024-06-29_10h00.44.555,DCT_v1_online,2021.2.3,Win32,60.31726883,,,0.192,3.058,73,up,1,0.625,right,1,0.6776,2.308,0,56,56,43,1,44,congruent,down,up,incongruent,Stim/Acon.png,up,0,-0.1,0,3,1000,incongruent,left,right,incongruent,Stim/Aincon.png,right,-0.1,0,-90,6,2000,stimuli\\,,,,,,,,,,,,
,,,,,,,,,,zuxin,1,2024-06-29_10h00.44.555,DCT_v1_online,2021.2.3,Win32,60.31726883,,,0.378,1.972,74,down,1,0.9262,left,1,1.0138,2.122,0,57,57,116,1,117,incongruent,down,down,congruent,Stim/Aincon.png,down,0,-0.1,180,8,100,congruent,right,left,incongruent,Stim/Acon.png,left,0.1,0,90,3,2000,stimuli\\,,,,,,,,,,,,
,,,,,,,,,,zuxin,1,2024-06-29_10h00.44.555,DCT_v1_online,2021.2.3,Win32,60.31726883,,,0.211,3.039,75,down,1,0.8174,left,1,0.6173,2.289,0,58,58,93,1,94,incongruent,up,down,incongruent,Stim/Aincon.png,down,0,0.1,180,6,1000,incongruent,right,left,incongruent,Stim/Aincon.png,left,0.1,0,90,7,2000,stimuli\\,,,,,,,,,,,,
,,,,,,,,,,zuxin,1,2024-06-29_10h00.44.555,DCT_v1_online,2021.2.3,Win32,60.31726883,,,0.451,2.799,76,down,1,0.6697,right,1,0.471,2.049,0,59,59,123,1,124,incongruent,down,down,congruent,Stim/Aincon.png,down,0,-0.1,180,8,1000,incongruent,left,right,incongruent,Stim/Aincon.png,right,-0.1,0,-90,6,2000,stimuli\\,,,,,,,,,,,,
,,,,,,,,,,zuxin,1,2024-06-29_10h00.44.555,DCT_v1_online,2021.2.3,Win32,60.31726883,,,0.043,3.207,77,down,1,0.7139,right,1,0.6257,2.457,0,60,60,27,1,28,congruent,up,down,incongruent,Stim/Acon.png,down,0,0.1,180,2,1000,incongruent,left,right,incongruent,Stim/Aincon.png,right,-0.1,0,-90,6,2000,stimuli\\,,,,,,,,,,,,
,,,,,,,,,,zuxin,1,2024-06-29_10h00.44.555,DCT_v1_online,2021.2.3,Win32,60.31726883,,,0.486,2.764,78,down,1,0.6494,left,1,0.5683,2.014,0,61,61,85,1,86,incongruent,up,down,incongruent,Stim/Aincon.png,down,0,0.1,180,6,1000,congruent,right,left,incongruent,Stim/Acon.png,left,0.1,0,90,3,2000,stimuli\\,,,,,,,,,,,,
,,,,,,,,,,zuxin,1,2024-06-29_10h00.44.555,DCT_v1_online,2021.2.3,Win32,60.31726883,,,0.178,2.172,79,down,1,0.807,left,1,1.0404,2.322,0,62,62,124,1,125,incongruent,down,down,congruent,Stim/Aincon.png,down,0,-0.1,180,8,100,incongruent,right,left,incongruent,Stim/Aincon.png,left,0.1,0,90,7,2000,stimuli\\,,,,,,,,,,,,
,,,,,,,,,,zuxin,1,2024-06-29_10h00.44.555,DCT_v1_online,2021.2.3,Win32,60.31726883,,,0.037,2.313,80,up,1,0.843,right,1,0.9772,2.463,0,63,63,14,1,15,congruent,up,up,congruent,Stim/Acon.png,up,0,0.1,0,1,100,incongruent,right,right,congruent,Stim/Aincon.png,right,0.1,0,-90,8,2000,stimuli\\,,,,,,,,,,,,
,,,,,,,,,,zuxin,1,2024-06-29_10h00.44.555,DCT_v1_online,2021.2.3,Win32,60.31726883,,,0.383,1.967,81,up,1,0.9206,right,1,1.0841,2.117,0,64,64,110,1,111,incongruent,down,up,incongruent,Stim/Aincon.png,up,0,-0.1,0,7,100,incongruent,right,right,congruent,Stim/Aincon.png,right,0.1,0,-90,8,2000,stimuli\\,,,,,,,,,,,,
,,,,,,,,,,zuxin,1,2024-06-29_10h00.44.555,DCT_v1_online,2021.2.3,Win32,60.31726883,,,0.176,2.174,82,down,1,0.8978,right,1,0.988,2.324,0,65,65,114,1,115,incongruent,down,down,congruent,Stim/Aincon.png,down,0,-0.1,180,8,100,congruent,left,right,incongruent,Stim/Acon.png,right,-0.1,0,-90,2,2000,stimuli\\,,,,,,,,,,,,
,,,,,,,,,,zuxin,1,2024-06-29_10h00.44.555,DCT_v1_online,2021.2.3,Win32,60.31726883,,,0.387,1.963,83,up,1,0.6317,left,1,0.9524,2.113,0,66,66,12,1,13,congruent,up,up,congruent,Stim/Acon.png,up,0,0.1,0,1,100,incongruent,right,left,incongruent,Stim/Aincon.png,left,0.1,0,90,7,2000,stimuli\\,,,,,,,,,,,,
,,,,,,,,,,zuxin,1,2024-06-29_10h00.44.555,DCT_v1_online,2021.2.3,Win32,60.31726883,,,0.353,2.897,84,down,1,0.7117,right,1,0.5908,2.147,0,67,67,127,1,128,incongruent,down,down,congruent,Stim/Aincon.png,down,0,-0.1,180,8,1000,incongruent,right,right,congruent,Stim/Aincon.png,right,0.1,0,-90,8,2000,stimuli\\,,,,,,,,,,,,
,,,,,,,,,,zuxin,1,2024-06-29_10h00.44.555,DCT_v1_online,2021.2.3,Win32,60.31726883,,,0.047,3.203,85,down,1,0.5794,right,1,0.3613,2.453,0,68,68,55,1,56,congruent,down,down,congruent,Stim/Acon.png,down,0,-0.1,180,4,1000,congruent,right,right,congruent,Stim/Acon.png,right,0.1,0,-90,4,2000,stimuli\\,,,,,,,,,,,,
,,,,,,,,,,zuxin,1,2024-06-29_10h00.44.555,DCT_v1_online,2021.2.3,Win32,60.31726883,,,0.301,2.949,86,up,1,0.7012,right,1,0.4415,2.199,0,69,69,103,1,104,incongruent,down,up,incongruent,Stim/Aincon.png,up,0,-0.1,0,7,1000,congruent,right,right,congruent,Stim/Acon.png,right,0.1,0,-90,4,2000,stimuli\\,,,,,,,,,,,,
,,,,,,,,,,zuxin,1,2024-06-29_10h00.44.555,DCT_v1_online,2021.2.3,Win32,60.31726883,,,0.016,3.234,87,up,1,0.5766,right,1,0.5083,2.484,0,70,70,39,1,40,congruent,down,up,incongruent,Stim/Acon.png,up,0,-0.1,0,3,1000,congruent,right,right,congruent,Stim/Acon.png,right,0.1,0,-90,4,2000,stimuli\\,,,,,,,,,,,,
,,,,,,,,,,zuxin,1,2024-06-29_10h00.44.555,DCT_v1_online,2021.2.3,Win32,60.31726883,,,0.473,2.777,88,up,1,0.558,left,1,0.6909,2.027,0,71,71,73,1,74,incongruent,up,up,congruent,Stim/Aincon.png,up,0,0.1,0,5,1000,incongruent,left,left,congruent,Stim/Aincon.png,left,-0.1,0,90,5,2000,stimuli\\,,,,,,,,,,,,
,,,,,,,,,,zuxin,1,2024-06-29_10h00.44.555,DCT_v1_online,2021.2.3,Win32,60.31726883,,,0.096,2.254,89,up,1,0.8723,right,1,1.0006,2.404,0,72,72,70,1,71,incongruent,up,up,congruent,Stim/Aincon.png,up,0,0.1,0,5,100,congruent,right,right,congruent,Stim/Acon.png,right,0.1,0,-90,4,2000,stimuli\\,,,,,,,,,,,,
,,,,,,,,,,zuxin,1,2024-06-29_10h00.44.555,DCT_v1_online,2021.2.3,Win32,60.31726883,,,0.488,1.862,90,down,1,0.7307,right,1,0.8127,2.012,0,73,73,18,1,19,congruent,up,down,incongruent,Stim/Acon.png,down,0,0.1,180,2,100,congruent,left,right,incongruent,Stim/Acon.png,right,-0.1,0,-90,2,2000,stimuli\\,,,,,,,,,,,,
,,,,,,,,,,zuxin,1,2024-06-29_10h00.44.555,DCT_v1_online,2021.2.3,Win32,60.31726883,,,0.212,2.138,91,down,1,0.8151,left,1,1.0906,2.288,0,74,74,56,1,57,congruent,down,down,congruent,Stim/Acon.png,down,0,-0.1,180,4,100,incongruent,left,left,congruent,Stim/Aincon.png,left,-0.1,0,90,5,2000,stimuli\\,,,,,,,,,,,,
,,,,,,,,,,zuxin,1,2024-06-29_10h00.44.555,DCT_v1_online,2021.2.3,Win32,60.31726883,,,0.271,2.979,92,down,1,0.537,left,1,0.5234,2.229,0,75,75,21,1,22,congruent,up,down,incongruent,Stim/Acon.png,down,0,0.1,180,2,1000,congruent,right,left,incongruent,Stim/Acon.png,left,0.1,0,90,3,2000,stimuli\\,,,,,,,,,,,,
,,,,,,,,,,zuxin,1,2024-06-29_10h00.44.555,DCT_v1_online,2021.2.3,Win32,60.31726883,,,0.378,1.972,93,up,1,0.9047,left,1,1.0367,2.122,0,76,76,76,1,77,incongruent,up,up,congruent,Stim/Aincon.png,up,0,0.1,0,5,100,incongruent,right,left,incongruent,Stim/Aincon.png,left,0.1,0,90,7,2000,stimuli\\,,,,,,,,,,,,
,,,,,,,,,,zuxin,1,2024-06-29_10h00.44.555,DCT_v1_online,2021.2.3,Win32,60.31726883,,,0.296,2.954,94,down,1,0.84,right,1,0.5562,2.204,0,77,77,83,1,84,incongruent,up,down,incongruent,Stim/Aincon.png,down,0,0.1,180,6,1000,congruent,left,right,incongruent,Stim/Acon.png,right,-0.1,0,-90,2,2000,stimuli\\,,,,,,,,,,,,
,,,,,,,,,,zuxin,1,2024-06-29_10h00.44.555,DCT_v1_online,2021.2.3,Win32,60.31726883,,,0.359,1.991,95,down,1,0.6574,right,1,0.8157,2.141,0,78,78,50,1,51,congruent,down,down,congruent,Stim/Acon.png,down,0,-0.1,180,4,100,congruent,left,right,incongruent,Stim/Acon.png,right,-0.1,0,-90,2,2000,stimuli\\,,,,,,,,,,,,
,,,,,,,,,,zuxin,1,2024-06-29_10h00.44.555,DCT_v1_online,2021.2.3,Win32,60.31726883,,,0.047,2.303,96,down,1,0.7224,left,1,0.8635,2.453,0,79,79,28,1,29,congruent,up,down,incongruent,Stim/Acon.png,down,0,0.1,180,2,100,incongruent,right,left,incongruent,Stim/Aincon.png,left,0.1,0,90,7,2000,stimuli\\,,,,,,,,,,,,
,,,,,,,,,,zuxin,1,2024-06-29_10h00.44.555,DCT_v1_online,2021.2.3,Win32,60.31726883,,,0.211,2.139,97,up,1,0.7011,left,1,0.9608,2.289,0,80,80,44,1,45,congruent,down,up,incongruent,Stim/Acon.png,up,0,-0.1,0,3,100,incongruent,right,left,incongruent,Stim/Aincon.png,left,0.1,0,90,7,2000,stimuli\\,,,,,,,,,,,,
,,,,,,,,,,zuxin,1,2024-06-29_10h00.44.555,DCT_v1_online,2021.2.3,Win32,60.31726883,,,0.223,2.127,98,down,1,0.6921,left,0,0.875,2.277,0,81,81,62,1,63,congruent,down,down,congruent,Stim/Acon.png,down,0,-0.1,180,4,100,incongruent,right,right,congruent,Stim/Aincon.png,right,0.1,0,-90,8,2000,stimuli\\,,,,,,,,,,,,
,,,,,,,,,,zuxin,1,2024-06-29_10h00.44.555,DCT_v1_online,2021.2.3,Win32,60.31726883,,,0.023,3.227,99,down,1,0.6325,left,1,0.5429,2.477,0,82,82,49,1,50,congruent,down,down,congruent,Stim/Acon.png,down,0,-0.1,180,4,1000,congruent,left,left,congruent,Stim/Acon.png,left,-0.1,0,90,1,2000,stimuli\\,,,,,,,,,,,,
,,,,,,,,,,zuxin,1,2024-06-29_10h00.44.555,DCT_v1_online,2021.2.3,Win32,60.31726883,,,0.112,2.238,100,down,1,0.927,left,1,1.0888,2.388,0,83,83,88,1,89,incongruent,up,down,incongruent,Stim/Aincon.png,down,0,0.1,180,6,100,incongruent,left,left,congruent,Stim/Aincon.png,left,-0.1,0,90,5,2000,stimuli\\,,,,,,,,,,,,
,,,,,,,,,,zuxin,1,2024-06-29_10h00.44.555,DCT_v1_online,2021.2.3,Win32,60.31726883,,,0.364,2.886,101,down,1,0.5281,left,1,0.6943,2.136,0,84,84,61,1,62,congruent,down,down,congruent,Stim/Acon.png,down,0,-0.1,180,4,1000,incongruent,right,left,incongruent,Stim/Aincon.png,left,0.1,0,90,7,2000,stimuli\\,,,,,,,,,,,,
,,,,,,,,,,zuxin,1,2024-06-29_10h00.44.555,DCT_v1_online,2021.2.3,Win32,60.31726883,,,0.112,2.238,102,up,1,0.9081,right,1,1.1411,2.388,0,85,85,102,1,103,incongruent,down,up,incongruent,Stim/Aincon.png,up,0,-0.1,0,7,100,congruent,right,right,congruent,Stim/Acon.png,right,0.1,0,-90,4,2000,stimuli\\,,,,,,,,,,,,
,,,,,,,,,,zuxin,1,2024-06-29_10h00.44.555,DCT_v1_online,2021.2.3,Win32,60.31726883,,,0.282,2.068,103,down,1,0.8544,right,1,0.9646,2.218,0,86,86,82,1,83,incongruent,up,down,incongruent,Stim/Aincon.png,down,0,0.1,180,6,100,congruent,left,right,incongruent,Stim/Acon.png,right,-0.1,0,-90,2,2000,stimuli\\,,,,,,,,,,,,
,,,,,,,,,,zuxin,1,2024-06-29_10h00.44.555,DCT_v1_online,2021.2.3,Win32,60.31726883,,,0.286,2.064,104,down,1,0.8529,left,1,1.0024,2.214,0,87,87,120,1,121,incongruent,down,down,congruent,Stim/Aincon.png,down,0,-0.1,180,8,100,incongruent,left,left,congruent,Stim/Aincon.png,left,-0.1,0,90,5,2000,stimuli\\,,,,,,,,,,,,
,,,,,,,,,,zuxin,1,2024-06-29_10h00.44.555,DCT_v1_online,2021.2.3,Win32,60.31726883,,,0.179,2.171,105,down,1,0.6818,left,1,1.0596,2.321,0,88,88,60,1,61,congruent,down,down,congruent,Stim/Acon.png,down,0,-0.1,180,4,100,incongruent,right,left,incongruent,Stim/Aincon.png,left,0.1,0,90,7,2000,stimuli\\,,,,,,,,,,,,
,,,,,,,,,,zuxin,1,2024-06-29_10h00.44.555,DCT_v1_online,2021.2.3,Win32,60.31726883,,,0.329,2.021,106,down,1,0.6855,right,1,0.8003,2.171,0,89,89,122,1,123,incongruent,down,down,congruent,Stim/Aincon.png,down,0,-0.1,180,8,100,incongruent,left,right,incongruent,Stim/Aincon.png,right,-0.1,0,-90,6,2000,stimuli\\,,,,,,,,,,,,
,,,,,,,,,,zuxin,1,2024-06-29_10h00.44.555,DCT_v1_online,2021.2.3,Win32,60.31726883,,,0.037,3.213,107,up,1,0.9324,right,1,0.6927,2.463,0,90,90,79,1,80,incongruent,up,up,congruent,Stim/Aincon.png,up,0,0.1,0,5,1000,incongruent,right,right,congruent,Stim/Aincon.png,right,0.1,0,-90,8,2000,stimuli\\,,,,,,,,,,,,
,,,,,,,,,,zuxin,1,2024-06-29_10h00.44.555,DCT_v1_online,2021.2.3,Win32,60.31726883,,,0.462,2.788,108,down,1,0.7118,right,1,0.4746,2.038,0,91,91,119,1,120,incongruent,down,down,congruent,Stim/Aincon.png,down,0,-0.1,180,8,1000,congruent,right,right,congruent,Stim/Acon.png,right,0.1,0,-90,4,2000,stimuli\\,,,,,,,,,,,,
,,,,,,,,,,zuxin,1,2024-06-29_10h00.44.555,DCT_v1_online,2021.2.3,Win32,60.31726883,,,0.32,2.93,109,up,1,0.5521,left,1,0.6377,2.18,0,92,92,13,1,14,congruent,up,up,congruent,Stim/Acon.png,up,0,0.1,0,1,1000,incongruent,right,left,incongruent,Stim/Aincon.png,left,0.1,0,90,7,2000,stimuli\\,,,,,,,,,,,,
,,,,,,,,,,zuxin,1,2024-06-29_10h00.44.555,DCT_v1_online,2021.2.3,Win32,60.31726883,,,0.491,1.859,110,down,1,0.6684,left,1,0.883,2.009,0,93,93,24,1,25,congruent,up,down,incongruent,Stim/Acon.png,down,0,0.1,180,2,100,incongruent,left,left,congruent,Stim/Aincon.png,left,-0.1,0,90,5,2000,stimuli\\,,,,,,,,,,,,
,,,,,,,,,,zuxin,1,2024-06-29_10h00.44.555,DCT_v1_online,2021.2.3,Win32,60.31726883,,,0.463,2.787,111,up,1,0.7351,right,1,0.536,2.037,0,94,94,71,1,72,incongruent,up,up,congruent,Stim/Aincon.png,up,0,0.1,0,5,1000,congruent,right,right,congruent,Stim/Acon.png,right,0.1,0,-90,4,2000,stimuli\\,,,,,,,,,,,,
,,,,,,,,,,zuxin,1,2024-06-29_10h00.44.555,DCT_v1_online,2021.2.3,Win32,60.31726883,,,0.189,3.061,112,down,1,0.5816,right,1,0.5625,2.311,0,95,95,59,1,60,congruent,down,down,congruent,Stim/Acon.png,down,0,-0.1,180,4,1000,incongruent,left,right,incongruent,Stim/Aincon.png,right,-0.1,0,-90,6,2000,stimuli\\,,,,,,,,,,,,
,,,,,,,,,,zuxin,1,2024-06-29_10h00.44.555,DCT_v1_online,2021.2.3,Win32,60.31726883,,,0.152,3.098,113,up,1,0.7516,left,1,0.4529,2.348,0,96,96,33,1,34,congruent,down,up,incongruent,Stim/Acon.png,up,0,-0.1,0,3,1000,congruent,left,left,congruent,Stim/Acon.png,left,-0.1,0,90,1,2000,stimuli\\,,,,,,,,,,,,
,,,,,,,,,,zuxin,1,2024-06-29_10h00.44.555,DCT_v1_online,2021.2.3,Win32,60.31726883,,,0.368,1.982,114,up,1,0.5763,right,1,0.8989,2.132,0,97,97,46,1,47,congruent,down,up,incongruent,Stim/Acon.png,up,0,-0.1,0,3,100,incongruent,right,right,congruent,Stim/Aincon.png,right,0.1,0,-90,8,2000,stimuli\\,,,,,,,,,,,,
,,,,,,,,,,zuxin,1,2024-06-29_10h00.44.555,DCT_v1_online,2021.2.3,Win32,60.31726883,,,0.201,2.149,115,up,1,0.8158,left,1,0.9352,2.299,0,98,98,64,1,65,incongruent,up,up,congruent,Stim/Aincon.png,up,0,0.1,0,5,100,congruent,left,left,congruent,Stim/Acon.png,left,-0.1,0,90,1,2000,stimuli\\,,,,,,,,,,,,
,,,,,,,,,,zuxin,1,2024-06-29_10h00.44.555,DCT_v1_online,2021.2.3,Win32,60.31726883,,,0.28,2.07,116,up,1,0.905,right,1,1.0495,2.22,0,99,99,98,1,99,incongruent,down,up,incongruent,Stim/Aincon.png,up,0,-0.1,0,7,100,congruent,left,right,incongruent,Stim/Acon.png,right,-0.1,0,-90,2,2000,stimuli\\,,,,,,,,,,,,
,,,,,,,,,,zuxin,1,2024-06-29_10h00.44.555,DCT_v1_online,2021.2.3,Win32,60.31726883,,,0.02,2.33,117,up,1,0.6683,right,1,1.0028,2.48,0,100,100,42,1,43,congruent,down,up,incongruent,Stim/Acon.png,up,0,-0.1,0,3,100,incongruent,left,right,incongruent,Stim/Aincon.png,right,-0.1,0,-90,6,2000,stimuli\\,,,,,,,,,,,,
,,,,,,,,,,zuxin,1,2024-06-29_10h00.44.555,DCT_v1_online,2021.2.3,Win32,60.31726883,,,0.453,2.797,118,down,1,0.6956,left,1,0.5008,2.047,0,101,101,89,1,90,incongruent,up,down,incongruent,Stim/Aincon.png,down,0,0.1,180,6,1000,incongruent,left,left,congruent,Stim/Aincon.png,left,-0.1,0,90,5,2000,stimuli\\,,,,,,,,,,,,
,,,,,,,,,,zuxin,1,2024-06-29_10h00.44.555,DCT_v1_online,2021.2.3,Win32,60.31726883,,,0.087,3.163,119,up,1,0.5671,left,1,0.522,2.413,0,102,102,9,1,10,congruent,up,up,congruent,Stim/Acon.png,up,0,0.1,0,1,1000,incongruent,left,left,congruent,Stim/Aincon.png,left,-0.1,0,90,5,2000,stimuli\\,,,,,,,,,,,,
,,,,,,,,,,zuxin,1,2024-06-29_10h00.44.555,DCT_v1_online,2021.2.3,Win32,60.31726883,,,0.151,3.099,120,down,1,0.569,right,1,0.5877,2.349,0,103,103,87,1,88,incongruent,up,down,incongruent,Stim/Aincon.png,down,0,0.1,180,6,1000,congruent,right,right,congruent,Stim/Acon.png,right,0.1,0,-90,4,2000,stimuli\\,,,,,,,,,,,,
,,,,,,,,,,zuxin,1,2024-06-29_10h00.44.555,DCT_v1_online,2021.2.3,Win32,60.31726883,,,0.121,3.129,121,up,1,0.5429,left,0,0.4157,2.379,0,104,104,11,1,12,congruent,up,up,congruent,Stim/Acon.png,up,0,0.1,0,1,1000,incongruent,left,right,incongruent,Stim/Aincon.png,right,-0.1,0,-90,6,2000,stimuli\\,,,,,,,,,,,,
,,,,,,,,,,zuxin,1,2024-06-29_10h00.44.555,DCT_v1_online,2021.2.3,Win32,60.31726883,,,0.405,2.845,122,up,1,0.4821,left,1,0.4749,2.095,0,105,105,1,1,2,congruent,up,up,congruent,Stim/Acon.png,up,0,0.1,0,1,1000,congruent,left,left,congruent,Stim/Acon.png,left,-0.1,0,90,1,2000,stimuli\\,,,,,,,,,,,,
,,,,,,,,,,zuxin,1,2024-06-29_10h00.44.555,DCT_v1_online,2021.2.3,Win32,60.31726883,,,0.486,1.864,123,down,1,0.8532,left,1,0.9965,2.014,0,106,106,84,1,85,incongruent,up,down,incongruent,Stim/Aincon.png,down,0,0.1,180,6,100,congruent,right,left,incongruent,Stim/Acon.png,left,0.1,0,90,3,2000,stimuli\\,,,,,,,,,,,,
,,,,,,,,,,zuxin,1,2024-06-29_10h00.44.555,DCT_v1_online,2021.2.3,Win32,60.31726883,,,0.04,2.31,124,down,1,0.8765,right,1,1.0914,2.46,0,107,107,94,1,95,incongruent,up,down,incongruent,Stim/Aincon.png,down,0,0.1,180,6,100,incongruent,right,right,congruent,Stim/Aincon.png,right,0.1,0,-90,8,2000,stimuli\\,,,,,,,,,,,,
,,,,,,,,,,zuxin,1,2024-06-29_10h00.44.555,DCT_v1_online,2021.2.3,Win32,60.31726883,,,0.279,2.971,125,up,1,0.5754,right,1,0.7002,2.221,0,108,108,15,1,16,congruent,up,up,congruent,Stim/Acon.png,up,0,0.1,0,1,1000,incongruent,right,right,congruent,Stim/Aincon.png,right,0.1,0,-90,8,2000,stimuli\\,,,,,,,,,,,,
,,,,,,,,,,zuxin,1,2024-06-29_10h00.44.555,DCT_v1_online,2021.2.3,Win32,60.31726883,,,0.015,3.235,126,up,1,0.8287,left,1,0.5538,2.485,0,109,109,101,1,102,incongruent,down,up,incongruent,Stim/Aincon.png,up,0,-0.1,0,7,1000,congruent,right,left,incongruent,Stim/Acon.png,left,0.1,0,90,3,2000,stimuli\\,,,,,,,,,,,,
,,,,,,,,,,zuxin,1,2024-06-29_10h00.44.555,DCT_v1_online,2021.2.3,Win32,60.31726883,,,0.24,2.11,127,up,1,0.9612,right,1,1.0412,2.26,0,110,110,38,1,39,congruent,down,up,incongruent,Stim/Acon.png,up,0,-0.1,0,3,100,congruent,right,right,congruent,Stim/Acon.png,right,0.1,0,-90,4,2000,stimuli\\,,,,,,,,,,,,
,,,,,,,,,,zuxin,1,2024-06-29_10h00.44.555,DCT_v1_online,2021.2.3,Win32,60.31726883,,,0.064,2.286,128,up,1,0.9933,left,1,1.4408,2.436,0,111,111,108,1,109,incongruent,down,up,incongruent,Stim/Aincon.png,up,0,-0.1,0,7,100,incongruent,right,left,incongruent,Stim/Aincon.png,left,0.1,0,90,7,2000,stimuli\\,,,,,,,,,,,,
,,,,,,,,,,zuxin,1,2024-06-29_10h00.44.555,DCT_v1_online,2021.2.3,Win32,60.31726883,,,0.298,2.952,129,up,1,0.737,right,0,0.5468,2.202,0,112,112,45,1,46,congruent,down,up,incongruent,Stim/Acon.png,up,0,-0.1,0,3,1000,incongruent,right,left,incongruent,Stim/Aincon.png,left,0.1,0,90,7,2000,stimuli\\,,,,,,,,,,,,
,,,,,,,,,,zuxin,1,2024-06-29_10h00.44.555,DCT_v1_online,2021.2.3,Win32,60.31726883,,,0.08,3.17,130,up,1,0.7289,right,1,0.7192,2.42,0,113,113,107,1,108,incongruent,down,up,incongruent,Stim/Aincon.png,up,0,-0.1,0,7,1000,incongruent,left,right,incongruent,Stim/Aincon.png,right,-0.1,0,-90,6,2000,stimuli\\,,,,,,,,,,,,
,,,,,,,,,,zuxin,1,2024-06-29_10h00.44.555,DCT_v1_online,2021.2.3,Win32,60.31726883,,,0.168,2.182,131,up,1,1.1177,left,1,1.2314,2.332,0,114,114,8,1,9,congruent,up,up,congruent,Stim/Acon.png,up,0,0.1,0,1,100,incongruent,left,left,congruent,Stim/Aincon.png,left,-0.1,0,90,5,2000,stimuli\\,,,,,,,,,,,,
,,,,,,,,,,zuxin,1,2024-06-29_10h00.44.555,DCT_v1_online,2021.2.3,Win32,60.31726883,,,0.361,2.889,132,down,1,0.8736,left,1,0.5183,2.139,0,115,115,113,1,114,incongruent,down,down,congruent,Stim/Aincon.png,down,0,-0.1,180,8,1000,congruent,left,left,congruent,Stim/Acon.png,left,-0.1,0,90,1,2000,stimuli\\,,,,,,,,,,,,
,,,,,,,,,,zuxin,1,2024-06-29_10h00.44.555,DCT_v1_online,2021.2.3,Win32,60.31726883,,,0.136,2.214,133,down,1,0.8543,right,1,0.9526,2.364,0,116,116,22,1,23,congruent,up,down,incongruent,Stim/Acon.png,down,0,0.1,180,2,100,congruent,right,right,congruent,Stim/Acon.png,right,0.1,0,-90,4,2000,stimuli\\,,,,,,,,,,,,
,,,,,,,,,,zuxin,1,2024-06-29_10h00.44.555,DCT_v1_online,2021.2.3,Win32,60.31726883,,,0.156,3.094,134,up,1,0.7114,right,1,0.5816,2.344,0,117,117,99,1,100,incongruent,down,up,incongruent,Stim/Aincon.png,up,0,-0.1,0,7,1000,congruent,left,right,incongruent,Stim/Acon.png,right,-0.1,0,-90,2,2000,stimuli\\,,,,,,,,,,,,
,,,,,,,,,,zuxin,1,2024-06-29_10h00.44.555,DCT_v1_online,2021.2.3,Win32,60.31726883,,,0.017,3.233,135,down,1,0.684,right,1,0.6291,2.483,0,118,118,91,1,92,incongruent,up,down,incongruent,Stim/Aincon.png,down,0,0.1,180,6,1000,incongruent,left,right,incongruent,Stim/Aincon.png,right,-0.1,0,-90,6,2000,stimuli\\,,,,,,,,,,,,
,,,,,,,,,,zuxin,1,2024-06-29_10h00.44.555,DCT_v1_online,2021.2.3,Win32,60.31726883,,,0.47,2.78,136,up,1,0.6443,right,1,0.4674,2.03,0,119,119,67,1,68,incongruent,up,up,congruent,Stim/Aincon.png,up,0,0.1,0,5,1000,congruent,left,right,incongruent,Stim/Acon.png,right,-0.1,0,-90,2,2000,stimuli\\,,,,,,,,,,,,
,,,,,,,,,,zuxin,1,2024-06-29_10h00.44.555,DCT_v1_online,2021.2.3,Win32,60.31726883,,,0.008,2.342,137,down,1,0.7737,right,1,0.918,2.492,0,120,120,90,1,91,incongruent,up,down,incongruent,Stim/Aincon.png,down,0,0.1,180,6,100,incongruent,left,right,incongruent,Stim/Aincon.png,right,-0.1,0,-90,6,2000,stimuli\\,,,,,,,,,,,,
,,,,,,,,,,zuxin,1,2024-06-29_10h00.44.555,DCT_v1_online,2021.2.3,Win32,60.31726883,,,0.044,2.306,138,down,1,1.2041,left,1,0.9159,2.456,0,121,121,48,1,49,congruent,down,down,congruent,Stim/Acon.png,down,0,-0.1,180,4,100,congruent,left,left,congruent,Stim/Acon.png,left,-0.1,0,90,1,2000,stimuli\\,,,,,,,,,,,,
,,,,,,,,,,zuxin,1,2024-06-29_10h00.44.555,DCT_v1_online,2021.2.3,Win32,60.31726883,,,0.469,1.881,139,down,1,0.8823,right,1,1.0336,2.031,0,122,122,54,1,55,congruent,down,down,congruent,Stim/Acon.png,down,0,-0.1,180,4,100,congruent,right,right,congruent,Stim/Acon.png,right,0.1,0,-90,4,2000,stimuli\\,,,,,,,,,,,,
,,,,,,,,,,zuxin,1,2024-06-29_10h00.44.555,DCT_v1_online,2021.2.3,Win32,60.31726883,,,0.364,2.886,140,down,1,0.6195,right,1,0.7347,2.136,0,123,123,63,1,64,congruent,down,down,congruent,Stim/Acon.png,down,0,-0.1,180,4,1000,incongruent,right,right,congruent,Stim/Aincon.png,right,0.1,0,-90,8,2000,stimuli\\,,,,,,,,,,,,
,,,,,,,,,,zuxin,1,2024-06-29_10h00.44.555,DCT_v1_online,2021.2.3,Win32,60.31726883,,,0.467,1.883,141,up,1,0.8143,left,1,0.9355,2.033,0,124,124,32,1,33,congruent,down,up,incongruent,Stim/Acon.png,up,0,-0.1,0,3,100,congruent,left,left,congruent,Stim/Acon.png,left,-0.1,0,90,1,2000,stimuli\\,,,,,,,,,,,,
,,,,,,,,,,zuxin,1,2024-06-29_10h00.44.555,DCT_v1_online,2021.2.3,Win32,60.31726883,,,0.326,2.924,142,down,1,0.6639,left,1,0.6905,2.174,0,125,125,125,1,126,incongruent,down,down,congruent,Stim/Aincon.png,down,0,-0.1,180,8,1000,incongruent,right,left,incongruent,Stim/Aincon.png,left,0.1,0,90,7,2000,stimuli\\,,,,,,,,,,,,
,,,,,,,,,,zuxin,1,2024-06-29_10h00.44.555,DCT_v1_online,2021.2.3,Win32,60.31726883,,,0.107,2.243,143,up,1,0.8677,left,1,0.9919,2.393,0,126,126,0,1,1,congruent,up,up,congruent,Stim/Acon.png,up,0,0.1,0,1,100,congruent,left,left,congruent,Stim/Acon.png,left,-0.1,0,90,1,2000,stimuli\\,,,,,,,,,,,,
,,,,,,,,,,zuxin,1,2024-06-29_10h00.44.555,DCT_v1_online,2021.2.3,Win32,60.31726883,,,0.109,3.141,144,up,1,0.5505,right,1,0.4797,2.391,0,127,127,3,1,4,congruent,up,up,congruent,Stim/Acon.png,up,0,0.1,0,1,1000,congruent,left,right,incongruent,Stim/Acon.png,right,-0.1,0,-90,2,2000,stimuli\\,,,,,,,,,,,,
,,,,,,,,,,zuxin,1,2024-06-29_10h00.44.555,DCT_v1_online,2021.2.3,Win32,60.31726883,,,,,,,,,,,,,,,,,,,,,,,,,,,,,,,,,,,,,,,,,,space,41.6755,0,1,1,1,1,Instructions/i5.png,test,conditions/block1.xlsx,1.2,0.8
,,,,,,,,,,zuxin,1,2024-06-29_10h00.44.555,DCT_v1_online,2021.2.3,Win32,60.31726883,space,3.5553,0.364,1.986,145,down,1,0.8863,right,1,0.9821,2.136,0,0,0,94,1,95,incongruent,up,down,incongruent,Stim/Aincon.png,down,0,0.1,180,6,100,incongruent,right,right,congruent,Stim/Aincon.png,right,0.1,0,-90,8,2000,stimuli\\,,,,,,,,,,,,
,,,,,,,,,,zuxin,1,2024-06-29_10h00.44.555,DCT_v1_online,2021.2.3,Win32,60.31726883,,,0.161,3.089,146,up,1,0.6621,left,1,0.4546,2.339,0,1,1,1,1,2,congruent,up,up,congruent,Stim/Acon.png,up,0,0.1,0,1,1000,congruent,left,left,congruent,Stim/Acon.png,left,-0.1,0,90,1,2000,stimuli\\,,,,,,,,,,,,
,,,,,,,,,,zuxin,1,2024-06-29_10h00.44.555,DCT_v1_online,2021.2.3,Win32,60.31726883,,,0.193,3.057,147,down,1,0.719,right,1,0.5616,2.307,0,2,2,123,1,124,incongruent,down,down,congruent,Stim/Aincon.png,down,0,-0.1,180,8,1000,incongruent,left,right,incongruent,Stim/Aincon.png,right,-0.1,0,-90,6,2000,stimuli\\,,,,,,,,,,,,
,,,,,,,,,,zuxin,1,2024-06-29_10h00.44.555,DCT_v1_online,2021.2.3,Win32,60.31726883,,,0.377,1.973,148,down,1,0.732,right,1,0.8892,2.123,0,3,3,18,1,19,congruent,up,down,incongruent,Stim/Acon.png,down,0,0.1,180,2,100,congruent,left,right,incongruent,Stim/Acon.png,right,-0.1,0,-90,2,2000,stimuli\\,,,,,,,,,,,,
,,,,,,,,,,zuxin,1,2024-06-29_10h00.44.555,DCT_v1_online,2021.2.3,Win32,60.31726883,,,0.389,1.961,149,up,1,0.7785,right,1,0.857,2.111,0,4,4,38,1,39,congruent,down,up,incongruent,Stim/Acon.png,up,0,-0.1,0,3,100,congruent,right,right,congruent,Stim/Acon.png,right,0.1,0,-90,4,2000,stimuli\\,,,,,,,,,,,,
,,,,,,,,,,zuxin,1,2024-06-29_10h00.44.555,DCT_v1_online,2021.2.3,Win32,60.31726883,,,0.06,2.29,150,up,1,1.2742,right,0,1.3439,2.44,0,5,5,76,1,77,incongruent,up,up,congruent,Stim/Aincon.png,up,0,0.1,0,5,100,incongruent,right,left,incongruent,Stim/Aincon.png,left,0.1,0,90,7,2000,stimuli\\,,,,,,,,,,,,
,,,,,,,,,,zuxin,1,2024-06-29_10h00.44.555,DCT_v1_online,2021.2.3,Win32,60.31726883,,,0.232,3.018,151,up,1,0.7632,right,1,0.614,2.268,0,6,6,107,1,108,incongruent,down,up,incongruent,Stim/Aincon.png,up,0,-0.1,0,7,1000,incongruent,left,right,incongruent,Stim/Aincon.png,right,-0.1,0,-90,6,2000,stimuli\\,,,,,,,,,,,,
,,,,,,,,,,zuxin,1,2024-06-29_10h00.44.555,DCT_v1_online,2021.2.3,Win32,60.31726883,,,0.319,2.931,152,down,1,0.5579,right,1,0.4406,2.181,0,7,7,51,1,52,congruent,down,down,congruent,Stim/Acon.png,down,0,-0.1,180,4,1000,congruent,left,right,incongruent,Stim/Acon.png,right,-0.1,0,-90,2,2000,stimuli\\,,,,,,,,,,,,
,,,,,,,,,,zuxin,1,2024-06-29_10h00.44.555,DCT_v1_online,2021.2.3,Win32,60.31726883,,,0.257,2.093,153,down,1,0.8299,right,1,0.9941,2.243,0,8,8,90,1,91,incongruent,up,down,incongruent,Stim/Aincon.png,down,0,0.1,180,6,100,incongruent,left,right,incongruent,Stim/Aincon.png,right,-0.1,0,-90,6,2000,stimuli\\,,,,,,,,,,,,
,,,,,,,,,,zuxin,1,2024-06-29_10h00.44.555,DCT_v1_online,2021.2.3,Win32,60.31726883,,,0.097,2.253,154,up,1,0.8809,right,1,0.9574,2.403,0,9,9,78,1,79,incongruent,up,up,congruent,Stim/Aincon.png,up,0,0.1,0,5,100,incongruent,right,right,congruent,Stim/Aincon.png,right,0.1,0,-90,8,2000,stimuli\\,,,,,,,,,,,,
,,,,,,,,,,zuxin,1,2024-06-29_10h00.44.555,DCT_v1_online,2021.2.3,Win32,60.31726883,,,0.154,2.196,155,up,1,0.7592,right,1,0.8218,2.346,0,10,10,2,1,3,congruent,up,up,congruent,Stim/Acon.png,up,0,0.1,0,1,100,congruent,left,right,incongruent,Stim/Acon.png,right,-0.1,0,-90,2,2000,stimuli\\,,,,,,,,,,,,
,,,,,,,,,,zuxin,1,2024-06-29_10h00.44.555,DCT_v1_online,2021.2.3,Win32,60.31726883,,,0.121,3.129,156,up,1,0.6669,left,1,0.6457,2.379,0,11,11,37,1,38,congruent,down,up,incongruent,Stim/Acon.png,up,0,-0.1,0,3,1000,congruent,right,left,incongruent,Stim/Acon.png,left,0.1,0,90,3,2000,stimuli\\,,,,,,,,,,,,
,,,,,,,,,,zuxin,1,2024-06-29_10h00.44.555,DCT_v1_online,2021.2.3,Win32,60.31726883,,,0.316,2.034,157,up,1,1.0958,right,1,1.1856,2.184,0,12,12,106,1,107,incongruent,down,up,incongruent,Stim/Aincon.png,up,0,-0.1,0,7,100,incongruent,left,right,incongruent,Stim/Aincon.png,right,-0.1,0,-90,6,2000,stimuli\\,,,,,,,,,,,,
,,,,,,,,,,zuxin,1,2024-06-29_10h00.44.555,DCT_v1_online,2021.2.3,Win32,60.31726883,,,0.327,2.023,158,up,1,0.83,right,1,0.9097,2.173,0,13,13,74,1,75,incongruent,up,up,congruent,Stim/Aincon.png,up,0,0.1,0,5,100,incongruent,left,right,incongruent,Stim/Aincon.png,right,-0.1,0,-90,6,2000,stimuli\\,,,,,,,,,,,,
,,,,,,,,,,zuxin,1,2024-06-29_10h00.44.555,DCT_v1_online,2021.2.3,Win32,60.31726883,,,0.333,2.017,159,up,1,0.8349,left,1,1.0733,2.167,0,14,14,8,1,9,congruent,up,up,congruent,Stim/Acon.png,up,0,0.1,0,1,100,incongruent,left,left,congruent,Stim/Aincon.png,left,-0.1,0,90,5,2000,stimuli\\,,,,,,,,,,,,
,,,,,,,,,,zuxin,1,2024-06-29_10h00.44.555,DCT_v1_online,2021.2.3,Win32,60.31726883,,,0.072,2.278,160,up,1,1.4316,right,1,1.4927,2.428,0,15,15,102,1,103,incongruent,down,up,incongruent,Stim/Aincon.png,up,0,-0.1,0,7,100,congruent,right,right,congruent,Stim/Acon.png,right,0.1,0,-90,4,2000,stimuli\\,,,,,,,,,,,,
,,,,,,,,,,zuxin,1,2024-06-29_10h00.44.555,DCT_v1_online,2021.2.3,Win32,60.31726883,,,0.121,2.229,161,down,1,0.8364,right,0,0.9526,2.379,0,16,16,60,1,61,congruent,down,down,congruent,Stim/Acon.png,down,0,-0.1,180,4,100,incongruent,right,left,incongruent,Stim/Aincon.png,left,0.1,0,90,7,2000,stimuli\\,,,,,,,,,,,,
,,,,,,,,,,zuxin,1,2024-06-29_10h00.44.555,DCT_v1_online,2021.2.3,Win32,60.31726883,,,0.059,3.191,162,up,1,0.6291,left,1,0.5133,2.441,0,17,17,5,1,6,congruent,up,up,congruent,Stim/Acon.png,up,0,0.1,0,1,1000,congruent,right,left,incongruent,Stim/Acon.png,left,0.1,0,90,3,2000,stimuli\\,,,,,,,,,,,,
,,,,,,,,,,zuxin,1,2024-06-29_10h00.44.555,DCT_v1_online,2021.2.3,Win32,60.31726883,,,0.432,2.818,163,up,1,0.8724,left,1,0.5437,2.068,0,18,18,101,1,102,incongruent,down,up,incongruent,Stim/Aincon.png,up,0,-0.1,0,7,1000,congruent,right,left,incongruent,Stim/Acon.png,left,0.1,0,90,3,2000,stimuli\\,,,,,,,,,,,,
,,,,,,,,,,zuxin,1,2024-06-29_10h00.44.555,DCT_v1_online,2021.2.3,Win32,60.31726883,,,0.327,2.023,164,up,1,0.6547,right,1,0.9705,2.173,0,19,19,46,1,47,congruent,down,up,incongruent,Stim/Acon.png,up,0,-0.1,0,3,100,incongruent,right,right,congruent,Stim/Aincon.png,right,0.1,0,-90,8,2000,stimuli\\,,,,,,,,,,,,
,,,,,,,,,,zuxin,1,2024-06-29_10h00.44.555,DCT_v1_online,2021.2.3,Win32,60.31726883,,,0.434,1.916,165,down,1,1.1822,left,1,1.3044,2.066,0,20,20,124,1,125,incongruent,down,down,congruent,Stim/Aincon.png,down,0,-0.1,180,8,100,incongruent,right,left,incongruent,Stim/Aincon.png,left,0.1,0,90,7,2000,stimuli\\,,,,,,,,,,,,
,,,,,,,,,,zuxin,1,2024-06-29_10h00.44.555,DCT_v1_online,2021.2.3,Win32,60.31726883,,,0.386,1.964,166,down,1,0.8878,left,1,1.0322,2.114,0,21,21,80,1,81,incongruent,up,down,incongruent,Stim/Aincon.png,down,0,0.1,180,6,100,congruent,left,left,congruent,Stim/Acon.png,left,-0.1,0,90,1,2000,stimuli\\,,,,,,,,,,,,
,,,,,,,,,,zuxin,1,2024-06-29_10h00.44.555,DCT_v1_online,2021.2.3,Win32,60.31726883,,,0.094,3.156,167,down,1,0.7589,left,1,0.5017,2.406,0,22,22,89,1,90,incongruent,up,down,incongruent,Stim/Aincon.png,down,0,0.1,180,6,1000,incongruent,left,left,congruent,Stim/Aincon.png,left,-0.1,0,90,5,2000,stimuli\\,,,,,,,,,,,,
,,,,,,,,,,zuxin,1,2024-06-29_10h00.44.555,DCT_v1_online,2021.2.3,Win32,60.31726883,,,0.187,3.063,168,down,1,0.5746,left,1,0.6295,2.313,0,23,23,21,1,22,congruent,up,down,incongruent,Stim/Acon.png,down,0,0.1,180,2,1000,congruent,right,left,incongruent,Stim/Acon.png,left,0.1,0,90,3,2000,stimuli\\,,,,,,,,,,,,
,,,,,,,,,,zuxin,1,2024-06-29_10h00.44.555,DCT_v1_online,2021.2.3,Win32,60.31726883,,,0.433,1.917,169,down,1,0.9361,right,1,1.1396,2.067,0,24,24,58,1,59,congruent,down,down,congruent,Stim/Acon.png,down,0,-0.1,180,4,100,incongruent,left,right,incongruent,Stim/Aincon.png,right,-0.1,0,-90,6,2000,stimuli\\,,,,,,,,,,,,
,,,,,,,,,,zuxin,1,2024-06-29_10h00.44.555,DCT_v1_online,2021.2.3,Win32,60.31726883,,,0.129,3.121,170,up,1,0.6456,right,1,0.6701,2.371,0,25,25,15,1,16,congruent,up,up,congruent,Stim/Acon.png,up,0,0.1,0,1,1000,incongruent,right,right,congruent,Stim/Aincon.png,right,0.1,0,-90,8,2000,stimuli\\,,,,,,,,,,,,
,,,,,,,,,,zuxin,1,2024-06-29_10h00.44.555,DCT_v1_online,2021.2.3,Win32,60.31726883,,,0.168,3.082,171,up,1,0.6994,left,1,0.6995,2.332,0,26,26,77,1,78,incongruent,up,up,congruent,Stim/Aincon.png,up,0,0.1,0,5,1000,incongruent,right,left,incongruent,Stim/Aincon.png,left,0.1,0,90,7,2000,stimuli\\,,,,,,,,,,,,
,,,,,,,,,,zuxin,1,2024-06-29_10h00.44.555,DCT_v1_online,2021.2.3,Win32,60.31726883,,,0.444,1.906,172,down,1,0.794,right,1,0.9946,2.056,0,27,27,122,1,123,incongruent,down,down,congruent,Stim/Aincon.png,down,0,-0.1,180,8,100,incongruent,left,right,incongruent,Stim/Aincon.png,right,-0.1,0,-90,6,2000,stimuli\\,,,,,,,,,,,,
,,,,,,,,,,zuxin,1,2024-06-29_10h00.44.555,DCT_v1_online,2021.2.3,Win32,60.31726883,,,0.062,3.188,173,up,1,0.8869,left,1,0.5792,2.438,0,28,28,105,1,106,incongruent,down,up,incongruent,Stim/Aincon.png,up,0,-0.1,0,7,1000,incongruent,left,left,congruent,Stim/Aincon.png,left,-0.1,0,90,5,2000,stimuli\\,,,,,,,,,,,,
,,,,,,,,,,zuxin,1,2024-06-29_10h00.44.555,DCT_v1_online,2021.2.3,Win32,60.31726883,,,0.15,2.2,174,up,1,0.8629,left,1,0.9996,2.35,0,29,29,44,1,45,congruent,down,up,incongruent,Stim/Acon.png,up,0,-0.1,0,3,100,incongruent,right,left,incongruent,Stim/Aincon.png,left,0.1,0,90,7,2000,stimuli\\,,,,,,,,,,,,
,,,,,,,,,,zuxin,1,2024-06-29_10h00.44.555,DCT_v1_online,2021.2.3,Win32,60.31726883,,,0.423,1.927,175,down,1,0.6995,left,1,0.9695,2.077,0,30,30,120,1,121,incongruent,down,down,congruent,Stim/Aincon.png,down,0,-0.1,180,8,100,incongruent,left,left,congruent,Stim/Aincon.png,left,-0.1,0,90,5,2000,stimuli\\,,,,,,,,,,,,
,,,,,,,,,,zuxin,1,2024-06-29_10h00.44.555,DCT_v1_online,2021.2.3,Win32,60.31726883,,,0.47,2.78,176,down,1,0.7567,left,1,0.6649,2.03,0,31,31,93,1,94,incongruent,up,down,incongruent,Stim/Aincon.png,down,0,0.1,180,6,1000,incongruent,right,left,incongruent,Stim/Aincon.png,left,0.1,0,90,7,2000,stimuli\\,,,,,,,,,,,,
,,,,,,,,,,zuxin,1,2024-06-29_10h00.44.555,DCT_v1_online,2021.2.3,Win32,60.31726883,,,0.367,2.883,177,up,1,0.7198,left,1,0.4865,2.133,0,32,32,41,1,42,congruent,down,up,incongruent,Stim/Acon.png,up,0,-0.1,0,3,1000,incongruent,left,left,congruent,Stim/Aincon.png,left,-0.1,0,90,5,2000,stimuli\\,,,,,,,,,,,,
,,,,,,,,,,zuxin,1,2024-06-29_10h00.44.555,DCT_v1_online,2021.2.3,Win32,60.31726883,,,0.178,2.172,178,up,1,0.9701,left,1,1.0826,2.322,0,33,33,100,1,101,incongruent,down,up,incongruent,Stim/Aincon.png,up,0,-0.1,0,7,100,congruent,right,left,incongruent,Stim/Acon.png,left,0.1,0,90,3,2000,stimuli\\,,,,,,,,,,,,
,,,,,,,,,,zuxin,1,2024-06-29_10h00.44.555,DCT_v1_online,2021.2.3,Win32,60.31726883,,,0.071,2.279,179,up,1,0.838,left,1,0.9091,2.429,0,34,34,36,1,37,congruent,down,up,incongruent,Stim/Acon.png,up,0,-0.1,0,3,100,congruent,right,left,incongruent,Stim/Acon.png,left,0.1,0,90,3,2000,stimuli\\,,,,,,,,,,,,
,,,,,,,,,,zuxin,1,2024-06-29_10h00.44.555,DCT_v1_online,2021.2.3,Win32,60.31726883,,,0.245,3.005,180,down,1,0.5929,right,1,0.4337,2.255,0,35,35,55,1,56,congruent,down,down,congruent,Stim/Acon.png,down,0,-0.1,180,4,1000,congruent,right,right,congruent,Stim/Acon.png,right,0.1,0,-90,4,2000,stimuli\\,,,,,,,,,,,,
,,,,,,,,,,zuxin,1,2024-06-29_10h00.44.555,DCT_v1_online,2021.2.3,Win32,60.31726883,,,0.212,2.138,181,down,1,0.8543,left,1,1.0498,2.288,0,36,36,28,1,29,congruent,up,down,incongruent,Stim/Acon.png,down,0,0.1,180,2,100,incongruent,right,left,incongruent,Stim/Aincon.png,left,0.1,0,90,7,2000,stimuli\\,,,,,,,,,,,,
,,,,,,,,,,zuxin,1,2024-06-29_10h00.44.555,DCT_v1_online,2021.2.3,Win32,60.31726883,,,0.471,2.779,182,up,1,0.6446,right,1,0.6855,2.029,0,37,37,47,1,48,congruent,down,up,incongruent,Stim/Acon.png,up,0,-0.1,0,3,1000,incongruent,right,right,congruent,Stim/Aincon.png,right,0.1,0,-90,8,2000,stimuli\\,,,,,,,,,,,,
,,,,,,,,,,zuxin,1,2024-06-29_10h00.44.555,DCT_v1_online,2021.2.3,Win32,60.31726883,,,0.236,3.014,183,up,1,0.7324,left,1,0.4803,2.264,0,38,38,65,1,66,incongruent,up,up,congruent,Stim/Aincon.png,up,0,0.1,0,5,1000,congruent,left,left,congruent,Stim/Acon.png,left,-0.1,0,90,1,2000,stimuli\\,,,,,,,,,,,,
,,,,,,,,,,zuxin,1,2024-06-29_10h00.44.555,DCT_v1_online,2021.2.3,Win32,60.31726883,,,0.137,2.213,184,up,1,0.7926,left,1,0.8873,2.363,0,39,39,64,1,65,incongruent,up,up,congruent,Stim/Aincon.png,up,0,0.1,0,5,100,congruent,left,left,congruent,Stim/Acon.png,left,-0.1,0,90,1,2000,stimuli\\,,,,,,,,,,,,
,,,,,,,,,,zuxin,1,2024-06-29_10h00.44.555,DCT_v1_online,2021.2.3,Win32,60.31726883,,,0.02,2.33,185,down,1,0.8595,right,1,1.0798,2.48,0,40,40,62,1,63,congruent,down,down,congruent,Stim/Acon.png,down,0,-0.1,180,4,100,incongruent,right,right,congruent,Stim/Aincon.png,right,0.1,0,-90,8,2000,stimuli\\,,,,,,,,,,,,
,,,,,,,,,,zuxin,1,2024-06-29_10h00.44.555,DCT_v1_online,2021.2.3,Win32,60.31726883,,,0.138,2.212,186,down,1,0.9215,right,1,0.9932,2.362,0,41,41,50,1,51,congruent,down,down,congruent,Stim/Acon.png,down,0,-0.1,180,4,100,congruent,left,right,incongruent,Stim/Acon.png,right,-0.1,0,-90,2,2000,stimuli\\,,,,,,,,,,,,
,,,,,,,,,,zuxin,1,2024-06-29_10h00.44.555,DCT_v1_online,2021.2.3,Win32,60.31726883,,,0.141,2.209,187,up,1,0.9838,right,1,1.0513,2.359,0,42,42,70,1,71,incongruent,up,up,congruent,Stim/Aincon.png,up,0,0.1,0,5,100,congruent,right,right,congruent,Stim/Acon.png,right,0.1,0,-90,4,2000,stimuli\\,,,,,,,,,,,,
,,,,,,,,,,zuxin,1,2024-06-29_10h00.44.555,DCT_v1_online,2021.2.3,Win32,60.31726883,,,0.036,3.214,188,down,1,0.5584,left,1,0.6634,2.464,0,43,43,25,1,26,congruent,up,down,incongruent,Stim/Acon.png,down,0,0.1,180,2,1000,incongruent,left,left,congruent,Stim/Aincon.png,left,-0.1,0,90,5,2000,stimuli\\,,,,,,,,,,,,
,,,,,,,,,,zuxin,1,2024-06-29_10h00.44.555,DCT_v1_online,2021.2.3,Win32,60.31726883,,,0.122,3.128,189,up,1,0.6399,left,1,0.6669,2.378,0,44,44,9,1,10,congruent,up,up,congruent,Stim/Acon.png,up,0,0.1,0,1,1000,incongruent,left,left,congruent,Stim/Aincon.png,left,-0.1,0,90,5,2000,stimuli\\,,,,,,,,,,,,
,,,,,,,,,,zuxin,1,2024-06-29_10h00.44.555,DCT_v1_online,2021.2.3,Win32,60.31726883,,,0.173,3.077,190,up,1,0.6598,right,1,0.4872,2.327,0,45,45,67,1,68,incongruent,up,up,congruent,Stim/Aincon.png,up,0,0.1,0,5,1000,congruent,left,right,incongruent,Stim/Acon.png,right,-0.1,0,-90,2,2000,stimuli\\,,,,,,,,,,,,
,,,,,,,,,,zuxin,1,2024-06-29_10h00.44.555,DCT_v1_online,2021.2.3,Win32,60.31726883,,,0.329,2.921,191,down,1,0.7933,left,1,0.4491,2.171,0,46,46,113,1,114,incongruent,down,down,congruent,Stim/Aincon.png,down,0,-0.1,180,8,1000,congruent,left,left,congruent,Stim/Acon.png,left,-0.1,0,90,1,2000,stimuli\\,,,,,,,,,,,,
,,,,,,,,,,zuxin,1,2024-06-29_10h00.44.555,DCT_v1_online,2021.2.3,Win32,60.31726883,,,0.3,2.05,192,down,1,0.9152,right,1,0.953,2.2,0,47,47,118,1,119,incongruent,down,down,congruent,Stim/Aincon.png,down,0,-0.1,180,8,100,congruent,right,right,congruent,Stim/Acon.png,right,0.1,0,-90,4,2000,stimuli\\,,,,,,,,,,,,
,,,,,,,,,,zuxin,1,2024-06-29_10h00.44.555,DCT_v1_online,2021.2.3,Win32,60.31726883,,,0.356,2.894,193,down,1,0.6996,right,1,0.4596,2.144,0,48,48,87,1,88,incongruent,up,down,incongruent,Stim/Aincon.png,down,0,0.1,180,6,1000,congruent,right,right,congruent,Stim/Acon.png,right,0.1,0,-90,4,2000,stimuli\\,,,,,,,,,,,,
,,,,,,,,,,zuxin,1,2024-06-29_10h00.44.555,DCT_v1_online,2021.2.3,Win32,60.31726883,,,0.405,2.845,194,down,1,0.5416,right,1,0.593,2.095,0,49,49,83,1,84,incongruent,up,down,incongruent,Stim/Aincon.png,down,0,0.1,180,6,1000,congruent,left,right,incongruent,Stim/Acon.png,right,-0.1,0,-90,2,2000,stimuli\\,,,,,,,,,,,,
,,,,,,,,,,zuxin,1,2024-06-29_10h00.44.555,DCT_v1_online,2021.2.3,Win32,60.31726883,,,0.066,3.184,195,down,1,0.6618,right,1,0.7226,2.434,0,50,50,63,1,64,congruent,down,down,congruent,Stim/Acon.png,down,0,-0.1,180,4,1000,incongruent,right,right,congruent,Stim/Aincon.png,right,0.1,0,-90,8,2000,stimuli\\,,,,,,,,,,,,
,,,,,,,,,,zuxin,1,2024-06-29_10h00.44.555,DCT_v1_online,2021.2.3,Win32,60.31726883,,,0.304,2.046,196,down,1,1.0767,right,1,1.1145,2.196,0,51,51,114,1,115,incongruent,down,down,congruent,Stim/Aincon.png,down,0,-0.1,180,8,100,congruent,left,right,incongruent,Stim/Acon.png,right,-0.1,0,-90,2,2000,stimuli\\,,,,,,,,,,,,
,,,,,,,,,,zuxin,1,2024-06-29_10h00.44.555,DCT_v1_online,2021.2.3,Win32,60.31726883,,,0.409,1.941,197,down,1,0.85,left,1,1.0714,2.091,0,52,52,116,1,117,incongruent,down,down,congruent,Stim/Aincon.png,down,0,-0.1,180,8,100,congruent,right,left,incongruent,Stim/Acon.png,left,0.1,0,90,3,2000,stimuli\\,,,,,,,,,,,,
,,,,,,,,,,zuxin,1,2024-06-29_10h00.44.555,DCT_v1_online,2021.2.3,Win32,60.31726883,,,0.107,2.243,198,up,1,0.8344,left,1,1.0422,2.393,0,53,53,40,1,41,congruent,down,up,incongruent,Stim/Acon.png,up,0,-0.1,0,3,100,incongruent,left,left,congruent,Stim/Aincon.png,left,-0.1,0,90,5,2000,stimuli\\,,,,,,,,,,,,
,,,,,,,,,,zuxin,1,2024-06-29_10h00.44.555,DCT_v1_online,2021.2.3,Win32,60.31726883,,,0.343,2.007,199,down,1,0.765,right,1,0.8869,2.157,0,54,54,126,1,127,incongruent,down,down,congruent,Stim/Aincon.png,down,0,-0.1,180,8,100,incongruent,right,right,congruent,Stim/Aincon.png,right,0.1,0,-90,8,2000,stimuli\\,,,,,,,,,,,,
,,,,,,,,,,zuxin,1,2024-06-29_10h00.44.555,DCT_v1_online,2021.2.3,Win32,60.31726883,,,0.141,3.109,200,down,1,0.5346,left,1,0.8222,2.359,0,55,55,57,1,58,congruent,down,down,congruent,Stim/Acon.png,down,0,-0.1,180,4,1000,incongruent,left,left,congruent,Stim/Aincon.png,left,-0.1,0,90,5,2000,stimuli\\,,,,,,,,,,,,
,,,,,,,,,,zuxin,1,2024-06-29_10h00.44.555,DCT_v1_online,2021.2.3,Win32,60.31726883,,,0.179,3.071,201,down,1,0.611,left,1,0.4698,2.321,0,56,56,117,1,118,incongruent,down,down,congruent,Stim/Aincon.png,down,0,-0.1,180,8,1000,congruent,right,left,incongruent,Stim/Acon.png,left,0.1,0,90,3,2000,stimuli\\,,,,,,,,,,,,
,,,,,,,,,,zuxin,1,2024-06-29_10h00.44.555,DCT_v1_online,2021.2.3,Win32,60.31726883,,,0.132,3.118,202,down,1,0.7459,left,1,0.589,2.368,0,57,57,85,1,86,incongruent,up,down,incongruent,Stim/Aincon.png,down,0,0.1,180,6,1000,congruent,right,left,incongruent,Stim/Acon.png,left,0.1,0,90,3,2000,stimuli\\,,,,,,,,,,,,
,,,,,,,,,,zuxin,1,2024-06-29_10h00.44.555,DCT_v1_online,2021.2.3,Win32,60.31726883,,,0.318,2.032,203,down,1,0.7758,right,1,0.8552,2.182,0,58,58,22,1,23,congruent,up,down,incongruent,Stim/Acon.png,down,0,0.1,180,2,100,congruent,right,right,congruent,Stim/Acon.png,right,0.1,0,-90,4,2000,stimuli\\,,,,,,,,,,,,
,,,,,,,,,,zuxin,1,2024-06-29_10h00.44.555,DCT_v1_online,2021.2.3,Win32,60.31726883,,,0.147,2.203,204,up,1,1.2336,left,1,1.3509,2.353,0,59,59,96,1,97,incongruent,down,up,incongruent,Stim/Aincon.png,up,0,-0.1,0,7,100,congruent,left,left,congruent,Stim/Acon.png,left,-0.1,0,90,1,2000,stimuli\\,,,,,,,,,,,,
,,,,,,,,,,zuxin,1,2024-06-29_10h00.44.555,DCT_v1_online,2021.2.3,Win32,60.31726883,,,0.11,3.14,205,down,1,0.5502,right,1,0.615,2.39,0,60,60,27,1,28,congruent,up,down,incongruent,Stim/Acon.png,down,0,0.1,180,2,1000,incongruent,left,right,incongruent,Stim/Aincon.png,right,-0.1,0,-90,6,2000,stimuli\\,,,,,,,,,,,,
,,,,,,,,,,zuxin,1,2024-06-29_10h00.44.555,DCT_v1_online,2021.2.3,Win32,60.31726883,,,0.255,2.095,206,up,1,0.9123,left,1,1.0142,2.245,0,61,61,68,1,69,incongruent,up,up,congruent,Stim/Aincon.png,up,0,0.1,0,5,100,congruent,right,left,incongruent,Stim/Acon.png,left,0.1,0,90,3,2000,stimuli\\,,,,,,,,,,,,
,,,,,,,,,,zuxin,1,2024-06-29_10h00.44.555,DCT_v1_online,2021.2.3,Win32,60.31726883,,,0.224,2.126,207,up,1,0.9061,right,1,0.9371,2.276,0,62,62,6,1,7,congruent,up,up,congruent,Stim/Acon.png,up,0,0.1,0,1,100,congruent,right,right,congruent,Stim/Acon.png,right,0.1,0,-90,4,2000,stimuli\\,,,,,,,,,,,,
,,,,,,,,,,zuxin,1,2024-06-29_10h00.44.555,DCT_v1_online,2021.2.3,Win32,60.31726883,,,0.389,1.961,208,up,1,0.715,right,1,0.8065,2.111,0,63,63,10,1,11,congruent,up,up,congruent,Stim/Acon.png,up,0,0.1,0,1,100,incongruent,left,right,incongruent,Stim/Aincon.png,right,-0.1,0,-90,6,2000,stimuli\\,,,,,,,,,,,,
,,,,,,,,,,zuxin,1,2024-06-29_10h00.44.555,DCT_v1_online,2021.2.3,Win32,60.31726883,,,0.036,3.214,209,down,1,0.6852,left,1,0.5816,2.464,0,64,64,53,1,54,congruent,down,down,congruent,Stim/Acon.png,down,0,-0.1,180,4,1000,congruent,right,left,incongruent,Stim/Acon.png,left,0.1,0,90,3,2000,stimuli\\,,,,,,,,,,,,
,,,,,,,,,,zuxin,1,2024-06-29_10h00.44.555,DCT_v1_online,2021.2.3,Win32,60.31726883,,,0.25,2.1,210,down,1,1.0536,left,1,1.1932,2.25,0,65,65,84,1,85,incongruent,up,down,incongruent,Stim/Aincon.png,down,0,0.1,180,6,100,congruent,right,left,incongruent,Stim/Acon.png,left,0.1,0,90,3,2000,stimuli\\,,,,,,,,,,,,
,,,,,,,,,,zuxin,1,2024-06-29_10h00.44.555,DCT_v1_online,2021.2.3,Win32,60.31726883,,,0.31,2.94,211,up,1,0.6413,right,1,0.4679,2.19,0,66,66,71,1,72,incongruent,up,up,congruent,Stim/Aincon.png,up,0,0.1,0,5,1000,congruent,right,right,congruent,Stim/Acon.png,right,0.1,0,-90,4,2000,stimuli\\,,,,,,,,,,,,
,,,,,,,,,,zuxin,1,2024-06-29_10h00.44.555,DCT_v1_online,2021.2.3,Win32,60.31726883,,,0.356,1.994,212,up,1,1.0588,left,1,1.218,2.144,0,67,67,104,1,105,incongruent,down,up,incongruent,Stim/Aincon.png,up,0,-0.1,0,7,100,incongruent,left,left,congruent,Stim/Aincon.png,left,-0.1,0,90,5,2000,stimuli\\,,,,,,,,,,,,
,,,,,,,,,,zuxin,1,2024-06-29_10h00.44.555,DCT_v1_online,2021.2.3,Win32,60.31726883,,,0.089,2.261,213,up,1,0.8981,left,1,0.9536,2.411,0,68,68,32,1,33,congruent,down,up,incongruent,Stim/Acon.png,up,0,-0.1,0,3,100,congruent,left,left,congruent,Stim/Acon.png,left,-0.1,0,90,1,2000,stimuli\\,,,,,,,,,,,,
,,,,,,,,,,zuxin,1,2024-06-29_10h00.44.555,DCT_v1_online,2021.2.3,Win32,60.31726883,,,0.129,2.221,214,up,1,0.7363,left,1,0.8012,2.371,0,69,69,0,1,1,congruent,up,up,congruent,Stim/Acon.png,up,0,0.1,0,1,100,congruent,left,left,congruent,Stim/Acon.png,left,-0.1,0,90,1,2000,stimuli\\,,,,,,,,,,,,
,,,,,,,,,,zuxin,1,2024-06-29_10h00.44.555,DCT_v1_online,2021.2.3,Win32,60.31726883,,,0.13,3.12,215,up,1,0.5151,left,0,0.3511,2.37,0,70,70,11,1,12,congruent,up,up,congruent,Stim/Acon.png,up,0,0.1,0,1,1000,incongruent,left,right,incongruent,Stim/Aincon.png,right,-0.1,0,-90,6,2000,stimuli\\,,,,,,,,,,,,
,,,,,,,,,,zuxin,1,2024-06-29_10h00.44.555,DCT_v1_online,2021.2.3,Win32,60.31726883,,,0.254,2.996,216,down,1,0.7818,left,1,0.503,2.246,0,71,71,121,1,122,incongruent,down,down,congruent,Stim/Aincon.png,down,0,-0.1,180,8,1000,incongruent,left,left,congruent,Stim/Aincon.png,left,-0.1,0,90,5,2000,stimuli\\,,,,,,,,,,,,
,,,,,,,,,,zuxin,1,2024-06-29_10h00.44.555,DCT_v1_online,2021.2.3,Win32,60.31726883,,,0.053,3.197,217,down,1,0.6801,right,1,0.4281,2.447,0,72,72,115,1,116,incongruent,down,down,congruent,Stim/Aincon.png,down,0,-0.1,180,8,1000,congruent,left,right,incongruent,Stim/Acon.png,right,-0.1,0,-90,2,2000,stimuli\\,,,,,,,,,,,,
,,,,,,,,,,zuxin,1,2024-06-29_10h00.44.555,DCT_v1_online,2021.2.3,Win32,60.31726883,,,0.449,2.801,218,down,1,0.4791,right,1,0.426,2.051,0,73,73,19,1,20,congruent,up,down,incongruent,Stim/Acon.png,down,0,0.1,180,2,1000,congruent,left,right,incongruent,Stim/Acon.png,right,-0.1,0,-90,2,2000,stimuli\\,,,,,,,,,,,,
,,,,,,,,,,zuxin,1,2024-06-29_10h00.44.555,DCT_v1_online,2021.2.3,Win32,60.31726883,,,0.319,2.931,219,up,1,0.593,right,1,0.3734,2.181,0,74,74,3,1,4,congruent,up,up,congruent,Stim/Acon.png,up,0,0.1,0,1,1000,congruent,left,right,incongruent,Stim/Acon.png,right,-0.1,0,-90,2,2000,stimuli\\,,,,,,,,,,,,
,,,,,,,,,,zuxin,1,2024-06-29_10h00.44.555,DCT_v1_online,2021.2.3,Win32,60.31726883,,,0.376,1.974,220,up,1,0.9941,left,1,1.1342,2.124,0,75,75,108,1,109,incongruent,down,up,incongruent,Stim/Aincon.png,up,0,-0.1,0,7,100,incongruent,right,left,incongruent,Stim/Aincon.png,left,0.1,0,90,7,2000,stimuli\\,,,,,,,,,,,,
,,,,,,,,,,zuxin,1,2024-06-29_10h00.44.555,DCT_v1_online,2021.2.3,Win32,60.31726883,,,0.225,2.125,221,up,1,1.3568,right,1,1.4133,2.275,0,76,76,110,1,111,incongruent,down,up,incongruent,Stim/Aincon.png,up,0,-0.1,0,7,100,incongruent,right,right,congruent,Stim/Aincon.png,right,0.1,0,-90,8,2000,stimuli\\,,,,,,,,,,,,
,,,,,,,,,,zuxin,1,2024-06-29_10h00.44.555,DCT_v1_online,2021.2.3,Win32,60.31726883,,,0.204,2.146,222,down,1,0.5847,left,1,0.8083,2.296,0,77,77,48,1,49,congruent,down,down,congruent,Stim/Acon.png,down,0,-0.1,180,4,100,congruent,left,left,congruent,Stim/Acon.png,left,-0.1,0,90,1,2000,stimuli\\,,,,,,,,,,,,
,,,,,,,,,,zuxin,1,2024-06-29_10h00.44.555,DCT_v1_online,2021.2.3,Win32,60.31726883,,,0.02,2.33,223,up,1,0.8078,right,1,0.9872,2.48,0,78,78,66,1,67,incongruent,up,up,congruent,Stim/Aincon.png,up,0,0.1,0,5,100,congruent,left,right,incongruent,Stim/Acon.png,right,-0.1,0,-90,2,2000,stimuli\\,,,,,,,,,,,,
,,,,,,,,,,zuxin,1,2024-06-29_10h00.44.555,DCT_v1_online,2021.2.3,Win32,60.31726883,,,0.14,3.11,224,down,1,0.5797,left,1,0.5676,2.36,0,79,79,49,1,50,congruent,down,down,congruent,Stim/Acon.png,down,0,-0.1,180,4,1000,congruent,left,left,congruent,Stim/Acon.png,left,-0.1,0,90,1,2000,stimuli\\,,,,,,,,,,,,
,,,,,,,,,,zuxin,1,2024-06-29_10h00.44.555,DCT_v1_online,2021.2.3,Win32,60.31726883,,,0.495,2.755,225,down,1,0.5614,left,1,0.3966,2.005,0,80,80,17,1,18,congruent,up,down,incongruent,Stim/Acon.png,down,0,0.1,180,2,1000,congruent,left,left,congruent,Stim/Acon.png,left,-0.1,0,90,1,2000,stimuli\\,,,,,,,,,,,,
,,,,,,,,,,zuxin,1,2024-06-29_10h00.44.555,DCT_v1_online,2021.2.3,Win32,60.31726883,,,0.397,1.953,226,down,1,0.681,left,1,0.831,2.103,0,81,81,16,1,17,congruent,up,down,incongruent,Stim/Acon.png,down,0,0.1,180,2,100,congruent,left,left,congruent,Stim/Acon.png,left,-0.1,0,90,1,2000,stimuli\\,,,,,,,,,,,,
,,,,,,,,,,zuxin,1,2024-06-29_10h00.44.555,DCT_v1_online,2021.2.3,Win32,60.31726883,,,0.389,2.861,227,down,1,0.7447,right,1,0.7126,2.111,0,82,82,95,1,96,incongruent,up,down,incongruent,Stim/Aincon.png,down,0,0.1,180,6,1000,incongruent,right,right,congruent,Stim/Aincon.png,right,0.1,0,-90,8,2000,stimuli\\,,,,,,,,,,,,
,,,,,,,,,,zuxin,1,2024-06-29_10h00.44.555,DCT_v1_online,2021.2.3,Win32,60.31726883,,,0.065,3.185,228,down,1,0.5571,left,1,0.7003,2.435,0,83,83,29,1,30,congruent,up,down,incongruent,Stim/Acon.png,down,0,0.1,180,2,1000,incongruent,right,left,incongruent,Stim/Aincon.png,left,0.1,0,90,7,2000,stimuli\\,,,,,,,,,,,,
,,,,,,,,,,zuxin,1,2024-06-29_10h00.44.555,DCT_v1_online,2021.2.3,Win32,60.31726883,,,0.272,2.078,229,up,1,0.7176,right,1,0.9013,2.228,0,84,84,14,1,15,congruent,up,up,congruent,Stim/Acon.png,up,0,0.1,0,1,100,incongruent,right,right,congruent,Stim/Aincon.png,right,0.1,0,-90,8,2000,stimuli\\,,,,,,,,,,,,
,,,,,,,,,,zuxin,1,2024-06-29_10h00.44.555,DCT_v1_online,2021.2.3,Win32,60.31726883,,,0.045,2.305,230,down,1,0.7381,left,1,0.883,2.455,0,85,85,20,1,21,congruent,up,down,incongruent,Stim/Acon.png,down,0,0.1,180,2,100,congruent,right,left,incongruent,Stim/Acon.png,left,0.1,0,90,3,2000,stimuli\\,,,,,,,,,,,,
,,,,,,,,,,zuxin,1,2024-06-29_10h00.44.555,DCT_v1_online,2021.2.3,Win32,60.31726883,,,0.172,3.078,231,up,1,0.6096,right,1,0.6848,2.328,0,86,86,79,1,80,incongruent,up,up,congruent,Stim/Aincon.png,up,0,0.1,0,5,1000,incongruent,right,right,congruent,Stim/Aincon.png,right,0.1,0,-90,8,2000,stimuli\\,,,,,,,,,,,,
,,,,,,,,,,zuxin,1,2024-06-29_10h00.44.555,DCT_v1_online,2021.2.3,Win32,60.31726883,,,0.125,2.225,232,up,1,0.796,right,1,0.9968,2.375,0,87,87,42,1,43,congruent,down,up,incongruent,Stim/Acon.png,up,0,-0.1,0,3,100,incongruent,left,right,incongruent,Stim/Aincon.png,right,-0.1,0,-90,6,2000,stimuli\\,,,,,,,,,,,,
,,,,,,,,,,zuxin,1,2024-06-29_10h00.44.555,DCT_v1_online,2021.2.3,Win32,60.31726883,,,0.308,2.042,233,down,1,0.9123,left,1,1.0661,2.192,0,88,88,112,1,113,incongruent,down,down,congruent,Stim/Aincon.png,down,0,-0.1,180,8,100,congruent,left,left,congruent,Stim/Acon.png,left,-0.1,0,90,1,2000,stimuli\\,,,,,,,,,,,,
,,,,,,,,,,zuxin,1,2024-06-29_10h00.44.555,DCT_v1_online,2021.2.3,Win32,60.31726883,,,0.156,3.094,234,down,1,0.6531,right,1,0.7074,2.344,0,89,89,127,1,128,incongruent,down,down,congruent,Stim/Aincon.png,down,0,-0.1,180,8,1000,incongruent,right,right,congruent,Stim/Aincon.png,right,0.1,0,-90,8,2000,stimuli\\,,,,,,,,,,,,
,,,,,,,,,,zuxin,1,2024-06-29_10h00.44.555,DCT_v1_online,2021.2.3,Win32,60.31726883,,,0.443,2.807,235,up,1,0.5855,left,1,0.5512,2.057,0,90,90,73,1,74,incongruent,up,up,congruent,Stim/Aincon.png,up,0,0.1,0,5,1000,incongruent,left,left,congruent,Stim/Aincon.png,left,-0.1,0,90,5,2000,stimuli\\,,,,,,,,,,,,
,,,,,,,,,,zuxin,1,2024-06-29_10h00.44.555,DCT_v1_online,2021.2.3,Win32,60.31726883,,,0.03,2.32,236,down,1,0.7327,right,1,0.858,2.47,0,91,91,54,1,55,congruent,down,down,congruent,Stim/Acon.png,down,0,-0.1,180,4,100,congruent,right,right,congruent,Stim/Acon.png,right,0.1,0,-90,4,2000,stimuli\\,,,,,,,,,,,,
,,,,,,,,,,zuxin,1,2024-06-29_10h00.44.555,DCT_v1_online,2021.2.3,Win32,60.31726883,,,0.207,3.043,237,up,1,0.7674,right,1,0.6338,2.293,0,92,92,111,1,112,incongruent,down,up,incongruent,Stim/Aincon.png,up,0,-0.1,0,7,1000,incongruent,right,right,congruent,Stim/Aincon.png,right,0.1,0,-90,8,2000,stimuli\\,,,,,,,,,,,,
,,,,,,,,,,zuxin,1,2024-06-29_10h00.44.555,DCT_v1_online,2021.2.3,Win32,60.31726883,,,0.205,3.045,238,up,1,0.5453,left,1,0.5644,2.295,0,93,93,69,1,70,incongruent,up,up,congruent,Stim/Aincon.png,up,0,0.1,0,5,1000,congruent,right,left,incongruent,Stim/Acon.png,left,0.1,0,90,3,2000,stimuli\\,,,,,,,,,,,,
,,,,,,,,,,zuxin,1,2024-06-29_10h00.44.555,DCT_v1_online,2021.2.3,Win32,60.31726883,,,0.495,2.755,239,up,1,0.6459,right,1,0.5736,2.005,0,94,94,103,1,104,incongruent,down,up,incongruent,Stim/Aincon.png,up,0,-0.1,0,7,1000,congruent,right,right,congruent,Stim/Acon.png,right,0.1,0,-90,4,2000,stimuli\\,,,,,,,,,,,,
,,,,,,,,,,zuxin,1,2024-06-29_10h00.44.555,DCT_v1_online,2021.2.3,Win32,60.31726883,,,0.149,2.201,240,down,1,0.7312,left,1,1.1242,2.351,0,95,95,24,1,25,congruent,up,down,incongruent,Stim/Acon.png,down,0,0.1,180,2,100,incongruent,left,left,congruent,Stim/Aincon.png,left,-0.1,0,90,5,2000,stimuli\\,,,,,,,,,,,,
,,,,,,,,,,zuxin,1,2024-06-29_10h00.44.555,DCT_v1_online,2021.2.3,Win32,60.31726883,,,0.178,2.172,241,up,1,0.9346,right,1,1.039,2.322,0,96,96,98,1,99,incongruent,down,up,incongruent,Stim/Aincon.png,up,0,-0.1,0,7,100,congruent,left,right,incongruent,Stim/Acon.png,right,-0.1,0,-90,2,2000,stimuli\\,,,,,,,,,,,,
,,,,,,,,,,zuxin,1,2024-06-29_10h00.44.555,DCT_v1_online,2021.2.3,Win32,60.31726883,,,0.457,1.893,242,down,1,0.6623,right,1,0.846,2.043,0,97,97,26,1,27,congruent,up,down,incongruent,Stim/Acon.png,down,0,0.1,180,2,100,incongruent,left,right,incongruent,Stim/Aincon.png,right,-0.1,0,-90,6,2000,stimuli\\,,,,,,,,,,,,
,,,,,,,,,,zuxin,1,2024-06-29_10h00.44.555,DCT_v1_online,2021.2.3,Win32,60.31726883,,,0.057,3.193,243,up,1,0.6486,right,1,0.5336,2.443,0,98,98,7,1,8,congruent,up,up,congruent,Stim/Acon.png,up,0,0.1,0,1,1000,congruent,right,right,congruent,Stim/Acon.png,right,0.1,0,-90,4,2000,stimuli\\,,,,,,,,,,,,
,,,,,,,,,,zuxin,1,2024-06-29_10h00.44.555,DCT_v1_online,2021.2.3,Win32,60.31726883,,,0.299,2.951,244,down,1,0.4853,right,1,0.5505,2.201,0,99,99,23,1,24,congruent,up,down,incongruent,Stim/Acon.png,down,0,0.1,180,2,1000,congruent,right,right,congruent,Stim/Acon.png,right,0.1,0,-90,4,2000,stimuli\\,,,,,,,,,,,,
,,,,,,,,,,zuxin,1,2024-06-29_10h00.44.555,DCT_v1_online,2021.2.3,Win32,60.31726883,,,0.031,3.219,245,down,1,0.5797,left,1,0.5641,2.469,0,100,100,81,1,82,incongruent,up,down,incongruent,Stim/Aincon.png,down,0,0.1,180,6,1000,congruent,left,left,congruent,Stim/Acon.png,left,-0.1,0,90,1,2000,stimuli\\,,,,,,,,,,,,
,,,,,,,,,,zuxin,1,2024-06-29_10h00.44.555,DCT_v1_online,2021.2.3,Win32,60.31726883,,,0.396,2.854,246,up,1,0.7622,right,0,0.4826,2.104,0,101,101,109,1,110,incongruent,down,up,incongruent,Stim/Aincon.png,up,0,-0.1,0,7,1000,incongruent,right,left,incongruent,Stim/Aincon.png,left,0.1,0,90,7,2000,stimuli\\,,,,,,,,,,,,
,,,,,,,,,,zuxin,1,2024-06-29_10h00.44.555,DCT_v1_online,2021.2.3,Win32,60.31726883,,,0.187,2.163,247,down,1,0.7432,left,1,0.8492,2.313,0,102,102,52,1,53,congruent,down,down,congruent,Stim/Acon.png,down,0,-0.1,180,4,100,congruent,right,left,incongruent,Stim/Acon.png,left,0.1,0,90,3,2000,stimuli\\,,,,,,,,,,,,
,,,,,,,,,,zuxin,1,2024-06-29_10h00.44.555,DCT_v1_online,2021.2.3,Win32,60.31726883,,,0.013,3.237,248,down,1,0.6975,left,1,0.7944,2.487,0,103,103,125,1,126,incongruent,down,down,congruent,Stim/Aincon.png,down,0,-0.1,180,8,1000,incongruent,right,left,incongruent,Stim/Aincon.png,left,0.1,0,90,7,2000,stimuli\\,,,,,,,,,,,,
,,,,,,,,,,zuxin,1,2024-06-29_10h00.44.555,DCT_v1_online,2021.2.3,Win32,60.31726883,,,0.101,2.249,249,down,1,0.7505,left,1,0.9315,2.399,0,104,104,92,1,93,incongruent,up,down,incongruent,Stim/Aincon.png,down,0,0.1,180,6,100,incongruent,right,left,incongruent,Stim/Aincon.png,left,0.1,0,90,7,2000,stimuli\\,,,,,,,,,,,,
,,,,,,,,,,zuxin,1,2024-06-29_10h00.44.555,DCT_v1_online,2021.2.3,Win32,60.31726883,,,0.204,3.046,250,up,1,0.6391,right,1,0.5964,2.296,0,105,105,39,1,40,congruent,down,up,incongruent,Stim/Acon.png,up,0,-0.1,0,3,1000,congruent,right,right,congruent,Stim/Acon.png,right,0.1,0,-90,4,2000,stimuli\\,,,,,,,,,,,,
,,,,,,,,,,zuxin,1,2024-06-29_10h00.44.555,DCT_v1_online,2021.2.3,Win32,60.31726883,,,0.15,3.1,251,up,1,0.5793,right,1,0.4605,2.35,0,106,106,35,1,36,congruent,down,up,incongruent,Stim/Acon.png,up,0,-0.1,0,3,1000,congruent,left,right,incongruent,Stim/Acon.png,right,-0.1,0,-90,2,2000,stimuli\\,,,,,,,,,,,,
,,,,,,,,,,zuxin,1,2024-06-29_10h00.44.555,DCT_v1_online,2021.2.3,Win32,60.31726883,,,0.089,3.161,252,up,1,0.47,right,1,0.6549,2.411,0,107,107,43,1,44,congruent,down,up,incongruent,Stim/Acon.png,up,0,-0.1,0,3,1000,incongruent,left,right,incongruent,Stim/Aincon.png,right,-0.1,0,-90,6,2000,stimuli\\,,,,,,,,,,,,
,,,,,,,,,,zuxin,1,2024-06-29_10h00.44.555,DCT_v1_online,2021.2.3,Win32,60.31726883,,,0.33,2.92,253,up,1,0.6602,right,1,0.6075,2.17,0,108,108,75,1,76,incongruent,up,up,congruent,Stim/Aincon.png,up,0,0.1,0,5,1000,incongruent,left,right,incongruent,Stim/Aincon.png,right,-0.1,0,-90,6,2000,stimuli\\,,,,,,,,,,,,
,,,,,,,,,,zuxin,1,2024-06-29_10h00.44.555,DCT_v1_online,2021.2.3,Win32,60.31726883,,,0.152,2.198,254,down,1,0.6783,left,1,0.8693,2.348,0,109,109,88,1,89,incongruent,up,down,incongruent,Stim/Aincon.png,down,0,0.1,180,6,100,incongruent,left,left,congruent,Stim/Aincon.png,left,-0.1,0,90,5,2000,stimuli\\,,,,,,,,,,,,
,,,,,,,,,,zuxin,1,2024-06-29_10h00.44.555,DCT_v1_online,2021.2.3,Win32,60.31726883,,,0.032,2.318,255,down,1,0.7699,right,1,0.9469,2.468,0,110,110,82,1,83,incongruent,up,down,incongruent,Stim/Aincon.png,down,0,0.1,180,6,100,congruent,left,right,incongruent,Stim/Acon.png,right,-0.1,0,-90,2,2000,stimuli\\,,,,,,,,,,,,
,,,,,,,,,,zuxin,1,2024-06-29_10h00.44.555,DCT_v1_online,2021.2.3,Win32,60.31726883,,,0.189,2.161,256,up,1,1.3329,right,1,1.5253,2.311,0,111,111,34,1,35,congruent,down,up,incongruent,Stim/Acon.png,up,0,-0.1,0,3,100,congruent,left,right,incongruent,Stim/Acon.png,right,-0.1,0,-90,2,2000,stimuli\\,,,,,,,,,,,,
,,,,,,,,,,zuxin,1,2024-06-29_10h00.44.555,DCT_v1_online,2021.2.3,Win32,60.31726883,,,0.483,2.767,257,up,1,0.5682,left,1,0.7322,2.017,0,112,112,13,1,14,congruent,up,up,congruent,Stim/Acon.png,up,0,0.1,0,1,1000,incongruent,right,left,incongruent,Stim/Aincon.png,left,0.1,0,90,7,2000,stimuli\\,,,,,,,,,,,,
,,,,,,,,,,zuxin,1,2024-06-29_10h00.44.555,DCT_v1_online,2021.2.3,Win32,60.31726883,,,0.259,2.991,258,down,1,0.547,left,1,0.6897,2.241,0,113,113,61,1,62,congruent,down,down,congruent,Stim/Acon.png,down,0,-0.1,180,4,1000,incongruent,right,left,incongruent,Stim/Aincon.png,left,0.1,0,90,7,2000,stimuli\\,,,,,,,,,,,,
,,,,,,,,,,zuxin,1,2024-06-29_10h00.44.555,DCT_v1_online,2021.2.3,Win32,60.31726883,,,0.243,2.107,259,up,1,0.963,left,1,1.2002,2.257,0,114,114,12,1,13,congruent,up,up,congruent,Stim/Acon.png,up,0,0.1,0,1,100,incongruent,right,left,incongruent,Stim/Aincon.png,left,0.1,0,90,7,2000,stimuli\\,,,,,,,,,,,,
,,,,,,,,,,zuxin,1,2024-06-29_10h00.44.555,DCT_v1_online,2021.2.3,Win32,60.31726883,,,0.054,2.296,260,up,1,0.9715,left,1,1.0914,2.446,0,115,115,72,1,73,incongruent,up,up,congruent,Stim/Aincon.png,up,0,0.1,0,5,100,incongruent,left,left,congruent,Stim/Aincon.png,left,-0.1,0,90,5,2000,stimuli\\,,,,,,,,,,,,
,,,,,,,,,,zuxin,1,2024-06-29_10h00.44.555,DCT_v1_online,2021.2.3,Win32,60.31726883,,,0.463,1.887,261,down,1,0.8152,left,1,1.0582,2.037,0,116,116,56,1,57,congruent,down,down,congruent,Stim/Acon.png,down,0,-0.1,180,4,100,incongruent,left,left,congruent,Stim/Aincon.png,left,-0.1,0,90,5,2000,stimuli\\,,,,,,,,,,,,
,,,,,,,,,,zuxin,1,2024-06-29_10h00.44.555,DCT_v1_online,2021.2.3,Win32,60.31726883,,,0.249,3.001,262,up,1,0.7167,left,1,0.6277,2.251,0,117,117,45,1,46,congruent,down,up,incongruent,Stim/Acon.png,up,0,-0.1,0,3,1000,incongruent,right,left,incongruent,Stim/Aincon.png,left,0.1,0,90,7,2000,stimuli\\,,,,,,,,,,,,
,,,,,,,,,,zuxin,1,2024-06-29_10h00.44.555,DCT_v1_online,2021.2.3,Win32,60.31726883,,,0.416,2.834,263,down,1,0.6081,right,1,0.6815,2.084,0,118,118,31,1,32,congruent,up,down,incongruent,Stim/Acon.png,down,0,0.1,180,2,1000,incongruent,right,right,congruent,Stim/Aincon.png,right,0.1,0,-90,8,2000,stimuli\\,,,,,,,,,,,,
,,,,,,,,,,zuxin,1,2024-06-29_10h00.44.555,DCT_v1_online,2021.2.3,Win32,60.31726883,,,0.161,3.089,264,up,1,0.7348,right,1,0.6013,2.339,0,119,119,99,1,100,incongruent,down,up,incongruent,Stim/Aincon.png,up,0,-0.1,0,7,1000,congruent,left,right,incongruent,Stim/Acon.png,right,-0.1,0,-90,2,2000,stimuli\\,,,,,,,,,,,,
,,,,,,,,,,zuxin,1,2024-06-29_10h00.44.555,DCT_v1_online,2021.2.3,Win32,60.31726883,,,0.014,3.236,265,down,1,0.6445,right,1,0.5924,2.486,0,120,120,91,1,92,incongruent,up,down,incongruent,Stim/Aincon.png,down,0,0.1,180,6,1000,incongruent,left,right,incongruent,Stim/Aincon.png,right,-0.1,0,-90,6,2000,stimuli\\,,,,,,,,,,,,
,,,,,,,,,,zuxin,1,2024-06-29_10h00.44.555,DCT_v1_online,2021.2.3,Win32,60.31726883,,,0.108,3.142,266,down,1,0.6553,right,1,0.5027,2.392,0,121,121,59,1,60,congruent,down,down,congruent,Stim/Acon.png,down,0,-0.1,180,4,1000,incongruent,left,right,incongruent,Stim/Aincon.png,right,-0.1,0,-90,6,2000,stimuli\\,,,,,,,,,,,,
,,,,,,,,,,zuxin,1,2024-06-29_10h00.44.555,DCT_v1_online,2021.2.3,Win32,60.31726883,,,0.22,3.03,267,up,1,0.6521,left,1,0.5168,2.28,0,122,122,33,1,34,congruent,down,up,incongruent,Stim/Acon.png,up,0,-0.1,0,3,1000,congruent,left,left,congruent,Stim/Acon.png,left,-0.1,0,90,1,2000,stimuli\\,,,,,,,,,,,,
,,,,,,,,,,zuxin,1,2024-06-29_10h00.44.555,DCT_v1_online,2021.2.3,Win32,60.31726883,,,0.298,2.052,268,up,1,0.6839,left,1,0.7966,2.202,0,123,123,4,1,5,congruent,up,up,congruent,Stim/Acon.png,up,0,0.1,0,1,100,congruent,right,left,incongruent,Stim/Acon.png,left,0.1,0,90,3,2000,stimuli\\,,,,,,,,,,,,
,,,,,,,,,,zuxin,1,2024-06-29_10h00.44.555,DCT_v1_online,2021.2.3,Win32,60.31726883,,,0.335,2.915,269,up,1,0.8745,left,1,0.5342,2.165,0,124,124,97,1,98,incongruent,down,up,incongruent,Stim/Aincon.png,up,0,-0.1,0,7,1000,congruent,left,left,congruent,Stim/Acon.png,left,-0.1,0,90,1,2000,stimuli\\,,,,,,,,,,,,
,,,,,,,,,,zuxin,1,2024-06-29_10h00.44.555,DCT_v1_online,2021.2.3,Win32,60.31726883,,,0.443,1.907,270,down,1,0.8137,right,1,0.9349,2.057,0,125,125,86,1,87,incongruent,up,down,incongruent,Stim/Aincon.png,down,0,0.1,180,6,100,congruent,right,right,congruent,Stim/Acon.png,right,0.1,0,-90,4,2000,stimuli\\,,,,,,,,,,,,
,,,,,,,,,,zuxin,1,2024-06-29_10h00.44.555,DCT_v1_online,2021.2.3,Win32,60.31726883,,,0.155,2.195,271,down,1,0.9077,right,1,1.1563,2.345,0,126,126,30,1,31,congruent,up,down,incongruent,Stim/Acon.png,down,0,0.1,180,2,100,incongruent,right,right,congruent,Stim/Aincon.png,right,0.1,0,-90,8,2000,stimuli\\,,,,,,,,,,,,
,,,,,,,,,,zuxin,1,2024-06-29_10h00.44.555,DCT_v1_online,2021.2.3,Win32,60.31726883,,,0.194,3.056,272,down,1,0.7818,right,1,0.5347,2.306,0,127,127,119,1,120,incongruent,down,down,congruent,Stim/Aincon.png,down,0,-0.1,180,8,1000,congruent,right,right,congruent,Stim/Acon.png,right,0.1,0,-90,4,2000,stimuli\\,,,,,,,,,,,,
,,,,,,,,,,zuxin,1,2024-06-29_10h00.44.555,DCT_v1_online,2021.2.3,Win32,60.31726883,,,,,,,,,,,,,,,,,,,,,,,,,,,,,,,,,,,,,,,,,,space,20.7317,0,2,2,2,1,Instructions/i6.png,test,conditions/block1.xlsx,1.2,0.5
,,,,,,,,,,zuxin,1,2024-06-29_10h00.44.555,DCT_v1_online,2021.2.3,Win32,60.31726883,space,3.3622,0.171,3.079,273,down,1,0.674,right,1,0.6301,2.329,0,0,0,127,1,128,incongruent,down,down,congruent,Stim/Aincon.png,down,0,-0.1,180,8,1000,incongruent,right,right,congruent,Stim/Aincon.png,right,0.1,0,-90,8,2000,stimuli\\,,,,,,,,,,,,
,,,,,,,,,,zuxin,1,2024-06-29_10h00.44.555,DCT_v1_online,2021.2.3,Win32,60.31726883,,,0.219,3.031,274,down,1,0.6501,right,1,0.6787,2.281,0,1,1,63,1,64,congruent,down,down,congruent,Stim/Acon.png,down,0,-0.1,180,4,1000,incongruent,right,right,congruent,Stim/Aincon.png,right,0.1,0,-90,8,2000,stimuli\\,,,,,,,,,,,,
,,,,,,,,,,zuxin,1,2024-06-29_10h00.44.555,DCT_v1_online,2021.2.3,Win32,60.31726883,,,0.189,3.061,275,up,1,0.5721,right,1,0.6094,2.311,0,2,2,111,1,112,incongruent,down,up,incongruent,Stim/Aincon.png,up,0,-0.1,0,7,1000,incongruent,right,right,congruent,Stim/Aincon.png,right,0.1,0,-90,8,2000,stimuli\\,,,,,,,,,,,,
,,,,,,,,,,zuxin,1,2024-06-29_10h00.44.555,DCT_v1_online,2021.2.3,Win32,60.31726883,,,0.343,2.907,276,up,1,0.7652,left,1,0.5047,2.157,0,3,3,65,1,66,incongruent,up,up,congruent,Stim/Aincon.png,up,0,0.1,0,5,1000,congruent,left,left,congruent,Stim/Acon.png,left,-0.1,0,90,1,2000,stimuli\\,,,,,,,,,,,,
,,,,,,,,,,zuxin,1,2024-06-29_10h00.44.555,DCT_v1_online,2021.2.3,Win32,60.31726883,,,0.28,2.97,277,down,1,0.5864,right,1,0.6507,2.22,0,4,4,91,1,92,incongruent,up,down,incongruent,Stim/Aincon.png,down,0,0.1,180,6,1000,incongruent,left,right,incongruent,Stim/Aincon.png,right,-0.1,0,-90,6,2000,stimuli\\,,,,,,,,,,,,
,,,,,,,,,,zuxin,1,2024-06-29_10h00.44.555,DCT_v1_online,2021.2.3,Win32,60.31726883,,,0.008,2.342,278,down,1,0.5674,right,1,0.879,2.492,0,5,5,94,1,95,incongruent,up,down,incongruent,Stim/Aincon.png,down,0,0.1,180,6,100,incongruent,right,right,congruent,Stim/Aincon.png,right,0.1,0,-90,8,2000,stimuli\\,,,,,,,,,,,,
,,,,,,,,,,zuxin,1,2024-06-29_10h00.44.555,DCT_v1_online,2021.2.3,Win32,60.31726883,,,0.446,2.804,279,up,1,0.5144,left,1,0.7133,2.054,0,6,6,77,1,78,incongruent,up,up,congruent,Stim/Aincon.png,up,0,0.1,0,5,1000,incongruent,right,left,incongruent,Stim/Aincon.png,left,0.1,0,90,7,2000,stimuli\\,,,,,,,,,,,,
,,,,,,,,,,zuxin,1,2024-06-29_10h00.44.555,DCT_v1_online,2021.2.3,Win32,60.31726883,,,0.006,3.244,280,up,1,0.6726,right,1,0.5104,2.494,0,7,7,107,1,108,incongruent,down,up,incongruent,Stim/Aincon.png,up,0,-0.1,0,7,1000,incongruent,left,right,incongruent,Stim/Aincon.png,right,-0.1,0,-90,6,2000,stimuli\\,,,,,,,,,,,,
,,,,,,,,,,zuxin,1,2024-06-29_10h00.44.555,DCT_v1_online,2021.2.3,Win32,60.31726883,,,0.198,3.052,281,down,1,0.5697,left,1,0.6245,2.302,0,8,8,117,1,118,incongruent,down,down,congruent,Stim/Aincon.png,down,0,-0.1,180,8,1000,congruent,right,left,incongruent,Stim/Acon.png,left,0.1,0,90,3,2000,stimuli\\,,,,,,,,,,,,
,,,,,,,,,,zuxin,1,2024-06-29_10h00.44.555,DCT_v1_online,2021.2.3,Win32,60.31726883,,,0.38,2.87,282,down,1,0.5457,right,1,0.5496,2.12,0,9,9,27,1,28,congruent,up,down,incongruent,Stim/Acon.png,down,0,0.1,180,2,1000,incongruent,left,right,incongruent,Stim/Aincon.png,right,-0.1,0,-90,6,2000,stimuli\\,,,,,,,,,,,,
,,,,,,,,,,zuxin,1,2024-06-29_10h00.44.555,DCT_v1_online,2021.2.3,Win32,60.31726883,,,0.144,2.206,283,down,1,0.8795,right,1,1.0153,2.356,0,10,10,126,1,127,incongruent,down,down,congruent,Stim/Aincon.png,down,0,-0.1,180,8,100,incongruent,right,right,congruent,Stim/Aincon.png,right,0.1,0,-90,8,2000,stimuli\\,,,,,,,,,,,,
,,,,,,,,,,zuxin,1,2024-06-29_10h00.44.555,DCT_v1_online,2021.2.3,Win32,60.31726883,,,0.302,2.048,284,up,1,0.6245,right,1,0.9225,2.198,0,11,11,10,1,11,congruent,up,up,congruent,Stim/Acon.png,up,0,0.1,0,1,100,incongruent,left,right,incongruent,Stim/Aincon.png,right,-0.1,0,-90,6,2000,stimuli\\,,,,,,,,,,,,
,,,,,,,,,,zuxin,1,2024-06-29_10h00.44.555,DCT_v1_online,2021.2.3,Win32,60.31726883,,,0.417,2.833,285,down,0,0.5685,right,1,0.5368,2.083,0,12,12,99,1,100,incongruent,down,up,incongruent,Stim/Aincon.png,up,0,-0.1,0,7,1000,congruent,left,right,incongruent,Stim/Acon.png,right,-0.1,0,-90,2,2000,stimuli\\,,,,,,,,,,,,
,,,,,,,,,,zuxin,1,2024-06-29_10h00.44.555,DCT_v1_online,2021.2.3,Win32,60.31726883,,,0.06,2.29,286,up,1,0.783,right,1,0.8645,2.44,0,13,13,2,1,3,congruent,up,up,congruent,Stim/Acon.png,up,0,0.1,0,1,100,congruent,left,right,incongruent,Stim/Acon.png,right,-0.1,0,-90,2,2000,stimuli\\,,,,,,,,,,,,
,,,,,,,,,,zuxin,1,2024-06-29_10h00.44.555,DCT_v1_online,2021.2.3,Win32,60.31726883,,,0.361,2.889,287,down,1,0.5605,right,1,0.3987,2.139,0,14,14,83,1,84,incongruent,up,down,incongruent,Stim/Aincon.png,down,0,0.1,180,6,1000,congruent,left,right,incongruent,Stim/Acon.png,right,-0.1,0,-90,2,2000,stimuli\\,,,,,,,,,,,,
,,,,,,,,,,zuxin,1,2024-06-29_10h00.44.555,DCT_v1_online,2021.2.3,Win32,60.31726883,,,0.289,2.061,288,down,1,0.7979,left,1,0.9843,2.211,0,15,15,48,1,49,congruent,down,down,congruent,Stim/Acon.png,down,0,-0.1,180,4,100,congruent,left,left,congruent,Stim/Acon.png,left,-0.1,0,90,1,2000,stimuli\\,,,,,,,,,,,,
,,,,,,,,,,zuxin,1,2024-06-29_10h00.44.555,DCT_v1_online,2021.2.3,Win32,60.31726883,,,0.298,2.052,289,down,1,0.783,left,1,0.963,2.202,0,16,16,116,1,117,incongruent,down,down,congruent,Stim/Aincon.png,down,0,-0.1,180,8,100,congruent,right,left,incongruent,Stim/Acon.png,left,0.1,0,90,3,2000,stimuli\\,,,,,,,,,,,,
,,,,,,,,,,zuxin,1,2024-06-29_10h00.44.555,DCT_v1_online,2021.2.3,Win32,60.31726883,,,0.319,2.031,290,up,1,1.1257,right,1,1.2075,2.181,0,17,17,106,1,107,incongruent,down,up,incongruent,Stim/Aincon.png,up,0,-0.1,0,7,100,incongruent,left,right,incongruent,Stim/Aincon.png,right,-0.1,0,-90,6,2000,stimuli\\,,,,,,,,,,,,
,,,,,,,,,,zuxin,1,2024-06-29_10h00.44.555,DCT_v1_online,2021.2.3,Win32,60.31726883,,,0.081,3.169,291,up,1,0.6588,right,1,0.6801,2.419,0,18,18,15,1,16,congruent,up,up,congruent,Stim/Acon.png,up,0,0.1,0,1,1000,incongruent,right,right,congruent,Stim/Aincon.png,right,0.1,0,-90,8,2000,stimuli\\,,,,,,,,,,,,
,,,,,,,,,,zuxin,1,2024-06-29_10h00.44.555,DCT_v1_online,2021.2.3,Win32,60.31726883,,,0.127,3.123,292,up,1,0.7578,right,1,0.6303,2.373,0,19,19,79,1,80,incongruent,up,up,congruent,Stim/Aincon.png,up,0,0.1,0,5,1000,incongruent,right,right,congruent,Stim/Aincon.png,right,0.1,0,-90,8,2000,stimuli\\,,,,,,,,,,,,
,,,,,,,,,,zuxin,1,2024-06-29_10h00.44.555,DCT_v1_online,2021.2.3,Win32,60.31726883,,,0.217,2.133,293,up,1,0.5855,left,1,0.8292,2.283,0,20,20,72,1,73,incongruent,up,up,congruent,Stim/Aincon.png,up,0,0.1,0,5,100,incongruent,left,left,congruent,Stim/Aincon.png,left,-0.1,0,90,5,2000,stimuli\\,,,,,,,,,,,,
,,,,,,,,,,zuxin,1,2024-06-29_10h00.44.555,DCT_v1_online,2021.2.3,Win32,60.31726883,,,0.291,2.959,294,up,1,0.5304,left,1,0.4399,2.209,0,21,21,1,1,2,congruent,up,up,congruent,Stim/Acon.png,up,0,0.1,0,1,1000,congruent,left,left,congruent,Stim/Acon.png,left,-0.1,0,90,1,2000,stimuli\\,,,,,,,,,,,,
,,,,,,,,,,zuxin,1,2024-06-29_10h00.44.555,DCT_v1_online,2021.2.3,Win32,60.31726883,,,0.131,3.119,295,up,1,0.8063,left,1,0.5497,2.369,0,22,22,37,1,38,congruent,down,up,incongruent,Stim/Acon.png,up,0,-0.1,0,3,1000,congruent,right,left,incongruent,Stim/Acon.png,left,0.1,0,90,3,2000,stimuli\\,,,,,,,,,,,,
,,,,,,,,,,zuxin,1,2024-06-29_10h00.44.555,DCT_v1_online,2021.2.3,Win32,60.31726883,,,0.142,2.208,296,up,1,0.716,left,1,0.9408,2.358,0,23,23,12,1,13,congruent,up,up,congruent,Stim/Acon.png,up,0,0.1,0,1,100,incongruent,right,left,incongruent,Stim/Aincon.png,left,0.1,0,90,7,2000,stimuli\\,,,,,,,,,,,,
,,,,,,,,,,zuxin,1,2024-06-29_10h00.44.555,DCT_v1_online,2021.2.3,Win32,60.31726883,,,0.127,2.223,297,up,1,0.6798,left,1,0.8901,2.373,0,24,24,100,1,101,incongruent,down,up,incongruent,Stim/Aincon.png,up,0,-0.1,0,7,100,congruent,right,left,incongruent,Stim/Acon.png,left,0.1,0,90,3,2000,stimuli\\,,,,,,,,,,,,
,,,,,,,,,,zuxin,1,2024-06-29_10h00.44.555,DCT_v1_online,2021.2.3,Win32,60.31726883,,,0.32,2.03,298,up,1,0.5551,right,1,0.7093,2.18,0,25,25,66,1,67,incongruent,up,up,congruent,Stim/Aincon.png,up,0,0.1,0,5,100,congruent,left,right,incongruent,Stim/Acon.png,right,-0.1,0,-90,2,2000,stimuli\\,,,,,,,,,,,,
,,,,,,,,,,zuxin,1,2024-06-29_10h00.44.555,DCT_v1_online,2021.2.3,Win32,60.31726883,,,0.004,3.246,299,up,1,0.6604,right,1,0.4983,2.496,0,26,26,75,1,76,incongruent,up,up,congruent,Stim/Aincon.png,up,0,0.1,0,5,1000,incongruent,left,right,incongruent,Stim/Aincon.png,right,-0.1,0,-90,6,2000,stimuli\\,,,,,,,,,,,,
,,,,,,,,,,zuxin,1,2024-06-29_10h00.44.555,DCT_v1_online,2021.2.3,Win32,60.31726883,,,0.385,1.965,300,down,1,0.6966,left,1,0.8456,2.115,0,27,27,16,1,17,congruent,up,down,incongruent,Stim/Acon.png,down,0,0.1,180,2,100,congruent,left,left,congruent,Stim/Acon.png,left,-0.1,0,90,1,2000,stimuli\\,,,,,,,,,,,,
,,,,,,,,,,zuxin,1,2024-06-29_10h00.44.555,DCT_v1_online,2021.2.3,Win32,60.31726883,,,0.035,2.315,301,down,1,0.9353,left,1,1.079,2.465,0,28,28,80,1,81,incongruent,up,down,incongruent,Stim/Aincon.png,down,0,0.1,180,6,100,congruent,left,left,congruent,Stim/Acon.png,left,-0.1,0,90,1,2000,stimuli\\,,,,,,,,,,,,
,,,,,,,,,,zuxin,1,2024-06-29_10h00.44.555,DCT_v1_online,2021.2.3,Win32,60.31726883,,,0.384,2.866,302,down,1,0.6446,right,1,0.5898,2.116,0,29,29,119,1,120,incongruent,down,down,congruent,Stim/Aincon.png,down,0,-0.1,180,8,1000,congruent,right,right,congruent,Stim/Acon.png,right,0.1,0,-90,4,2000,stimuli\\,,,,,,,,,,,,
,,,,,,,,,,zuxin,1,2024-06-29_10h00.44.555,DCT_v1_online,2021.2.3,Win32,60.31726883,,,0.051,3.199,303,down,1,0.5569,left,1,0.4925,2.449,0,30,30,53,1,54,congruent,down,down,congruent,Stim/Acon.png,down,0,-0.1,180,4,1000,congruent,right,left,incongruent,Stim/Acon.png,left,0.1,0,90,3,2000,stimuli\\,,,,,,,,,,,,
,,,,,,,,,,zuxin,1,2024-06-29_10h00.44.555,DCT_v1_online,2021.2.3,Win32,60.31726883,,,0.462,1.888,304,up,1,0.723,left,1,0.9592,2.038,0,31,31,44,1,45,congruent,down,up,incongruent,Stim/Acon.png,up,0,-0.1,0,3,100,incongruent,right,left,incongruent,Stim/Aincon.png,left,0.1,0,90,7,2000,stimuli\\,,,,,,,,,,,,
,,,,,,,,,,zuxin,1,2024-06-29_10h00.44.555,DCT_v1_online,2021.2.3,Win32,60.31726883,,,0.254,2.996,305,up,1,0.6202,right,1,0.4121,2.246,0,32,32,3,1,4,congruent,up,up,congruent,Stim/Acon.png,up,0,0.1,0,1,1000,congruent,left,right,incongruent,Stim/Acon.png,right,-0.1,0,-90,2,2000,stimuli\\,,,,,,,,,,,,
,,,,,,,,,,zuxin,1,2024-06-29_10h00.44.555,DCT_v1_online,2021.2.3,Win32,60.31726883,,,0.174,3.076,306,down,1,0.5852,left,1,0.4892,2.326,0,33,33,121,1,122,incongruent,down,down,congruent,Stim/Aincon.png,down,0,-0.1,180,8,1000,incongruent,left,left,congruent,Stim/Aincon.png,left,-0.1,0,90,5,2000,stimuli\\,,,,,,,,,,,,
,,,,,,,,,,zuxin,1,2024-06-29_10h00.44.555,DCT_v1_online,2021.2.3,Win32,60.31726883,,,0.345,2.005,307,down,1,0.9203,right,1,1.0264,2.155,0,34,34,114,1,115,incongruent,down,down,congruent,Stim/Aincon.png,down,0,-0.1,180,8,100,congruent,left,right,incongruent,Stim/Acon.png,right,-0.1,0,-90,2,2000,stimuli\\,,,,,,,,,,,,
,,,,,,,,,,zuxin,1,2024-06-29_10h00.44.555,DCT_v1_online,2021.2.3,Win32,60.31726883,,,0.442,2.808,308,down,1,0.7268,left,1,0.4567,2.058,0,35,35,113,1,114,incongruent,down,down,congruent,Stim/Aincon.png,down,0,-0.1,180,8,1000,congruent,left,left,congruent,Stim/Acon.png,left,-0.1,0,90,1,2000,stimuli\\,,,,,,,,,,,,
,,,,,,,,,,zuxin,1,2024-06-29_10h00.44.555,DCT_v1_online,2021.2.3,Win32,60.31726883,,,0.177,2.173,309,up,1,0.7504,right,1,0.9721,2.323,0,36,36,74,1,75,incongruent,up,up,congruent,Stim/Aincon.png,up,0,0.1,0,5,100,incongruent,left,right,incongruent,Stim/Aincon.png,right,-0.1,0,-90,6,2000,stimuli\\,,,,,,,,,,,,
,,,,,,,,,,zuxin,1,2024-06-29_10h00.44.555,DCT_v1_online,2021.2.3,Win32,60.31726883,,,0.007,2.343,310,down,1,0.7994,right,1,0.9033,2.493,0,37,37,50,1,51,congruent,down,down,congruent,Stim/Acon.png,down,0,-0.1,180,4,100,congruent,left,right,incongruent,Stim/Acon.png,right,-0.1,0,-90,2,2000,stimuli\\,,,,,,,,,,,,
,,,,,,,,,,zuxin,1,2024-06-29_10h00.44.555,DCT_v1_online,2021.2.3,Win32,60.31726883,,,0.14,3.11,311,up,1,0.568,right,1,0.5835,2.36,0,38,38,11,1,12,congruent,up,up,congruent,Stim/Acon.png,up,0,0.1,0,1,1000,incongruent,left,right,incongruent,Stim/Aincon.png,right,-0.1,0,-90,6,2000,stimuli\\,,,,,,,,,,,,
,,,,,,,,,,zuxin,1,2024-06-29_10h00.44.555,DCT_v1_online,2021.2.3,Win32,60.31726883,,,0.148,3.102,312,down,1,0.5046,right,1,0.6544,2.352,0,39,39,95,1,96,incongruent,up,down,incongruent,Stim/Aincon.png,down,0,0.1,180,6,1000,incongruent,right,right,congruent,Stim/Aincon.png,right,0.1,0,-90,8,2000,stimuli\\,,,,,,,,,,,,
,,,,,,,,,,zuxin,1,2024-06-29_10h00.44.555,DCT_v1_online,2021.2.3,Win32,60.31726883,,,0.428,1.922,313,down,1,0.5008,left,1,0.9864,2.072,0,40,40,92,1,93,incongruent,up,down,incongruent,Stim/Aincon.png,down,0,0.1,180,6,100,incongruent,right,left,incongruent,Stim/Aincon.png,left,0.1,0,90,7,2000,stimuli\\,,,,,,,,,,,,
,,,,,,,,,,zuxin,1,2024-06-29_10h00.44.555,DCT_v1_online,2021.2.3,Win32,60.31726883,,,0.389,2.861,314,down,1,0.6815,right,1,0.5685,2.111,0,41,41,59,1,60,congruent,down,down,congruent,Stim/Acon.png,down,0,-0.1,180,4,1000,incongruent,left,right,incongruent,Stim/Aincon.png,right,-0.1,0,-90,6,2000,stimuli\\,,,,,,,,,,,,
,,,,,,,,,,zuxin,1,2024-06-29_10h00.44.555,DCT_v1_online,2021.2.3,Win32,60.31726883,,,0.1,2.25,315,up,1,0.7292,left,1,0.8617,2.4,0,42,42,0,1,1,congruent,up,up,congruent,Stim/Acon.png,up,0,0.1,0,1,100,congruent,left,left,congruent,Stim/Acon.png,left,-0.1,0,90,1,2000,stimuli\\,,,,,,,,,,,,
,,,,,,,,,,zuxin,1,2024-06-29_10h00.44.555,DCT_v1_online,2021.2.3,Win32,60.31726883,,,0.432,1.918,316,down,1,0.6278,right,1,0.8242,2.068,0,43,43,90,1,91,incongruent,up,down,incongruent,Stim/Aincon.png,down,0,0.1,180,6,100,incongruent,left,right,incongruent,Stim/Aincon.png,right,-0.1,0,-90,6,2000,stimuli\\,,,,,,,,,,,,
,,,,,,,,,,zuxin,1,2024-06-29_10h00.44.555,DCT_v1_online,2021.2.3,Win32,60.31726883,,,0.195,3.055,317,down,1,0.5841,left,1,0.5655,2.305,0,44,44,21,1,22,congruent,up,down,incongruent,Stim/Acon.png,down,0,0.1,180,2,1000,congruent,right,left,incongruent,Stim/Acon.png,left,0.1,0,90,3,2000,stimuli\\,,,,,,,,,,,,
,,,,,,,,,,zuxin,1,2024-06-29_10h00.44.555,DCT_v1_online,2021.2.3,Win32,60.31726883,,,0.392,1.958,318,down,1,0.5225,left,1,0.7803,2.108,0,45,45,24,1,25,congruent,up,down,incongruent,Stim/Acon.png,down,0,0.1,180,2,100,incongruent,left,left,congruent,Stim/Aincon.png,left,-0.1,0,90,5,2000,stimuli\\,,,,,,,,,,,,
