﻿key_resp.keys,key_resp.rt,trials_2.thisRepN,trials_2.thisTrialN,trials_2.thisN,trials_2.thisIndex,trials_2.ran,stim_ins,size_insrx,size_insry,name,session,date,expName,psychopyVersion,OS,frameRate,key_resp_2.keys,key_resp_2.rt,注视点1,试次呈现时间+注视点2,count,key_resp_T1.keys,key_resp_T1.corr,key_resp_T1.rt,key_resp_T2.keys,key_resp_T2.corr,key_resp_T2.rt,注视点2,trials.thisRepN,trials.thisTrialN,trials.thisN,trials.thisIndex,trials.ran,TrialNumber,FlankerConditionT1,LocationT1,DirectionT1,LocationConditionT1,ImageT1,CorrectAnswerT1,PositionT1x,PositionT1y,anglefilpT1,ConditionT1,IntervalT1toT2,FlankerConditionT2,LocationT2,DirectionT2,LocationConditionT2,ImageT2,CorrectAnswerT2,PositionT2x,PositionT2y,anglefilpT2,ConditionT2,DurationFixation,TargetFilePath,key_resp_3.keys,key_resp_3.rt,trials_3.thisRepN,trials_3.thisTrialN,trials_3.thisN,trials_3.thisIndex,trials_3.ran,instr_p_t,block_type,cond,size_p_tx,size_p_ty
space,5.036,0,0,0,0,1,Instructions/i1.png,1,0.4,zyx,1,2024-06-28_18h58.40.830,DCT_v1_online,2021.2.3,Win32,60.04563468,,,,,,,,,,,,,,,,,,,,,,,,,,,,,,,,,,,,,,,,,,,,,,,,,,,,,
space,7.6602,0,1,1,1,1,Instructions/i2.png,1.4,0.85,zyx,1,2024-06-28_18h58.40.830,DCT_v1_online,2021.2.3,Win32,60.04563468,,,,,,,,,,,,,,,,,,,,,,,,,,,,,,,,,,,,,,,,,,,,,,,,,,,,,
space,0.92,0,2,2,2,1,Instructions/i3.png,1.2,0.85,zyx,1,2024-06-28_18h58.40.830,DCT_v1_online,2021.2.3,Win32,60.04563468,,,,,,,,,,,,,,,,,,,,,,,,,,,,,,,,,,,,,,,,,,,,,,,,,,,,,
,,,,,,,,,,zyx,1,2024-06-28_18h58.40.830,DCT_v1_online,2021.2.3,Win32,60.04563468,space,1.7662,0.189,3.061,1,up,1,1.1454,left,1,0.9188,2.311,0,0,0,13,1,112,incongruent,down,up,incongruent,Stim/Aincon.png,up,0,-0.1,0,7,1000,incongruent,right,left,congruent,Stim/Aincon.png,left,0.1,0,90,8,2000,stimuli\\,,,,,,,,,,,,
,,,,,,,,,,zyx,1,2024-06-28_18h58.40.830,DCT_v1_online,2021.2.3,Win32,60.04563468,,,0.442,1.908,2,down,1,0.885,left,1,1.1035,2.058,0,1,1,6,1,49,congruent,down,down,congruent,Stim/Acon.png,down,0,-0.1,180,4,100,incongruent,left,left,congruent,Stim/Aincon.png,left,-0.1,0,90,1,2000,stimuli\\,,,,,,,,,,,,
,,,,,,,,,,zyx,1,2024-06-28_18h58.40.830,DCT_v1_online,2021.2.3,Win32,60.04563468,,,0.04,3.21,3,down,1,0.7342,right,1,0.5777,2.46,0,2,2,11,1,82,incongruent,up,down,incongruent,Stim/Aincon.png,down,0,0.1,180,6,1000,congruent,left,right,congruent,Stim/Acon.png,right,-0.1,0,-90,1,2000,stimuli\\,,,,,,,,,,,,
,,,,,,,,,,zyx,1,2024-06-28_18h58.40.830,DCT_v1_online,2021.2.3,Win32,60.04563468,,,0.04,3.21,4,up,1,0.6178,left,1,0.6886,2.46,0,3,3,5,1,34,congruent,down,up,incongruent,Stim/Acon.png,up,0,-0.1,0,3,1000,incongruent,left,left,congruent,Stim/Aincon.png,left,-0.1,0,90,1,2000,stimuli\\,,,,,,,,,,,,
,,,,,,,,,,zyx,1,2024-06-28_18h58.40.830,DCT_v1_online,2021.2.3,Win32,60.04563468,,,0.351,1.999,5,up,1,0.9106,left,1,1.026,2.149,0,4,4,12,1,111,incongruent,down,up,incongruent,Stim/Aincon.png,up,0,-0.1,0,7,100,incongruent,right,left,congruent,Stim/Aincon.png,left,0.1,0,90,8,2000,stimuli\\,,,,,,,,,,,,
,,,,,,,,,,zyx,1,2024-06-28_18h58.40.830,DCT_v1_online,2021.2.3,Win32,60.04563468,,,0.314,2.036,6,down,1,1.0845,right,1,0.7521,2.186,0,5,5,14,1,113,incongruent,down,down,congruent,Stim/Aincon.png,down,0,-0.1,180,8,100,incongruent,left,right,congruent,Stim/Aincon.png,right,-0.1,0,-90,1,2000,stimuli\\,,,,,,,,,,,,
,,,,,,,,,,zyx,1,2024-06-28_18h58.40.830,DCT_v1_online,2021.2.3,Win32,60.04563468,,,0.347,2.003,7,up,1,0.6372,right,1,0.7503,2.153,0,6,6,8,1,65,incongruent,up,up,congruent,Stim/Aincon.png,up,0,0.1,0,5,100,congruent,left,right,congruent,Stim/Acon.png,right,-0.1,0,-90,1,2000,stimuli\\,,,,,,,,,,,,
,,,,,,,,,,zyx,1,2024-06-28_18h58.40.830,DCT_v1_online,2021.2.3,Win32,60.04563468,,,0.147,3.103,8,down,1,0.6216,left,1,0.5857,2.353,0,7,7,7,1,50,congruent,down,down,congruent,Stim/Acon.png,down,0,-0.1,180,4,1000,incongruent,left,left,congruent,Stim/Aincon.png,left,-0.1,0,90,1,2000,stimuli\\,,,,,,,,,,,,
,,,,,,,,,,zyx,1,2024-06-28_18h58.40.830,DCT_v1_online,2021.2.3,Win32,60.04563468,,,0.396,2.854,9,up,1,0.5498,right,1,0.5255,2.104,0,8,8,1,1,2,congruent,up,up,congruent,Stim/Acon.png,up,0,0.1,0,1,1000,congruent,left,right,congruent,Stim/Acon.png,right,-0.1,0,-90,1,2000,stimuli\\,,,,,,,,,,,,
,,,,,,,,,,zyx,1,2024-06-28_18h58.40.830,DCT_v1_online,2021.2.3,Win32,60.04563468,,,0.381,1.969,10,up,1,0.7191,left,1,0.8915,2.119,0,9,9,4,1,33,congruent,down,up,incongruent,Stim/Acon.png,up,0,-0.1,0,3,100,incongruent,left,left,congruent,Stim/Aincon.png,left,-0.1,0,90,1,2000,stimuli\\,,,,,,,,,,,,
,,,,,,,,,,zyx,1,2024-06-28_18h58.40.830,DCT_v1_online,2021.2.3,Win32,60.04563468,,,0.416,2.834,11,up,1,0.5909,right,1,0.4852,2.084,0,10,10,9,1,66,incongruent,up,up,congruent,Stim/Aincon.png,up,0,0.1,0,5,1000,congruent,left,right,congruent,Stim/Acon.png,right,-0.1,0,-90,1,2000,stimuli\\,,,,,,,,,,,,
,,,,,,,,,,zyx,1,2024-06-28_18h58.40.830,DCT_v1_online,2021.2.3,Win32,60.04563468,,,0.097,2.253,12,up,1,0.5271,right,1,0.6675,2.403,0,11,11,0,1,1,congruent,up,up,congruent,Stim/Acon.png,up,0,0.1,0,1,100,congruent,left,right,congruent,Stim/Acon.png,right,-0.1,0,-90,1,2000,stimuli\\,,,,,,,,,,,,
,,,,,,,,,,zyx,1,2024-06-28_18h58.40.830,DCT_v1_online,2021.2.3,Win32,60.04563468,,,0.15,3.1,13,down,1,0.7197,left,0,0.4896,2.35,0,12,12,15,1,114,incongruent,down,down,congruent,Stim/Aincon.png,down,0,-0.1,180,8,1000,incongruent,left,right,congruent,Stim/Aincon.png,right,-0.1,0,-90,1,2000,stimuli\\,,,,,,,,,,,,
,,,,,,,,,,zyx,1,2024-06-28_18h58.40.830,DCT_v1_online,2021.2.3,Win32,60.04563468,,,0.064,2.286,14,down,1,0.7174,right,1,0.8021,2.436,0,13,13,10,1,81,incongruent,up,down,incongruent,Stim/Aincon.png,down,0,0.1,180,6,100,congruent,left,right,congruent,Stim/Acon.png,right,-0.1,0,-90,1,2000,stimuli\\,,,,,,,,,,,,
,,,,,,,,,,zyx,1,2024-06-28_18h58.40.830,DCT_v1_online,2021.2.3,Win32,60.04563468,,,0.208,2.142,15,down,1,0.6266,right,1,0.7028,2.292,0,14,14,2,1,17,congruent,up,down,incongruent,Stim/Acon.png,down,0,0.1,180,2,100,congruent,left,right,congruent,Stim/Acon.png,right,-0.1,0,-90,1,2000,stimuli\\,,,,,,,,,,,,
,,,,,,,,,,zyx,1,2024-06-28_18h58.40.830,DCT_v1_online,2021.2.3,Win32,60.04563468,,,0.168,3.082,16,down,1,0.6272,right,1,0.4725,2.332,0,15,15,3,1,18,congruent,up,down,incongruent,Stim/Acon.png,down,0,0.1,180,2,1000,congruent,left,right,congruent,Stim/Acon.png,right,-0.1,0,-90,1,2000,stimuli\\,,,,,,,,,,,,
,,,,,,,,,,zyx,1,2024-06-28_18h58.40.830,DCT_v1_online,2021.2.3,Win32,60.04563468,,,,,,,,,,,,,,,,,,,,,,,,,,,,,,,,,,,,,,,,,,space,3.1917,0,0,0,0,1,Instructions/i4.png,pra,conditions/blockpra.xlsx,0.8,0.45
,,,,,,,,,,zyx,1,2024-06-28_18h58.40.830,DCT_v1_online,2021.2.3,Win32,60.04563468,space,7.2724,0.499,2.751,17,up,1,0.5826,right,1,0.7438,2.001,0,0,0,47,1,48,congruent,down,up,incongruent,Stim/Acon.png,up,0,-0.1,0,3,1000,incongruent,right,right,congruent,Stim/Aincon.png,right,0.1,0,-90,8,2000,stimuli\\,,,,,,,,,,,,
,,,,,,,,,,zyx,1,2024-06-28_18h58.40.830,DCT_v1_online,2021.2.3,Win32,60.04563468,,,0.217,3.033,18,up,1,0.5083,right,1,0.5062,2.283,0,1,1,67,1,68,incongruent,up,up,congruent,Stim/Aincon.png,up,0,0.1,0,5,1000,congruent,left,right,incongruent,Stim/Acon.png,right,-0.1,0,-90,2,2000,stimuli\\,,,,,,,,,,,,
,,,,,,,,,,zyx,1,2024-06-28_18h58.40.830,DCT_v1_online,2021.2.3,Win32,60.04563468,,,0.188,2.162,19,up,1,0.7526,right,1,0.8942,2.312,0,2,2,98,1,99,incongruent,down,up,incongruent,Stim/Aincon.png,up,0,-0.1,0,7,100,congruent,left,right,incongruent,Stim/Acon.png,right,-0.1,0,-90,2,2000,stimuli\\,,,,,,,,,,,,
,,,,,,,,,,zyx,1,2024-06-28_18h58.40.830,DCT_v1_online,2021.2.3,Win32,60.04563468,,,0.034,3.216,20,down,1,0.6746,right,1,0.5694,2.466,0,3,3,59,1,60,congruent,down,down,congruent,Stim/Acon.png,down,0,-0.1,180,4,1000,incongruent,left,right,incongruent,Stim/Aincon.png,right,-0.1,0,-90,6,2000,stimuli\\,,,,,,,,,,,,
,,,,,,,,,,zyx,1,2024-06-28_18h58.40.830,DCT_v1_online,2021.2.3,Win32,60.04563468,,,0.315,2.035,21,down,1,0.57,left,1,0.7863,2.185,0,4,4,92,1,93,incongruent,up,down,incongruent,Stim/Aincon.png,down,0,0.1,180,6,100,incongruent,right,left,incongruent,Stim/Aincon.png,left,0.1,0,90,7,2000,stimuli\\,,,,,,,,,,,,
,,,,,,,,,,zyx,1,2024-06-28_18h58.40.830,DCT_v1_online,2021.2.3,Win32,60.04563468,,,0.163,2.187,22,up,1,0.5375,left,1,0.8173,2.337,0,5,5,72,1,73,incongruent,up,up,congruent,Stim/Aincon.png,up,0,0.1,0,5,100,incongruent,left,left,congruent,Stim/Aincon.png,left,-0.1,0,90,5,2000,stimuli\\,,,,,,,,,,,,
,,,,,,,,,,zyx,1,2024-06-28_18h58.40.830,DCT_v1_online,2021.2.3,Win32,60.04563468,,,0.049,2.301,23,up,1,0.6341,left,1,0.7522,2.451,0,6,6,76,1,77,incongruent,up,up,congruent,Stim/Aincon.png,up,0,0.1,0,5,100,incongruent,right,left,incongruent,Stim/Aincon.png,left,0.1,0,90,7,2000,stimuli\\,,,,,,,,,,,,
,,,,,,,,,,zyx,1,2024-06-28_18h58.40.830,DCT_v1_online,2021.2.3,Win32,60.04563468,,,0.246,3.004,24,down,1,0.6687,right,1,0.526,2.254,0,7,7,55,1,56,congruent,down,down,congruent,Stim/Acon.png,down,0,-0.1,180,4,1000,congruent,right,right,congruent,Stim/Acon.png,right,0.1,0,-90,4,2000,stimuli\\,,,,,,,,,,,,
,,,,,,,,,,zyx,1,2024-06-28_18h58.40.830,DCT_v1_online,2021.2.3,Win32,60.04563468,,,0.216,2.134,25,up,1,0.7028,left,0,0.778,2.284,0,8,8,42,1,43,congruent,down,up,incongruent,Stim/Acon.png,up,0,-0.1,0,3,100,incongruent,left,right,incongruent,Stim/Aincon.png,right,-0.1,0,-90,6,2000,stimuli\\,,,,,,,,,,,,
,,,,,,,,,,zyx,1,2024-06-28_18h58.40.830,DCT_v1_online,2021.2.3,Win32,60.04563468,,,0.001,2.349,26,down,1,0.6872,right,1,0.8022,2.499,0,9,9,18,1,19,congruent,up,down,incongruent,Stim/Acon.png,down,0,0.1,180,2,100,congruent,left,right,incongruent,Stim/Acon.png,right,-0.1,0,-90,2,2000,stimuli\\,,,,,,,,,,,,
,,,,,,,,,,zyx,1,2024-06-28_18h58.40.830,DCT_v1_online,2021.2.3,Win32,60.04563468,,,0.077,3.173,27,up,0,0.5891,left,1,0.484,2.423,0,10,10,113,1,114,incongruent,down,down,congruent,Stim/Aincon.png,down,0,-0.1,180,8,1000,congruent,left,left,congruent,Stim/Acon.png,left,-0.1,0,90,1,2000,stimuli\\,,,,,,,,,,,,
,,,,,,,,,,zyx,1,2024-06-28_18h58.40.830,DCT_v1_online,2021.2.3,Win32,60.04563468,,,0.442,2.808,28,down,1,0.6011,right,1,0.485,2.058,0,11,11,83,1,84,incongruent,up,down,incongruent,Stim/Aincon.png,down,0,0.1,180,6,1000,congruent,left,right,incongruent,Stim/Acon.png,right,-0.1,0,-90,2,2000,stimuli\\,,,,,,,,,,,,
,,,,,,,,,,zyx,1,2024-06-28_18h58.40.830,DCT_v1_online,2021.2.3,Win32,60.04563468,,,0.447,2.803,29,down,1,0.7593,left,1,0.4894,2.053,0,12,12,117,1,118,incongruent,down,down,congruent,Stim/Aincon.png,down,0,-0.1,180,8,1000,congruent,right,left,incongruent,Stim/Acon.png,left,0.1,0,90,3,2000,stimuli\\,,,,,,,,,,,,
,,,,,,,,,,zyx,1,2024-06-28_18h58.40.830,DCT_v1_online,2021.2.3,Win32,60.04563468,,,0.357,2.893,30,down,1,0.4672,right,1,0.4532,2.143,0,13,13,23,1,24,congruent,up,down,incongruent,Stim/Acon.png,down,0,0.1,180,2,1000,congruent,right,right,congruent,Stim/Acon.png,right,0.1,0,-90,4,2000,stimuli\\,,,,,,,,,,,,
,,,,,,,,,,zyx,1,2024-06-28_18h58.40.830,DCT_v1_online,2021.2.3,Win32,60.04563468,,,0.095,3.155,31,down,1,0.6173,right,0,0.5361,2.405,0,14,14,61,1,62,congruent,down,down,congruent,Stim/Acon.png,down,0,-0.1,180,4,1000,incongruent,right,left,incongruent,Stim/Aincon.png,left,0.1,0,90,7,2000,stimuli\\,,,,,,,,,,,,
,,,,,,,,,,zyx,1,2024-06-28_18h58.40.830,DCT_v1_online,2021.2.3,Win32,60.04563468,,,0.042,2.308,32,up,1,0.8189,left,1,0.8607,2.458,0,15,15,44,1,45,congruent,down,up,incongruent,Stim/Acon.png,up,0,-0.1,0,3,100,incongruent,right,left,incongruent,Stim/Aincon.png,left,0.1,0,90,7,2000,stimuli\\,,,,,,,,,,,,
,,,,,,,,,,zyx,1,2024-06-28_18h58.40.830,DCT_v1_online,2021.2.3,Win32,60.04563468,,,0.495,2.755,33,up,1,0.5208,left,1,0.5233,2.005,0,16,16,9,1,10,congruent,up,up,congruent,Stim/Acon.png,up,0,0.1,0,1,1000,incongruent,left,left,congruent,Stim/Aincon.png,left,-0.1,0,90,5,2000,stimuli\\,,,,,,,,,,,,
,,,,,,,,,,zyx,1,2024-06-28_18h58.40.830,DCT_v1_online,2021.2.3,Win32,60.04563468,,,0.012,3.238,34,down,1,0.8094,right,1,0.4701,2.488,0,17,17,115,1,116,incongruent,down,down,congruent,Stim/Aincon.png,down,0,-0.1,180,8,1000,congruent,left,right,incongruent,Stim/Acon.png,right,-0.1,0,-90,2,2000,stimuli\\,,,,,,,,,,,,
,,,,,,,,,,zyx,1,2024-06-28_18h58.40.830,DCT_v1_online,2021.2.3,Win32,60.04563468,,,0.139,2.211,35,up,1,0.6014,left,1,0.6791,2.361,0,18,18,8,1,9,congruent,up,up,congruent,Stim/Acon.png,up,0,0.1,0,1,100,incongruent,left,left,congruent,Stim/Aincon.png,left,-0.1,0,90,5,2000,stimuli\\,,,,,,,,,,,,
,,,,,,,,,,zyx,1,2024-06-28_18h58.40.830,DCT_v1_online,2021.2.3,Win32,60.04563468,,,0.46,2.79,36,down,1,0.5656,right,1,0.4897,2.04,0,19,19,19,1,20,congruent,up,down,incongruent,Stim/Acon.png,down,0,0.1,180,2,1000,congruent,left,right,incongruent,Stim/Acon.png,right,-0.1,0,-90,2,2000,stimuli\\,,,,,,,,,,,,
,,,,,,,,,,zyx,1,2024-06-28_18h58.40.830,DCT_v1_online,2021.2.3,Win32,60.04563468,,,0.401,1.949,37,down,1,0.8394,left,1,0.8528,2.099,0,20,20,80,1,81,incongruent,up,down,incongruent,Stim/Aincon.png,down,0,0.1,180,6,100,congruent,left,left,congruent,Stim/Acon.png,left,-0.1,0,90,1,2000,stimuli\\,,,,,,,,,,,,
,,,,,,,,,,zyx,1,2024-06-28_18h58.40.830,DCT_v1_online,2021.2.3,Win32,60.04563468,,,0.302,2.948,38,up,1,0.7175,left,1,0.6013,2.198,0,21,21,73,1,74,incongruent,up,up,congruent,Stim/Aincon.png,up,0,0.1,0,5,1000,incongruent,left,left,congruent,Stim/Aincon.png,left,-0.1,0,90,5,2000,stimuli\\,,,,,,,,,,,,
,,,,,,,,,,zyx,1,2024-06-28_18h58.40.830,DCT_v1_online,2021.2.3,Win32,60.04563468,,,0.342,2.908,39,down,1,0.6944,right,1,0.6611,2.158,0,22,22,91,1,92,incongruent,up,down,incongruent,Stim/Aincon.png,down,0,0.1,180,6,1000,incongruent,left,right,incongruent,Stim/Aincon.png,right,-0.1,0,-90,6,2000,stimuli\\,,,,,,,,,,,,
,,,,,,,,,,zyx,1,2024-06-28_18h58.40.830,DCT_v1_online,2021.2.3,Win32,60.04563468,,,0.474,2.776,40,down,1,0.6176,left,1,0.4569,2.026,0,23,23,49,1,50,congruent,down,down,congruent,Stim/Acon.png,down,0,-0.1,180,4,1000,congruent,left,left,congruent,Stim/Acon.png,left,-0.1,0,90,1,2000,stimuli\\,,,,,,,,,,,,
,,,,,,,,,,zyx,1,2024-06-28_18h58.40.830,DCT_v1_online,2021.2.3,Win32,60.04563468,,,0.238,3.012,41,up,1,0.6426,right,0,0.5345,2.262,0,24,24,45,1,46,congruent,down,up,incongruent,Stim/Acon.png,up,0,-0.1,0,3,1000,incongruent,right,left,incongruent,Stim/Aincon.png,left,0.1,0,90,7,2000,stimuli\\,,,,,,,,,,,,
,,,,,,,,,,zyx,1,2024-06-28_18h58.40.830,DCT_v1_online,2021.2.3,Win32,60.04563468,,,0.281,2.069,42,down,1,0.6682,left,1,0.6603,2.219,0,25,25,20,1,21,congruent,up,down,incongruent,Stim/Acon.png,down,0,0.1,180,2,100,congruent,right,left,incongruent,Stim/Acon.png,left,0.1,0,90,3,2000,stimuli\\,,,,,,,,,,,,
,,,,,,,,,,zyx,1,2024-06-28_18h58.40.830,DCT_v1_online,2021.2.3,Win32,60.04563468,,,0.455,2.795,43,down,1,0.574,left,1,0.5271,2.045,0,26,26,25,1,26,congruent,up,down,incongruent,Stim/Acon.png,down,0,0.1,180,2,1000,incongruent,left,left,congruent,Stim/Aincon.png,left,-0.1,0,90,5,2000,stimuli\\,,,,,,,,,,,,
,,,,,,,,,,zyx,1,2024-06-28_18h58.40.830,DCT_v1_online,2021.2.3,Win32,60.04563468,,,0.033,3.217,44,up,1,0.6342,right,1,0.5515,2.467,0,27,27,35,1,36,congruent,down,up,incongruent,Stim/Acon.png,up,0,-0.1,0,3,1000,congruent,left,right,incongruent,Stim/Acon.png,right,-0.1,0,-90,2,2000,stimuli\\,,,,,,,,,,,,
,,,,,,,,,,zyx,1,2024-06-28_18h58.40.830,DCT_v1_online,2021.2.3,Win32,60.04563468,,,0.341,2.009,45,up,1,0.8049,right,1,0.8862,2.159,0,28,28,34,1,35,congruent,down,up,incongruent,Stim/Acon.png,up,0,-0.1,0,3,100,congruent,left,right,incongruent,Stim/Acon.png,right,-0.1,0,-90,2,2000,stimuli\\,,,,,,,,,,,,
,,,,,,,,,,zyx,1,2024-06-28_18h58.40.830,DCT_v1_online,2021.2.3,Win32,60.04563468,,,0.454,2.796,46,up,1,0.5275,right,1,0.4684,2.046,0,29,29,3,1,4,congruent,up,up,congruent,Stim/Acon.png,up,0,0.1,0,1,1000,congruent,left,right,incongruent,Stim/Acon.png,right,-0.1,0,-90,2,2000,stimuli\\,,,,,,,,,,,,
,,,,,,,,,,zyx,1,2024-06-28_18h58.40.830,DCT_v1_online,2021.2.3,Win32,60.04563468,,,0.441,2.809,47,down,1,0.5518,right,1,0.4762,2.059,0,30,30,87,1,88,incongruent,up,down,incongruent,Stim/Aincon.png,down,0,0.1,180,6,1000,congruent,right,right,congruent,Stim/Acon.png,right,0.1,0,-90,4,2000,stimuli\\,,,,,,,,,,,,
,,,,,,,,,,zyx,1,2024-06-28_18h58.40.830,DCT_v1_online,2021.2.3,Win32,60.04563468,,,0.325,2.925,48,up,1,0.4689,left,1,0.5024,2.175,0,31,31,5,1,6,congruent,up,up,congruent,Stim/Acon.png,up,0,0.1,0,1,1000,congruent,right,left,incongruent,Stim/Acon.png,left,0.1,0,90,3,2000,stimuli\\,,,,,,,,,,,,
,,,,,,,,,,zyx,1,2024-06-28_18h58.40.830,DCT_v1_online,2021.2.3,Win32,60.04563468,,,0.42,1.93,49,up,1,0.5269,left,0,0.5667,2.08,0,32,32,14,1,15,congruent,up,up,congruent,Stim/Acon.png,up,0,0.1,0,1,100,incongruent,right,right,congruent,Stim/Aincon.png,right,0.1,0,-90,8,2000,stimuli\\,,,,,,,,,,,,
,,,,,,,,,,zyx,1,2024-06-28_18h58.40.830,DCT_v1_online,2021.2.3,Win32,60.04563468,,,0.363,2.887,50,down,1,0.5689,left,1,0.5344,2.137,0,33,33,53,1,54,congruent,down,down,congruent,Stim/Acon.png,down,0,-0.1,180,4,1000,congruent,right,left,incongruent,Stim/Acon.png,left,0.1,0,90,3,2000,stimuli\\,,,,,,,,,,,,
,,,,,,,,,,zyx,1,2024-06-28_18h58.40.830,DCT_v1_online,2021.2.3,Win32,60.04563468,,,0.191,3.059,51,down,0,0.6232,left,1,0.7013,2.309,0,34,34,109,1,110,incongruent,down,up,incongruent,Stim/Aincon.png,up,0,-0.1,0,7,1000,incongruent,right,left,incongruent,Stim/Aincon.png,left,0.1,0,90,7,2000,stimuli\\,,,,,,,,,,,,
,,,,,,,,,,zyx,1,2024-06-28_18h58.40.830,DCT_v1_online,2021.2.3,Win32,60.04563468,,,0.224,2.126,52,down,1,0.9284,right,1,1.0018,2.276,0,35,35,114,1,115,incongruent,down,down,congruent,Stim/Aincon.png,down,0,-0.1,180,8,100,congruent,left,right,incongruent,Stim/Acon.png,right,-0.1,0,-90,2,2000,stimuli\\,,,,,,,,,,,,
,,,,,,,,,,zyx,1,2024-06-28_18h58.40.830,DCT_v1_online,2021.2.3,Win32,60.04563468,,,0.048,3.202,53,down,1,0.7518,left,0,0.5362,2.452,0,36,36,127,1,128,incongruent,down,down,congruent,Stim/Aincon.png,down,0,-0.1,180,8,1000,incongruent,right,right,congruent,Stim/Aincon.png,right,0.1,0,-90,8,2000,stimuli\\,,,,,,,,,,,,
,,,,,,,,,,zyx,1,2024-06-28_18h58.40.830,DCT_v1_online,2021.2.3,Win32,60.04563468,,,0.446,2.804,54,down,1,0.7844,left,1,0.456,2.054,0,37,37,81,1,82,incongruent,up,down,incongruent,Stim/Aincon.png,down,0,0.1,180,6,1000,congruent,left,left,congruent,Stim/Acon.png,left,-0.1,0,90,1,2000,stimuli\\,,,,,,,,,,,,
,,,,,,,,,,zyx,1,2024-06-28_18h58.40.830,DCT_v1_online,2021.2.3,Win32,60.04563468,,,0.404,1.946,55,up,1,0.9595,left,1,0.9928,2.096,0,38,38,64,1,65,incongruent,up,up,congruent,Stim/Aincon.png,up,0,0.1,0,5,100,congruent,left,left,congruent,Stim/Acon.png,left,-0.1,0,90,1,2000,stimuli\\,,,,,,,,,,,,
,,,,,,,,,,zyx,1,2024-06-28_18h58.40.830,DCT_v1_online,2021.2.3,Win32,60.04563468,,,0.41,1.94,56,down,1,0.8855,left,0,1.1026,2.09,0,39,39,122,1,123,incongruent,down,down,congruent,Stim/Aincon.png,down,0,-0.1,180,8,100,incongruent,left,right,incongruent,Stim/Aincon.png,right,-0.1,0,-90,6,2000,stimuli\\,,,,,,,,,,,,
,,,,,,,,,,zyx,1,2024-06-28_18h58.40.830,DCT_v1_online,2021.2.3,Win32,60.04563468,,,0.293,2.057,57,up,1,0.7858,right,1,0.8852,2.207,0,40,40,70,1,71,incongruent,up,up,congruent,Stim/Aincon.png,up,0,0.1,0,5,100,congruent,right,right,congruent,Stim/Acon.png,right,0.1,0,-90,4,2000,stimuli\\,,,,,,,,,,,,
,,,,,,,,,,zyx,1,2024-06-28_18h58.40.830,DCT_v1_online,2021.2.3,Win32,60.04563468,,,0.396,2.854,58,up,1,0.6899,left,1,0.3431,2.104,0,41,41,33,1,34,congruent,down,up,incongruent,Stim/Acon.png,up,0,-0.1,0,3,1000,congruent,left,left,congruent,Stim/Acon.png,left,-0.1,0,90,1,2000,stimuli\\,,,,,,,,,,,,
,,,,,,,,,,zyx,1,2024-06-28_18h58.40.830,DCT_v1_online,2021.2.3,Win32,60.04563468,,,0.159,3.091,59,down,1,0.7658,right,1,0.6395,2.341,0,42,42,123,1,124,incongruent,down,down,congruent,Stim/Aincon.png,down,0,-0.1,180,8,1000,incongruent,left,right,incongruent,Stim/Aincon.png,right,-0.1,0,-90,6,2000,stimuli\\,,,,,,,,,,,,
,,,,,,,,,,zyx,1,2024-06-28_18h58.40.830,DCT_v1_online,2021.2.3,Win32,60.04563468,,,0.117,2.233,60,up,1,0.5741,right,1,0.807,2.383,0,43,43,10,1,11,congruent,up,up,congruent,Stim/Acon.png,up,0,0.1,0,1,100,incongruent,left,right,incongruent,Stim/Aincon.png,right,-0.1,0,-90,6,2000,stimuli\\,,,,,,,,,,,,
,,,,,,,,,,zyx,1,2024-06-28_18h58.40.830,DCT_v1_online,2021.2.3,Win32,60.04563468,,,0.137,2.213,61,up,1,0.8196,left,0,0.9916,2.363,0,44,44,110,1,111,incongruent,down,up,incongruent,Stim/Aincon.png,up,0,-0.1,0,7,100,incongruent,right,right,congruent,Stim/Aincon.png,right,0.1,0,-90,8,2000,stimuli\\,,,,,,,,,,,,
,,,,,,,,,,zyx,1,2024-06-28_18h58.40.830,DCT_v1_online,2021.2.3,Win32,60.04563468,,,0.408,1.942,62,up,1,0.8215,left,1,0.9732,2.092,0,45,45,40,1,41,congruent,down,up,incongruent,Stim/Acon.png,up,0,-0.1,0,3,100,incongruent,left,left,congruent,Stim/Aincon.png,left,-0.1,0,90,5,2000,stimuli\\,,,,,,,,,,,,
,,,,,,,,,,zyx,1,2024-06-28_18h58.40.830,DCT_v1_online,2021.2.3,Win32,60.04563468,,,0.182,2.168,63,up,1,0.8025,right,1,0.8828,2.318,0,46,46,66,1,67,incongruent,up,up,congruent,Stim/Aincon.png,up,0,0.1,0,5,100,congruent,left,right,incongruent,Stim/Acon.png,right,-0.1,0,-90,2,2000,stimuli\\,,,,,,,,,,,,
,,,,,,,,,,zyx,1,2024-06-28_18h58.40.830,DCT_v1_online,2021.2.3,Win32,60.04563468,,,0.409,1.941,64,down,1,0.7026,right,1,0.8235,2.091,0,47,47,30,1,31,congruent,up,down,incongruent,Stim/Acon.png,down,0,0.1,180,2,100,incongruent,right,right,congruent,Stim/Aincon.png,right,0.1,0,-90,8,2000,stimuli\\,,,,,,,,,,,,
,,,,,,,,,,zyx,1,2024-06-28_18h58.40.830,DCT_v1_online,2021.2.3,Win32,60.04563468,,,0.42,2.83,65,up,1,0.6608,left,1,0.6041,2.08,0,48,48,41,1,42,congruent,down,up,incongruent,Stim/Acon.png,up,0,-0.1,0,3,1000,incongruent,left,left,congruent,Stim/Aincon.png,left,-0.1,0,90,5,2000,stimuli\\,,,,,,,,,,,,
,,,,,,,,,,zyx,1,2024-06-28_18h58.40.830,DCT_v1_online,2021.2.3,Win32,60.04563468,,,0.308,2.942,66,up,1,0.5189,left,1,0.4049,2.192,0,49,49,1,1,2,congruent,up,up,congruent,Stim/Acon.png,up,0,0.1,0,1,1000,congruent,left,left,congruent,Stim/Acon.png,left,-0.1,0,90,1,2000,stimuli\\,,,,,,,,,,,,
,,,,,,,,,,zyx,1,2024-06-28_18h58.40.830,DCT_v1_online,2021.2.3,Win32,60.04563468,,,0.434,1.916,67,down,1,0.8685,right,0,0.9339,2.066,0,50,50,120,1,121,incongruent,down,down,congruent,Stim/Aincon.png,down,0,-0.1,180,8,100,incongruent,left,left,congruent,Stim/Aincon.png,left,-0.1,0,90,5,2000,stimuli\\,,,,,,,,,,,,
,,,,,,,,,,zyx,1,2024-06-28_18h58.40.830,DCT_v1_online,2021.2.3,Win32,60.04563468,,,0.292,2.058,68,down,1,0.9701,left,1,1.0002,2.208,0,51,51,52,1,53,congruent,down,down,congruent,Stim/Acon.png,down,0,-0.1,180,4,100,congruent,right,left,incongruent,Stim/Acon.png,left,0.1,0,90,3,2000,stimuli\\,,,,,,,,,,,,
,,,,,,,,,,zyx,1,2024-06-28_18h58.40.830,DCT_v1_online,2021.2.3,Win32,60.04563468,,,0.366,1.984,69,down,1,0.8241,right,1,0.9437,2.134,0,52,52,118,1,119,incongruent,down,down,congruent,Stim/Aincon.png,down,0,-0.1,180,8,100,congruent,right,right,congruent,Stim/Acon.png,right,0.1,0,-90,4,2000,stimuli\\,,,,,,,,,,,,
,,,,,,,,,,zyx,1,2024-06-28_18h58.40.830,DCT_v1_online,2021.2.3,Win32,60.04563468,,,0.106,2.244,70,up,1,0.6587,right,1,0.773,2.394,0,53,53,6,1,7,congruent,up,up,congruent,Stim/Acon.png,up,0,0.1,0,1,100,congruent,right,right,congruent,Stim/Acon.png,right,0.1,0,-90,4,2000,stimuli\\,,,,,,,,,,,,
,,,,,,,,,,zyx,1,2024-06-28_18h58.40.830,DCT_v1_online,2021.2.3,Win32,60.04563468,,,0.307,2.043,71,down,1,0.6375,left,0,0.6667,2.193,0,54,54,26,1,27,congruent,up,down,incongruent,Stim/Acon.png,down,0,0.1,180,2,100,incongruent,left,right,incongruent,Stim/Aincon.png,right,-0.1,0,-90,6,2000,stimuli\\,,,,,,,,,,,,
,,,,,,,,,,zyx,1,2024-06-28_18h58.40.830,DCT_v1_online,2021.2.3,Win32,60.04563468,,,0.314,2.936,72,down,1,0.6722,right,1,0.477,2.186,0,55,55,51,1,52,congruent,down,down,congruent,Stim/Acon.png,down,0,-0.1,180,4,1000,congruent,left,right,incongruent,Stim/Acon.png,right,-0.1,0,-90,2,2000,stimuli\\,,,,,,,,,,,,
,,,,,,,,,,zyx,1,2024-06-28_18h58.40.830,DCT_v1_online,2021.2.3,Win32,60.04563468,,,0.157,3.093,73,up,1,0.8053,right,1,0.7509,2.343,0,56,56,111,1,112,incongruent,down,up,incongruent,Stim/Aincon.png,up,0,-0.1,0,7,1000,incongruent,right,right,congruent,Stim/Aincon.png,right,0.1,0,-90,8,2000,stimuli\\,,,,,,,,,,,,
,,,,,,,,,,zyx,1,2024-06-28_18h58.40.830,DCT_v1_online,2021.2.3,Win32,60.04563468,,,0.193,3.057,74,up,1,0.56,left,1,0.4232,2.307,0,57,57,65,1,66,incongruent,up,up,congruent,Stim/Aincon.png,up,0,0.1,0,5,1000,congruent,left,left,congruent,Stim/Acon.png,left,-0.1,0,90,1,2000,stimuli\\,,,,,,,,,,,,
,,,,,,,,,,zyx,1,2024-06-28_18h58.40.830,DCT_v1_online,2021.2.3,Win32,60.04563468,,,0.094,2.256,75,down,0,0.7842,left,1,0.8842,2.406,0,58,58,100,1,101,incongruent,down,up,incongruent,Stim/Aincon.png,up,0,-0.1,0,7,100,congruent,right,left,incongruent,Stim/Acon.png,left,0.1,0,90,3,2000,stimuli\\,,,,,,,,,,,,
,,,,,,,,,,zyx,1,2024-06-28_18h58.40.830,DCT_v1_online,2021.2.3,Win32,60.04563468,,,0.48,2.77,76,down,1,0.5567,left,1,0.5552,2.02,0,59,59,89,1,90,incongruent,up,down,incongruent,Stim/Aincon.png,down,0,0.1,180,6,1000,incongruent,left,left,congruent,Stim/Aincon.png,left,-0.1,0,90,5,2000,stimuli\\,,,,,,,,,,,,
,,,,,,,,,,zyx,1,2024-06-28_18h58.40.830,DCT_v1_online,2021.2.3,Win32,60.04563468,,,0.096,2.254,77,up,1,0.6886,right,1,0.8063,2.404,0,60,60,38,1,39,congruent,down,up,incongruent,Stim/Acon.png,up,0,-0.1,0,3,100,congruent,right,right,congruent,Stim/Acon.png,right,0.1,0,-90,4,2000,stimuli\\,,,,,,,,,,,,
,,,,,,,,,,zyx,1,2024-06-28_18h58.40.830,DCT_v1_online,2021.2.3,Win32,60.04563468,,,0.088,3.162,78,down,1,0.6344,right,1,0.5776,2.412,0,61,61,119,1,120,incongruent,down,down,congruent,Stim/Aincon.png,down,0,-0.1,180,8,1000,congruent,right,right,congruent,Stim/Acon.png,right,0.1,0,-90,4,2000,stimuli\\,,,,,,,,,,,,
,,,,,,,,,,zyx,1,2024-06-28_18h58.40.830,DCT_v1_online,2021.2.3,Win32,60.04563468,,,0.279,2.071,79,down,1,0.6682,right,1,0.7575,2.221,0,62,62,22,1,23,congruent,up,down,incongruent,Stim/Acon.png,down,0,0.1,180,2,100,congruent,right,right,congruent,Stim/Acon.png,right,0.1,0,-90,4,2000,stimuli\\,,,,,,,,,,,,
,,,,,,,,,,zyx,1,2024-06-28_18h58.40.830,DCT_v1_online,2021.2.3,Win32,60.04563468,,,0.062,2.288,80,down,1,0.7324,right,0,0.825,2.438,0,63,63,124,1,125,incongruent,down,down,congruent,Stim/Aincon.png,down,0,-0.1,180,8,100,incongruent,right,left,incongruent,Stim/Aincon.png,left,0.1,0,90,7,2000,stimuli\\,,,,,,,,,,,,
,,,,,,,,,,zyx,1,2024-06-28_18h58.40.830,DCT_v1_online,2021.2.3,Win32,60.04563468,,,0.247,3.003,81,up,1,0.5693,left,0,0.5012,2.253,0,64,64,79,1,80,incongruent,up,up,congruent,Stim/Aincon.png,up,0,0.1,0,5,1000,incongruent,right,right,congruent,Stim/Aincon.png,right,0.1,0,-90,8,2000,stimuli\\,,,,,,,,,,,,
,,,,,,,,,,zyx,1,2024-06-28_18h58.40.830,DCT_v1_online,2021.2.3,Win32,60.04563468,,,0.082,3.168,82,up,1,0.6351,right,1,0.6221,2.418,0,65,65,11,1,12,congruent,up,up,congruent,Stim/Acon.png,up,0,0.1,0,1,1000,incongruent,left,right,incongruent,Stim/Aincon.png,right,-0.1,0,-90,6,2000,stimuli\\,,,,,,,,,,,,
,,,,,,,,,,zyx,1,2024-06-28_18h58.40.830,DCT_v1_online,2021.2.3,Win32,60.04563468,,,0.432,2.818,83,down,1,0.5501,right,0,0.5014,2.068,0,66,66,29,1,30,congruent,up,down,incongruent,Stim/Acon.png,down,0,0.1,180,2,1000,incongruent,right,left,incongruent,Stim/Aincon.png,left,0.1,0,90,7,2000,stimuli\\,,,,,,,,,,,,
,,,,,,,,,,zyx,1,2024-06-28_18h58.40.830,DCT_v1_online,2021.2.3,Win32,60.04563468,,,0.173,2.177,84,down,1,0.6016,right,1,0.8274,2.327,0,67,67,58,1,59,congruent,down,down,congruent,Stim/Acon.png,down,0,-0.1,180,4,100,incongruent,left,right,incongruent,Stim/Aincon.png,right,-0.1,0,-90,6,2000,stimuli\\,,,,,,,,,,,,
,,,,,,,,,,zyx,1,2024-06-28_18h58.40.830,DCT_v1_online,2021.2.3,Win32,60.04563468,,,0.077,2.273,85,down,1,0.8852,right,1,1.0023,2.423,0,68,68,94,1,95,incongruent,up,down,incongruent,Stim/Aincon.png,down,0,0.1,180,6,100,incongruent,right,right,congruent,Stim/Aincon.png,right,0.1,0,-90,8,2000,stimuli\\,,,,,,,,,,,,
,,,,,,,,,,zyx,1,2024-06-28_18h58.40.830,DCT_v1_online,2021.2.3,Win32,60.04563468,,,0.127,3.123,86,up,1,0.5744,right,1,0.5769,2.373,0,69,69,7,1,8,congruent,up,up,congruent,Stim/Acon.png,up,0,0.1,0,1,1000,congruent,right,right,congruent,Stim/Acon.png,right,0.1,0,-90,4,2000,stimuli\\,,,,,,,,,,,,
,,,,,,,,,,zyx,1,2024-06-28_18h58.40.830,DCT_v1_online,2021.2.3,Win32,60.04563468,,,0.361,1.989,87,up,1,0.8176,right,1,0.95,2.139,0,70,70,74,1,75,incongruent,up,up,congruent,Stim/Aincon.png,up,0,0.1,0,5,100,incongruent,left,right,incongruent,Stim/Aincon.png,right,-0.1,0,-90,6,2000,stimuli\\,,,,,,,,,,,,
,,,,,,,,,,zyx,1,2024-06-28_18h58.40.830,DCT_v1_online,2021.2.3,Win32,60.04563468,,,0.161,2.189,88,down,0,1.0927,left,1,1.116,2.339,0,71,71,96,1,97,incongruent,down,up,incongruent,Stim/Aincon.png,up,0,-0.1,0,7,100,congruent,left,left,congruent,Stim/Acon.png,left,-0.1,0,90,1,2000,stimuli\\,,,,,,,,,,,,
,,,,,,,,,,zyx,1,2024-06-28_18h58.40.830,DCT_v1_online,2021.2.3,Win32,60.04563468,,,0.045,3.205,89,up,1,0.6833,right,1,0.497,2.455,0,72,72,99,1,100,incongruent,down,up,incongruent,Stim/Aincon.png,up,0,-0.1,0,7,1000,congruent,left,right,incongruent,Stim/Acon.png,right,-0.1,0,-90,2,2000,stimuli\\,,,,,,,,,,,,
,,,,,,,,,,zyx,1,2024-06-28_18h58.40.830,DCT_v1_online,2021.2.3,Win32,60.04563468,,,0.312,2.038,90,up,1,0.7913,left,1,0.9392,2.188,0,73,73,104,1,105,incongruent,down,up,incongruent,Stim/Aincon.png,up,0,-0.1,0,7,100,incongruent,left,left,congruent,Stim/Aincon.png,left,-0.1,0,90,5,2000,stimuli\\,,,,,,,,,,,,
,,,,,,,,,,zyx,1,2024-06-28_18h58.40.830,DCT_v1_online,2021.2.3,Win32,60.04563468,,,0.366,1.984,91,up,1,0.6866,left,1,0.6999,2.134,0,74,74,0,1,1,congruent,up,up,congruent,Stim/Acon.png,up,0,0.1,0,1,100,congruent,left,left,congruent,Stim/Acon.png,left,-0.1,0,90,1,2000,stimuli\\,,,,,,,,,,,,
,,,,,,,,,,zyx,1,2024-06-28_18h58.40.830,DCT_v1_online,2021.2.3,Win32,60.04563468,,,0.401,1.949,92,up,1,0.7344,left,1,0.7582,2.099,0,75,75,68,1,69,incongruent,up,up,congruent,Stim/Aincon.png,up,0,0.1,0,5,100,congruent,right,left,incongruent,Stim/Acon.png,left,0.1,0,90,3,2000,stimuli\\,,,,,,,,,,,,
,,,,,,,,,,zyx,1,2024-06-28_18h58.40.830,DCT_v1_online,2021.2.3,Win32,60.04563468,,,0.216,3.034,93,down,1,0.6847,right,1,0.7426,2.284,0,76,76,63,1,64,congruent,down,down,congruent,Stim/Acon.png,down,0,-0.1,180,4,1000,incongruent,right,right,congruent,Stim/Aincon.png,right,0.1,0,-90,8,2000,stimuli\\,,,,,,,,,,,,
,,,,,,,,,,zyx,1,2024-06-28_18h58.40.830,DCT_v1_online,2021.2.3,Win32,60.04563468,,,0.428,1.922,94,down,1,0.6683,left,1,0.699,2.072,0,77,77,84,1,85,incongruent,up,down,incongruent,Stim/Aincon.png,down,0,0.1,180,6,100,congruent,right,left,incongruent,Stim/Acon.png,left,0.1,0,90,3,2000,stimuli\\,,,,,,,,,,,,
,,,,,,,,,,zyx,1,2024-06-28_18h58.40.830,DCT_v1_online,2021.2.3,Win32,60.04563468,,,0.176,2.174,95,down,1,0.9595,left,1,1.009,2.324,0,78,78,116,1,117,incongruent,down,down,congruent,Stim/Aincon.png,down,0,-0.1,180,8,100,congruent,right,left,incongruent,Stim/Acon.png,left,0.1,0,90,3,2000,stimuli\\,,,,,,,,,,,,
,,,,,,,,,,zyx,1,2024-06-28_18h58.40.830,DCT_v1_online,2021.2.3,Win32,60.04563468,,,0.115,2.235,96,down,1,0.7856,right,1,0.849,2.385,0,79,79,86,1,87,incongruent,up,down,incongruent,Stim/Aincon.png,down,0,0.1,180,6,100,congruent,right,right,congruent,Stim/Acon.png,right,0.1,0,-90,4,2000,stimuli\\,,,,,,,,,,,,
,,,,,,,,,,zyx,1,2024-06-28_18h58.40.830,DCT_v1_online,2021.2.3,Win32,60.04563468,,,0.428,1.922,97,up,1,1.0048,right,1,1.1336,2.072,0,80,80,102,1,103,incongruent,down,up,incongruent,Stim/Aincon.png,up,0,-0.1,0,7,100,congruent,right,right,congruent,Stim/Acon.png,right,0.1,0,-90,4,2000,stimuli\\,,,,,,,,,,,,
,,,,,,,,,,zyx,1,2024-06-28_18h58.40.830,DCT_v1_online,2021.2.3,Win32,60.04563468,,,0.052,2.298,98,down,1,0.6769,left,0,0.6847,2.448,0,81,81,62,1,63,congruent,down,down,congruent,Stim/Acon.png,down,0,-0.1,180,4,100,incongruent,right,right,congruent,Stim/Aincon.png,right,0.1,0,-90,8,2000,stimuli\\,,,,,,,,,,,,
,,,,,,,,,,zyx,1,2024-06-28_18h58.40.830,DCT_v1_online,2021.2.3,Win32,60.04563468,,,0.439,1.911,99,down,1,0.7505,right,1,0.8431,2.061,0,82,82,50,1,51,congruent,down,down,congruent,Stim/Acon.png,down,0,-0.1,180,4,100,congruent,left,right,incongruent,Stim/Acon.png,right,-0.1,0,-90,2,2000,stimuli\\,,,,,,,,,,,,
,,,,,,,,,,zyx,1,2024-06-28_18h58.40.830,DCT_v1_online,2021.2.3,Win32,60.04563468,,,0.013,2.337,100,,0,,,0,,,0,83,83,82,1,83,incongruent,up,down,incongruent,Stim/Aincon.png,down,0,0.1,180,6,100,congruent,left,right,incongruent,Stim/Acon.png,right,-0.1,0,-90,2,2000,stimuli\\,,,,,,,,,,,,
,,,,,,,,,,zyx,1,2024-06-28_18h58.40.830,DCT_v1_online,2021.2.3,Win32,60.04563468,,,0.272,2.078,101,down,1,0.9097,left,0,1.0547,2.228,0,84,84,90,1,91,incongruent,up,down,incongruent,Stim/Aincon.png,down,0,0.1,180,6,100,incongruent,left,right,incongruent,Stim/Aincon.png,right,-0.1,0,-90,6,2000,stimuli\\,,,,,,,,,,,,
,,,,,,,,,,zyx,1,2024-06-28_18h58.40.830,DCT_v1_online,2021.2.3,Win32,60.04563468,,,0.389,1.961,102,up,1,0.7188,right,1,0.8284,2.111,0,85,85,2,1,3,congruent,up,up,congruent,Stim/Acon.png,up,0,0.1,0,1,100,congruent,left,right,incongruent,Stim/Acon.png,right,-0.1,0,-90,2,2000,stimuli\\,,,,,,,,,,,,
,,,,,,,,,,zyx,1,2024-06-28_18h58.40.830,DCT_v1_online,2021.2.3,Win32,60.04563468,,,0.205,2.145,103,down,1,0.8014,left,0,0.8701,2.295,0,86,86,126,1,127,incongruent,down,down,congruent,Stim/Aincon.png,down,0,-0.1,180,8,100,incongruent,right,right,congruent,Stim/Aincon.png,right,0.1,0,-90,8,2000,stimuli\\,,,,,,,,,,,,
,,,,,,,,,,zyx,1,2024-06-28_18h58.40.830,DCT_v1_online,2021.2.3,Win32,60.04563468,,,0.162,3.088,104,up,1,0.786,left,1,0.5038,2.338,0,87,87,101,1,102,incongruent,down,up,incongruent,Stim/Aincon.png,up,0,-0.1,0,7,1000,congruent,right,left,incongruent,Stim/Acon.png,left,0.1,0,90,3,2000,stimuli\\,,,,,,,,,,,,
,,,,,,,,,,zyx,1,2024-06-28_18h58.40.830,DCT_v1_online,2021.2.3,Win32,60.04563468,,,0.042,2.308,105,up,1,0.7239,left,1,0.787,2.458,0,88,88,32,1,33,congruent,down,up,incongruent,Stim/Acon.png,up,0,-0.1,0,3,100,congruent,left,left,congruent,Stim/Acon.png,left,-0.1,0,90,1,2000,stimuli\\,,,,,,,,,,,,
,,,,,,,,,,zyx,1,2024-06-28_18h58.40.830,DCT_v1_online,2021.2.3,Win32,60.04563468,,,0.39,1.96,106,down,1,0.7728,right,0,0.8562,2.11,0,89,89,60,1,61,congruent,down,down,congruent,Stim/Acon.png,down,0,-0.1,180,4,100,incongruent,right,left,incongruent,Stim/Aincon.png,left,0.1,0,90,7,2000,stimuli\\,,,,,,,,,,,,
,,,,,,,,,,zyx,1,2024-06-28_18h58.40.830,DCT_v1_online,2021.2.3,Win32,60.04563468,,,0.383,1.967,107,down,1,0.7075,left,1,0.7195,2.117,0,90,90,48,1,49,congruent,down,down,congruent,Stim/Acon.png,down,0,-0.1,180,4,100,congruent,left,left,congruent,Stim/Acon.png,left,-0.1,0,90,1,2000,stimuli\\,,,,,,,,,,,,
,,,,,,,,,,zyx,1,2024-06-28_18h58.40.830,DCT_v1_online,2021.2.3,Win32,60.04563468,,,0.414,2.836,108,up,1,0.7239,right,1,0.6227,2.086,0,91,91,75,1,76,incongruent,up,up,congruent,Stim/Aincon.png,up,0,0.1,0,5,1000,incongruent,left,right,incongruent,Stim/Aincon.png,right,-0.1,0,-90,6,2000,stimuli\\,,,,,,,,,,,,
,,,,,,,,,,zyx,1,2024-06-28_18h58.40.830,DCT_v1_online,2021.2.3,Win32,60.04563468,,,0.489,1.861,109,up,1,0.9413,left,1,1.0567,2.011,0,92,92,108,1,109,incongruent,down,up,incongruent,Stim/Aincon.png,up,0,-0.1,0,7,100,incongruent,right,left,incongruent,Stim/Aincon.png,left,0.1,0,90,7,2000,stimuli\\,,,,,,,,,,,,
,,,,,,,,,,zyx,1,2024-06-28_18h58.40.830,DCT_v1_online,2021.2.3,Win32,60.04563468,,,0.052,2.298,110,down,1,0.8886,left,1,0.939,2.448,0,93,93,112,1,113,incongruent,down,down,congruent,Stim/Aincon.png,down,0,-0.1,180,8,100,congruent,left,left,congruent,Stim/Acon.png,left,-0.1,0,90,1,2000,stimuli\\,,,,,,,,,,,,
,,,,,,,,,,zyx,1,2024-06-28_18h58.40.830,DCT_v1_online,2021.2.3,Win32,60.04563468,,,0.197,2.153,111,down,1,0.6006,left,1,0.8742,2.303,0,94,94,24,1,25,congruent,up,down,incongruent,Stim/Acon.png,down,0,0.1,180,2,100,incongruent,left,left,congruent,Stim/Aincon.png,left,-0.1,0,90,5,2000,stimuli\\,,,,,,,,,,,,
,,,,,,,,,,zyx,1,2024-06-28_18h58.40.830,DCT_v1_online,2021.2.3,Win32,60.04563468,,,0.206,3.044,112,down,1,0.5281,left,0,0.7513,2.294,0,95,95,95,1,96,incongruent,up,down,incongruent,Stim/Aincon.png,down,0,0.1,180,6,1000,incongruent,right,right,congruent,Stim/Aincon.png,right,0.1,0,-90,8,2000,stimuli\\,,,,,,,,,,,,
,,,,,,,,,,zyx,1,2024-06-28_18h58.40.830,DCT_v1_online,2021.2.3,Win32,60.04563468,,,0.428,2.822,113,up,1,0.7502,right,1,0.678,2.072,0,96,96,107,1,108,incongruent,down,up,incongruent,Stim/Aincon.png,up,0,-0.1,0,7,1000,incongruent,left,right,incongruent,Stim/Aincon.png,right,-0.1,0,-90,6,2000,stimuli\\,,,,,,,,,,,,
,,,,,,,,,,zyx,1,2024-06-28_18h58.40.830,DCT_v1_online,2021.2.3,Win32,60.04563468,,,0.459,1.891,114,down,1,0.6621,left,1,0.689,2.041,0,97,97,16,1,17,congruent,up,down,incongruent,Stim/Acon.png,down,0,0.1,180,2,100,congruent,left,left,congruent,Stim/Acon.png,left,-0.1,0,90,1,2000,stimuli\\,,,,,,,,,,,,
,,,,,,,,,,zyx,1,2024-06-28_18h58.40.830,DCT_v1_online,2021.2.3,Win32,60.04563468,,,0.364,2.886,115,down,1,0.7021,left,1,0.5882,2.136,0,98,98,21,1,22,congruent,up,down,incongruent,Stim/Acon.png,down,0,0.1,180,2,1000,congruent,right,left,incongruent,Stim/Acon.png,left,0.1,0,90,3,2000,stimuli\\,,,,,,,,,,,,
,,,,,,,,,,zyx,1,2024-06-28_18h58.40.830,DCT_v1_online,2021.2.3,Win32,60.04563468,,,0.195,3.055,116,up,1,0.667,right,1,0.5814,2.305,0,99,99,39,1,40,congruent,down,up,incongruent,Stim/Acon.png,up,0,-0.1,0,3,1000,congruent,right,right,congruent,Stim/Acon.png,right,0.1,0,-90,4,2000,stimuli\\,,,,,,,,,,,,
,,,,,,,,,,zyx,1,2024-06-28_18h58.40.830,DCT_v1_online,2021.2.3,Win32,60.04563468,,,0.105,3.145,117,down,1,0.6208,left,1,0.4525,2.395,0,100,100,17,1,18,congruent,up,down,incongruent,Stim/Acon.png,down,0,0.1,180,2,1000,congruent,left,left,congruent,Stim/Acon.png,left,-0.1,0,90,1,2000,stimuli\\,,,,,,,,,,,,
,,,,,,,,,,zyx,1,2024-06-28_18h58.40.830,DCT_v1_online,2021.2.3,Win32,60.04563468,,,0.229,2.121,118,down,1,0.786,left,1,0.9243,2.271,0,101,101,56,1,57,congruent,down,down,congruent,Stim/Acon.png,down,0,-0.1,180,4,100,incongruent,left,left,congruent,Stim/Aincon.png,left,-0.1,0,90,5,2000,stimuli\\,,,,,,,,,,,,
,,,,,,,,,,zyx,1,2024-06-28_18h58.40.830,DCT_v1_online,2021.2.3,Win32,60.04563468,,,0.462,2.788,119,down,1,0.5242,left,0,0.3662,2.038,0,102,102,27,1,28,congruent,up,down,incongruent,Stim/Acon.png,down,0,0.1,180,2,1000,incongruent,left,right,incongruent,Stim/Aincon.png,right,-0.1,0,-90,6,2000,stimuli\\,,,,,,,,,,,,
,,,,,,,,,,zyx,1,2024-06-28_18h58.40.830,DCT_v1_online,2021.2.3,Win32,60.04563468,,,0.005,3.245,120,up,1,0.75,right,1,0.6679,2.495,0,103,103,71,1,72,incongruent,up,up,congruent,Stim/Aincon.png,up,0,0.1,0,5,1000,congruent,right,right,congruent,Stim/Acon.png,right,0.1,0,-90,4,2000,stimuli\\,,,,,,,,,,,,
,,,,,,,,,,zyx,1,2024-06-28_18h58.40.830,DCT_v1_online,2021.2.3,Win32,60.04563468,,,0.382,1.968,121,up,1,0.8235,right,1,0.9403,2.118,0,104,104,46,1,47,congruent,down,up,incongruent,Stim/Acon.png,up,0,-0.1,0,3,100,incongruent,right,right,congruent,Stim/Aincon.png,right,0.1,0,-90,8,2000,stimuli\\,,,,,,,,,,,,
,,,,,,,,,,zyx,1,2024-06-28_18h58.40.830,DCT_v1_online,2021.2.3,Win32,60.04563468,,,0.451,2.799,122,down,1,0.7231,left,1,0.6014,2.049,0,105,105,85,1,86,incongruent,up,down,incongruent,Stim/Aincon.png,down,0,0.1,180,6,1000,congruent,right,left,incongruent,Stim/Acon.png,left,0.1,0,90,3,2000,stimuli\\,,,,,,,,,,,,
,,,,,,,,,,zyx,1,2024-06-28_18h58.40.830,DCT_v1_online,2021.2.3,Win32,60.04563468,,,0.347,2.903,123,up,1,0.6283,left,0,0.4187,2.153,0,106,106,43,1,44,congruent,down,up,incongruent,Stim/Acon.png,up,0,-0.1,0,3,1000,incongruent,left,right,incongruent,Stim/Aincon.png,right,-0.1,0,-90,6,2000,stimuli\\,,,,,,,,,,,,
,,,,,,,,,,zyx,1,2024-06-28_18h58.40.830,DCT_v1_online,2021.2.3,Win32,60.04563468,,,0.442,2.808,124,up,1,0.567,right,0,0.5032,2.058,0,107,107,13,1,14,congruent,up,up,congruent,Stim/Acon.png,up,0,0.1,0,1,1000,incongruent,right,left,incongruent,Stim/Aincon.png,left,0.1,0,90,7,2000,stimuli\\,,,,,,,,,,,,
,,,,,,,,,,zyx,1,2024-06-28_18h58.40.830,DCT_v1_online,2021.2.3,Win32,60.04563468,,,0.311,2.939,125,down,1,0.5171,right,1,0.7574,2.189,0,108,108,31,1,32,congruent,up,down,incongruent,Stim/Acon.png,down,0,0.1,180,2,1000,incongruent,right,right,congruent,Stim/Aincon.png,right,0.1,0,-90,8,2000,stimuli\\,,,,,,,,,,,,
,,,,,,,,,,zyx,1,2024-06-28_18h58.40.830,DCT_v1_online,2021.2.3,Win32,60.04563468,,,0.126,3.124,126,up,1,0.629,left,1,0.5747,2.374,0,109,109,69,1,70,incongruent,up,up,congruent,Stim/Aincon.png,up,0,0.1,0,5,1000,congruent,right,left,incongruent,Stim/Acon.png,left,0.1,0,90,3,2000,stimuli\\,,,,,,,,,,,,
,,,,,,,,,,zyx,1,2024-06-28_18h58.40.830,DCT_v1_online,2021.2.3,Win32,60.04563468,,,0.18,2.17,127,up,1,0.8758,left,1,0.8872,2.32,0,110,110,36,1,37,congruent,down,up,incongruent,Stim/Acon.png,up,0,-0.1,0,3,100,congruent,right,left,incongruent,Stim/Acon.png,left,0.1,0,90,3,2000,stimuli\\,,,,,,,,,,,,
,,,,,,,,,,zyx,1,2024-06-28_18h58.40.830,DCT_v1_online,2021.2.3,Win32,60.04563468,,,0.105,2.245,128,down,1,0.7679,left,1,0.8597,2.395,0,111,111,28,1,29,congruent,up,down,incongruent,Stim/Acon.png,down,0,0.1,180,2,100,incongruent,right,left,incongruent,Stim/Aincon.png,left,0.1,0,90,7,2000,stimuli\\,,,,,,,,,,,,
,,,,,,,,,,zyx,1,2024-06-28_18h58.40.830,DCT_v1_online,2021.2.3,Win32,60.04563468,,,0.059,3.191,129,down,1,0.7904,left,1,0.5992,2.441,0,112,112,121,1,122,incongruent,down,down,congruent,Stim/Aincon.png,down,0,-0.1,180,8,1000,incongruent,left,left,congruent,Stim/Aincon.png,left,-0.1,0,90,5,2000,stimuli\\,,,,,,,,,,,,
,,,,,,,,,,zyx,1,2024-06-28_18h58.40.830,DCT_v1_online,2021.2.3,Win32,60.04563468,,,0.273,2.077,130,down,1,0.7351,left,1,0.8543,2.227,0,113,113,88,1,89,incongruent,up,down,incongruent,Stim/Aincon.png,down,0,0.1,180,6,100,incongruent,left,left,congruent,Stim/Aincon.png,left,-0.1,0,90,5,2000,stimuli\\,,,,,,,,,,,,
,,,,,,,,,,zyx,1,2024-06-28_18h58.40.830,DCT_v1_online,2021.2.3,Win32,60.04563468,,,0.109,2.241,131,up,1,0.7611,right,1,0.9718,2.391,0,114,114,78,1,79,incongruent,up,up,congruent,Stim/Aincon.png,up,0,0.1,0,5,100,incongruent,right,right,congruent,Stim/Aincon.png,right,0.1,0,-90,8,2000,stimuli\\,,,,,,,,,,,,
,,,,,,,,,,zyx,1,2024-06-28_18h58.40.830,DCT_v1_online,2021.2.3,Win32,60.04563468,,,0.469,2.781,132,up,1,0.7872,left,1,0.4187,2.031,0,115,115,97,1,98,incongruent,down,up,incongruent,Stim/Aincon.png,up,0,-0.1,0,7,1000,congruent,left,left,congruent,Stim/Acon.png,left,-0.1,0,90,1,2000,stimuli\\,,,,,,,,,,,,
,,,,,,,,,,zyx,1,2024-06-28_18h58.40.830,DCT_v1_online,2021.2.3,Win32,60.04563468,,,0.228,2.122,133,up,1,0.7168,left,1,0.8182,2.272,0,116,116,4,1,5,congruent,up,up,congruent,Stim/Acon.png,up,0,0.1,0,1,100,congruent,right,left,incongruent,Stim/Acon.png,left,0.1,0,90,3,2000,stimuli\\,,,,,,,,,,,,
,,,,,,,,,,zyx,1,2024-06-28_18h58.40.830,DCT_v1_online,2021.2.3,Win32,60.04563468,,,0.305,2.945,134,down,1,0.7556,left,1,0.6343,2.195,0,117,117,125,1,126,incongruent,down,down,congruent,Stim/Aincon.png,down,0,-0.1,180,8,1000,incongruent,right,left,incongruent,Stim/Aincon.png,left,0.1,0,90,7,2000,stimuli\\,,,,,,,,,,,,
,,,,,,,,,,zyx,1,2024-06-28_18h58.40.830,DCT_v1_online,2021.2.3,Win32,60.04563468,,,0.189,2.161,135,up,1,0.7457,left,1,0.8167,2.311,0,118,118,12,1,13,congruent,up,up,congruent,Stim/Acon.png,up,0,0.1,0,1,100,incongruent,right,left,incongruent,Stim/Aincon.png,left,0.1,0,90,7,2000,stimuli\\,,,,,,,,,,,,
,,,,,,,,,,zyx,1,2024-06-28_18h58.40.830,DCT_v1_online,2021.2.3,Win32,60.04563468,,,0.335,2.015,136,down,1,0.7026,right,1,0.8185,2.165,0,119,119,54,1,55,congruent,down,down,congruent,Stim/Acon.png,down,0,-0.1,180,4,100,congruent,right,right,congruent,Stim/Acon.png,right,0.1,0,-90,4,2000,stimuli\\,,,,,,,,,,,,
,,,,,,,,,,zyx,1,2024-06-28_18h58.40.830,DCT_v1_online,2021.2.3,Win32,60.04563468,,,0.058,3.192,137,down,1,0.6604,,0,,,0,120,120,57,1,58,congruent,down,down,congruent,Stim/Acon.png,down,0,-0.1,180,4,1000,incongruent,left,left,congruent,Stim/Aincon.png,left,-0.1,0,90,5,2000,stimuli\\,,,,,,,,,,,,
,,,,,,,,,,zyx,1,2024-06-28_18h58.40.830,DCT_v1_online,2021.2.3,Win32,60.04563468,,,0.115,3.135,138,down,0,1.0493,right,1,0.837,2.385,0,121,121,103,1,104,incongruent,down,up,incongruent,Stim/Aincon.png,up,0,-0.1,0,7,1000,congruent,right,right,congruent,Stim/Acon.png,right,0.1,0,-90,4,2000,stimuli\\,,,,,,,,,,,,
,,,,,,,,,,zyx,1,2024-06-28_18h58.40.830,DCT_v1_online,2021.2.3,Win32,60.04563468,,,0.204,3.046,139,up,1,0.559,,0,,,0,122,122,37,1,38,congruent,down,up,incongruent,Stim/Acon.png,up,0,-0.1,0,3,1000,congruent,right,left,incongruent,Stim/Acon.png,left,0.1,0,90,3,2000,stimuli\\,,,,,,,,,,,,
,,,,,,,,,,zyx,1,2024-06-28_18h58.40.830,DCT_v1_online,2021.2.3,Win32,60.04563468,,,0.345,2.905,140,up,1,0.7636,left,1,0.5861,2.155,0,123,123,105,1,106,incongruent,down,up,incongruent,Stim/Aincon.png,up,0,-0.1,0,7,1000,incongruent,left,left,congruent,Stim/Aincon.png,left,-0.1,0,90,5,2000,stimuli\\,,,,,,,,,,,,
,,,,,,,,,,zyx,1,2024-06-28_18h58.40.830,DCT_v1_online,2021.2.3,Win32,60.04563468,,,0.092,2.258,141,up,1,0.8781,right,1,0.99,2.408,0,124,124,106,1,107,incongruent,down,up,incongruent,Stim/Aincon.png,up,0,-0.1,0,7,100,incongruent,left,right,incongruent,Stim/Aincon.png,right,-0.1,0,-90,6,2000,stimuli\\,,,,,,,,,,,,
,,,,,,,,,,zyx,1,2024-06-28_18h58.40.830,DCT_v1_online,2021.2.3,Win32,60.04563468,,,0.152,3.098,142,up,1,0.5978,left,0,0.5634,2.348,0,125,125,15,1,16,congruent,up,up,congruent,Stim/Acon.png,up,0,0.1,0,1,1000,incongruent,right,right,congruent,Stim/Aincon.png,right,0.1,0,-90,8,2000,stimuli\\,,,,,,,,,,,,
,,,,,,,,,,zyx,1,2024-06-28_18h58.40.830,DCT_v1_online,2021.2.3,Win32,60.04563468,,,0.315,2.935,143,up,1,0.6908,right,0,0.7577,2.185,0,126,126,77,1,78,incongruent,up,up,congruent,Stim/Aincon.png,up,0,0.1,0,5,1000,incongruent,right,left,incongruent,Stim/Aincon.png,left,0.1,0,90,7,2000,stimuli\\,,,,,,,,,,,,
,,,,,,,,,,zyx,1,2024-06-28_18h58.40.830,DCT_v1_online,2021.2.3,Win32,60.04563468,,,0.058,3.192,144,down,1,0.6963,left,1,0.6681,2.442,0,127,127,93,1,94,incongruent,up,down,incongruent,Stim/Aincon.png,down,0,0.1,180,6,1000,incongruent,right,left,incongruent,Stim/Aincon.png,left,0.1,0,90,7,2000,stimuli\\,,,,,,,,,,,,
,,,,,,,,,,zyx,1,2024-06-28_18h58.40.830,DCT_v1_online,2021.2.3,Win32,60.04563468,,,,,,,,,,,,,,,,,,,,,,,,,,,,,,,,,,,,,,,,,,space,4.8236,0,1,1,1,1,Instructions/i5.png,test,conditions/block1.xlsx,1.2,0.8
,,,,,,,,,,zyx,1,2024-06-28_18h58.40.830,DCT_v1_online,2021.2.3,Win32,60.04563468,space,4.2691,0.381,2.869,145,up,1,0.7529,left,1,0.7217,2.119,0,0,0,77,1,78,incongruent,up,up,congruent,Stim/Aincon.png,up,0,0.1,0,5,1000,incongruent,right,left,incongruent,Stim/Aincon.png,left,0.1,0,90,7,2000,stimuli\\,,,,,,,,,,,,
,,,,,,,,,,zyx,1,2024-06-28_18h58.40.830,DCT_v1_online,2021.2.3,Win32,60.04563468,,,0.144,3.106,146,up,1,0.6418,left,1,0.5599,2.356,0,1,1,41,1,42,congruent,down,up,incongruent,Stim/Acon.png,up,0,-0.1,0,3,1000,incongruent,left,left,congruent,Stim/Aincon.png,left,-0.1,0,90,5,2000,stimuli\\,,,,,,,,,,,,
,,,,,,,,,,zyx,1,2024-06-28_18h58.40.830,DCT_v1_online,2021.2.3,Win32,60.04563468,,,0.124,2.226,147,down,1,0.992,left,1,1.0314,2.376,0,2,2,116,1,117,incongruent,down,down,congruent,Stim/Aincon.png,down,0,-0.1,180,8,100,congruent,right,left,incongruent,Stim/Acon.png,left,0.1,0,90,3,2000,stimuli\\,,,,,,,,,,,,
,,,,,,,,,,zyx,1,2024-06-28_18h58.40.830,DCT_v1_online,2021.2.3,Win32,60.04563468,,,0.098,2.252,148,up,1,0.7718,right,1,0.9161,2.402,0,3,3,98,1,99,incongruent,down,up,incongruent,Stim/Aincon.png,up,0,-0.1,0,7,100,congruent,left,right,incongruent,Stim/Acon.png,right,-0.1,0,-90,2,2000,stimuli\\,,,,,,,,,,,,
,,,,,,,,,,zyx,1,2024-06-28_18h58.40.830,DCT_v1_online,2021.2.3,Win32,60.04563468,,,0.038,2.312,149,up,1,0.7735,right,1,0.8199,2.462,0,4,4,38,1,39,congruent,down,up,incongruent,Stim/Acon.png,up,0,-0.1,0,3,100,congruent,right,right,congruent,Stim/Acon.png,right,0.1,0,-90,4,2000,stimuli\\,,,,,,,,,,,,
,,,,,,,,,,zyx,1,2024-06-28_18h58.40.830,DCT_v1_online,2021.2.3,Win32,60.04563468,,,0.443,1.907,150,down,1,0.726,left,0,0.7823,2.057,0,5,5,90,1,91,incongruent,up,down,incongruent,Stim/Aincon.png,down,0,0.1,180,6,100,incongruent,left,right,incongruent,Stim/Aincon.png,right,-0.1,0,-90,6,2000,stimuli\\,,,,,,,,,,,,
,,,,,,,,,,zyx,1,2024-06-28_18h58.40.830,DCT_v1_online,2021.2.3,Win32,60.04563468,,,0.349,2.001,151,down,1,0.7397,right,0,0.7853,2.151,0,6,6,56,1,57,congruent,down,down,congruent,Stim/Acon.png,down,0,-0.1,180,4,100,incongruent,left,left,congruent,Stim/Aincon.png,left,-0.1,0,90,5,2000,stimuli\\,,,,,,,,,,,,
,,,,,,,,,,zyx,1,2024-06-28_18h58.40.830,DCT_v1_online,2021.2.3,Win32,60.04563468,,,0.231,3.019,152,down,1,0.6915,right,1,0.6487,2.269,0,7,7,127,1,128,incongruent,down,down,congruent,Stim/Aincon.png,down,0,-0.1,180,8,1000,incongruent,right,right,congruent,Stim/Aincon.png,right,0.1,0,-90,8,2000,stimuli\\,,,,,,,,,,,,
,,,,,,,,,,zyx,1,2024-06-28_18h58.40.830,DCT_v1_online,2021.2.3,Win32,60.04563468,,,0.319,2.031,153,down,1,0.7229,right,1,0.841,2.181,0,8,8,26,1,27,congruent,up,down,incongruent,Stim/Acon.png,down,0,0.1,180,2,100,incongruent,left,right,incongruent,Stim/Aincon.png,right,-0.1,0,-90,6,2000,stimuli\\,,,,,,,,,,,,
,,,,,,,,,,zyx,1,2024-06-28_18h58.40.830,DCT_v1_online,2021.2.3,Win32,60.04563468,,,0.191,3.059,154,up,1,0.6689,right,1,0.486,2.309,0,9,9,39,1,40,congruent,down,up,incongruent,Stim/Acon.png,up,0,-0.1,0,3,1000,congruent,right,right,congruent,Stim/Acon.png,right,0.1,0,-90,4,2000,stimuli\\,,,,,,,,,,,,
,,,,,,,,,,zyx,1,2024-06-28_18h58.40.830,DCT_v1_online,2021.2.3,Win32,60.04563468,,,0.181,3.069,155,down,1,0.5672,right,1,0.5913,2.319,0,10,10,91,1,92,incongruent,up,down,incongruent,Stim/Aincon.png,down,0,0.1,180,6,1000,incongruent,left,right,incongruent,Stim/Aincon.png,right,-0.1,0,-90,6,2000,stimuli\\,,,,,,,,,,,,
,,,,,,,,,,zyx,1,2024-06-28_18h58.40.830,DCT_v1_online,2021.2.3,Win32,60.04563468,,,0.049,3.201,156,down,1,0.8387,right,1,0.4912,2.451,0,11,11,119,1,120,incongruent,down,down,congruent,Stim/Aincon.png,down,0,-0.1,180,8,1000,congruent,right,right,congruent,Stim/Acon.png,right,0.1,0,-90,4,2000,stimuli\\,,,,,,,,,,,,
,,,,,,,,,,zyx,1,2024-06-28_18h58.40.830,DCT_v1_online,2021.2.3,Win32,60.04563468,,,0.229,2.121,157,down,1,0.7182,right,1,0.7527,2.271,0,12,12,54,1,55,congruent,down,down,congruent,Stim/Acon.png,down,0,-0.1,180,4,100,congruent,right,right,congruent,Stim/Acon.png,right,0.1,0,-90,4,2000,stimuli\\,,,,,,,,,,,,
,,,,,,,,,,zyx,1,2024-06-28_18h58.40.830,DCT_v1_online,2021.2.3,Win32,60.04563468,,,0.377,1.973,158,down,1,0.8259,right,1,0.9344,2.123,0,13,13,114,1,115,incongruent,down,down,congruent,Stim/Aincon.png,down,0,-0.1,180,8,100,congruent,left,right,incongruent,Stim/Acon.png,right,-0.1,0,-90,2,2000,stimuli\\,,,,,,,,,,,,
,,,,,,,,,,zyx,1,2024-06-28_18h58.40.830,DCT_v1_online,2021.2.3,Win32,60.04563468,,,0.068,2.282,159,down,1,0.7673,right,0,0.8236,2.432,0,14,14,92,1,93,incongruent,up,down,incongruent,Stim/Aincon.png,down,0,0.1,180,6,100,incongruent,right,left,incongruent,Stim/Aincon.png,left,0.1,0,90,7,2000,stimuli\\,,,,,,,,,,,,
,,,,,,,,,,zyx,1,2024-06-28_18h58.40.830,DCT_v1_online,2021.2.3,Win32,60.04563468,,,0.019,3.231,160,up,1,0.8339,left,1,0.4851,2.481,0,15,15,65,1,66,incongruent,up,up,congruent,Stim/Aincon.png,up,0,0.1,0,5,1000,congruent,left,left,congruent,Stim/Acon.png,left,-0.1,0,90,1,2000,stimuli\\,,,,,,,,,,,,
,,,,,,,,,,zyx,1,2024-06-28_18h58.40.830,DCT_v1_online,2021.2.3,Win32,60.04563468,,,0.442,2.808,161,up,1,0.7858,left,1,0.5192,2.058,0,16,16,97,1,98,incongruent,down,up,incongruent,Stim/Aincon.png,up,0,-0.1,0,7,1000,congruent,left,left,congruent,Stim/Acon.png,left,-0.1,0,90,1,2000,stimuli\\,,,,,,,,,,,,
,,,,,,,,,,zyx,1,2024-06-28_18h58.40.830,DCT_v1_online,2021.2.3,Win32,60.04563468,,,0.379,1.971,162,down,1,0.8109,left,1,1.0342,2.121,0,17,17,120,1,121,incongruent,down,down,congruent,Stim/Aincon.png,down,0,-0.1,180,8,100,incongruent,left,left,congruent,Stim/Aincon.png,left,-0.1,0,90,5,2000,stimuli\\,,,,,,,,,,,,
,,,,,,,,,,zyx,1,2024-06-28_18h58.40.830,DCT_v1_online,2021.2.3,Win32,60.04563468,,,0.437,2.813,163,up,1,0.554,right,1,0.5408,2.063,0,18,18,7,1,8,congruent,up,up,congruent,Stim/Acon.png,up,0,0.1,0,1,1000,congruent,right,right,congruent,Stim/Acon.png,right,0.1,0,-90,4,2000,stimuli\\,,,,,,,,,,,,
,,,,,,,,,,zyx,1,2024-06-28_18h58.40.830,DCT_v1_online,2021.2.3,Win32,60.04563468,,,0.187,3.063,164,up,1,0.7348,right,1,0.4713,2.313,0,19,19,71,1,72,incongruent,up,up,congruent,Stim/Aincon.png,up,0,0.1,0,5,1000,congruent,right,right,congruent,Stim/Acon.png,right,0.1,0,-90,4,2000,stimuli\\,,,,,,,,,,,,
,,,,,,,,,,zyx,1,2024-06-28_18h58.40.830,DCT_v1_online,2021.2.3,Win32,60.04563468,,,0.419,2.831,165,up,1,0.5769,right,0,0.5345,2.081,0,20,20,13,1,14,congruent,up,up,congruent,Stim/Acon.png,up,0,0.1,0,1,1000,incongruent,right,left,incongruent,Stim/Aincon.png,left,0.1,0,90,7,2000,stimuli\\,,,,,,,,,,,,
,,,,,,,,,,zyx,1,2024-06-28_18h58.40.830,DCT_v1_online,2021.2.3,Win32,60.04563468,,,0.279,2.971,166,down,1,0.7396,right,1,0.6071,2.221,0,21,21,27,1,28,congruent,up,down,incongruent,Stim/Acon.png,down,0,0.1,180,2,1000,incongruent,left,right,incongruent,Stim/Aincon.png,right,-0.1,0,-90,6,2000,stimuli\\,,,,,,,,,,,,
,,,,,,,,,,zyx,1,2024-06-28_18h58.40.830,DCT_v1_online,2021.2.3,Win32,60.04563468,,,0.235,3.015,167,down,1,0.6633,right,0,0.5233,2.265,0,22,22,29,1,30,congruent,up,down,incongruent,Stim/Acon.png,down,0,0.1,180,2,1000,incongruent,right,left,incongruent,Stim/Aincon.png,left,0.1,0,90,7,2000,stimuli\\,,,,,,,,,,,,
,,,,,,,,,,zyx,1,2024-06-28_18h58.40.830,DCT_v1_online,2021.2.3,Win32,60.04563468,,,0.146,2.204,168,down,1,1.001,left,1,1.0071,2.354,0,23,23,112,1,113,incongruent,down,down,congruent,Stim/Aincon.png,down,0,-0.1,180,8,100,congruent,left,left,congruent,Stim/Acon.png,left,-0.1,0,90,1,2000,stimuli\\,,,,,,,,,,,,
,,,,,,,,,,zyx,1,2024-06-28_18h58.40.830,DCT_v1_online,2021.2.3,Win32,60.04563468,,,0.428,1.922,169,down,1,0.7001,right,1,0.8625,2.072,0,24,24,82,1,83,incongruent,up,down,incongruent,Stim/Aincon.png,down,0,0.1,180,6,100,congruent,left,right,incongruent,Stim/Acon.png,right,-0.1,0,-90,2,2000,stimuli\\,,,,,,,,,,,,
,,,,,,,,,,zyx,1,2024-06-28_18h58.40.830,DCT_v1_online,2021.2.3,Win32,60.04563468,,,0.053,2.297,170,up,1,0.9232,left,1,0.9532,2.447,0,25,25,36,1,37,congruent,down,up,incongruent,Stim/Acon.png,up,0,-0.1,0,3,100,congruent,right,left,incongruent,Stim/Acon.png,left,0.1,0,90,3,2000,stimuli\\,,,,,,,,,,,,
,,,,,,,,,,zyx,1,2024-06-28_18h58.40.830,DCT_v1_online,2021.2.3,Win32,60.04563468,,,0.312,2.938,171,up,1,0.6591,right,1,0.6428,2.188,0,26,26,43,1,44,congruent,down,up,incongruent,Stim/Acon.png,up,0,-0.1,0,3,1000,incongruent,left,right,incongruent,Stim/Aincon.png,right,-0.1,0,-90,6,2000,stimuli\\,,,,,,,,,,,,
,,,,,,,,,,zyx,1,2024-06-28_18h58.40.830,DCT_v1_online,2021.2.3,Win32,60.04563468,,,0.091,3.159,172,up,1,0.8859,left,1,0.6037,2.409,0,27,27,105,1,106,incongruent,down,up,incongruent,Stim/Aincon.png,up,0,-0.1,0,7,1000,incongruent,left,left,congruent,Stim/Aincon.png,left,-0.1,0,90,5,2000,stimuli\\,,,,,,,,,,,,
,,,,,,,,,,zyx,1,2024-06-28_18h58.40.830,DCT_v1_online,2021.2.3,Win32,60.04563468,,,0.088,3.162,173,up,1,0.6696,left,1,0.5227,2.412,0,28,28,33,1,34,congruent,down,up,incongruent,Stim/Acon.png,up,0,-0.1,0,3,1000,congruent,left,left,congruent,Stim/Acon.png,left,-0.1,0,90,1,2000,stimuli\\,,,,,,,,,,,,
,,,,,,,,,,zyx,1,2024-06-28_18h58.40.830,DCT_v1_online,2021.2.3,Win32,60.04563468,,,0.049,2.301,174,up,1,0.7756,left,1,0.8062,2.451,0,29,29,32,1,33,congruent,down,up,incongruent,Stim/Acon.png,up,0,-0.1,0,3,100,congruent,left,left,congruent,Stim/Acon.png,left,-0.1,0,90,1,2000,stimuli\\,,,,,,,,,,,,
,,,,,,,,,,zyx,1,2024-06-28_18h58.40.830,DCT_v1_online,2021.2.3,Win32,60.04563468,,,0.292,2.058,175,up,1,0.7351,left,1,0.8272,2.208,0,30,30,12,1,13,congruent,up,up,congruent,Stim/Acon.png,up,0,0.1,0,1,100,incongruent,right,left,incongruent,Stim/Aincon.png,left,0.1,0,90,7,2000,stimuli\\,,,,,,,,,,,,
,,,,,,,,,,zyx,1,2024-06-28_18h58.40.830,DCT_v1_online,2021.2.3,Win32,60.04563468,,,0.43,2.82,176,down,1,0.6606,left,1,0.6774,2.07,0,31,31,93,1,94,incongruent,up,down,incongruent,Stim/Aincon.png,down,0,0.1,180,6,1000,incongruent,right,left,incongruent,Stim/Aincon.png,left,0.1,0,90,7,2000,stimuli\\,,,,,,,,,,,,
,,,,,,,,,,zyx,1,2024-06-28_18h58.40.830,DCT_v1_online,2021.2.3,Win32,60.04563468,,,0.12,3.13,177,down,1,0.6705,right,1,0.6748,2.38,0,32,32,23,1,24,congruent,up,down,incongruent,Stim/Acon.png,down,0,0.1,180,2,1000,congruent,right,right,congruent,Stim/Acon.png,right,0.1,0,-90,4,2000,stimuli\\,,,,,,,,,,,,
,,,,,,,,,,zyx,1,2024-06-28_18h58.40.830,DCT_v1_online,2021.2.3,Win32,60.04563468,,,0.272,2.978,178,down,1,0.7508,left,1,0.4189,2.228,0,33,33,81,1,82,incongruent,up,down,incongruent,Stim/Aincon.png,down,0,0.1,180,6,1000,congruent,left,left,congruent,Stim/Acon.png,left,-0.1,0,90,1,2000,stimuli\\,,,,,,,,,,,,
,,,,,,,,,,zyx,1,2024-06-28_18h58.40.830,DCT_v1_online,2021.2.3,Win32,60.04563468,,,0.011,2.339,179,down,1,0.8477,left,0,0.9851,2.489,0,34,34,94,1,95,incongruent,up,down,incongruent,Stim/Aincon.png,down,0,0.1,180,6,100,incongruent,right,right,congruent,Stim/Aincon.png,right,0.1,0,-90,8,2000,stimuli\\,,,,,,,,,,,,
,,,,,,,,,,zyx,1,2024-06-28_18h58.40.830,DCT_v1_online,2021.2.3,Win32,60.04563468,,,0.018,3.232,180,up,1,0.7673,left,1,0.6057,2.482,0,35,35,101,1,102,incongruent,down,up,incongruent,Stim/Aincon.png,up,0,-0.1,0,7,1000,congruent,right,left,incongruent,Stim/Acon.png,left,0.1,0,90,3,2000,stimuli\\,,,,,,,,,,,,
,,,,,,,,,,zyx,1,2024-06-28_18h58.40.830,DCT_v1_online,2021.2.3,Win32,60.04563468,,,0.392,1.958,181,up,1,0.9685,left,1,1.0427,2.108,0,36,36,100,1,101,incongruent,down,up,incongruent,Stim/Aincon.png,up,0,-0.1,0,7,100,congruent,right,left,incongruent,Stim/Acon.png,left,0.1,0,90,3,2000,stimuli\\,,,,,,,,,,,,
,,,,,,,,,,zyx,1,2024-06-28_18h58.40.830,DCT_v1_online,2021.2.3,Win32,60.04563468,,,0.463,1.887,182,up,1,0.884,right,1,1.0659,2.037,0,37,37,78,1,79,incongruent,up,up,congruent,Stim/Aincon.png,up,0,0.1,0,5,100,incongruent,right,right,congruent,Stim/Aincon.png,right,0.1,0,-90,8,2000,stimuli\\,,,,,,,,,,,,
,,,,,,,,,,zyx,1,2024-06-28_18h58.40.830,DCT_v1_online,2021.2.3,Win32,60.04563468,,,0.319,2.931,183,down,1,0.9238,left,1,0.6247,2.181,0,38,38,121,1,122,incongruent,down,down,congruent,Stim/Aincon.png,down,0,-0.1,180,8,1000,incongruent,left,left,congruent,Stim/Aincon.png,left,-0.1,0,90,5,2000,stimuli\\,,,,,,,,,,,,
,,,,,,,,,,zyx,1,2024-06-28_18h58.40.830,DCT_v1_online,2021.2.3,Win32,60.04563468,,,0.358,2.892,184,down,1,0.6405,right,1,0.5013,2.142,0,39,39,51,1,52,congruent,down,down,congruent,Stim/Acon.png,down,0,-0.1,180,4,1000,congruent,left,right,incongruent,Stim/Acon.png,right,-0.1,0,-90,2,2000,stimuli\\,,,,,,,,,,,,
,,,,,,,,,,zyx,1,2024-06-28_18h58.40.830,DCT_v1_online,2021.2.3,Win32,60.04563468,,,0.46,2.79,185,down,1,0.8182,left,1,0.6064,2.04,0,40,40,125,1,126,incongruent,down,down,congruent,Stim/Aincon.png,down,0,-0.1,180,8,1000,incongruent,right,left,incongruent,Stim/Aincon.png,left,0.1,0,90,7,2000,stimuli\\,,,,,,,,,,,,
,,,,,,,,,,zyx,1,2024-06-28_18h58.40.830,DCT_v1_online,2021.2.3,Win32,60.04563468,,,0.472,2.778,186,down,1,0.6054,right,1,0.5229,2.028,0,41,41,59,1,60,congruent,down,down,congruent,Stim/Acon.png,down,0,-0.1,180,4,1000,incongruent,left,right,incongruent,Stim/Aincon.png,right,-0.1,0,-90,6,2000,stimuli\\,,,,,,,,,,,,
,,,,,,,,,,zyx,1,2024-06-28_18h58.40.830,DCT_v1_online,2021.2.3,Win32,60.04563468,,,0.045,2.305,187,down,1,0.7235,left,1,0.7935,2.455,0,42,42,84,1,85,incongruent,up,down,incongruent,Stim/Aincon.png,down,0,0.1,180,6,100,congruent,right,left,incongruent,Stim/Acon.png,left,0.1,0,90,3,2000,stimuli\\,,,,,,,,,,,,
,,,,,,,,,,zyx,1,2024-06-28_18h58.40.830,DCT_v1_online,2021.2.3,Win32,60.04563468,,,0.494,1.856,188,up,1,0.7695,right,1,0.7905,2.006,0,43,43,6,1,7,congruent,up,up,congruent,Stim/Acon.png,up,0,0.1,0,1,100,congruent,right,right,congruent,Stim/Acon.png,right,0.1,0,-90,4,2000,stimuli\\,,,,,,,,,,,,
,,,,,,,,,,zyx,1,2024-06-28_18h58.40.830,DCT_v1_online,2021.2.3,Win32,60.04563468,,,0.16,2.19,189,down,1,0.9119,right,1,0.9551,2.34,0,44,44,126,1,127,incongruent,down,down,congruent,Stim/Aincon.png,down,0,-0.1,180,8,100,incongruent,right,right,congruent,Stim/Aincon.png,right,0.1,0,-90,8,2000,stimuli\\,,,,,,,,,,,,
,,,,,,,,,,zyx,1,2024-06-28_18h58.40.830,DCT_v1_online,2021.2.3,Win32,60.04563468,,,0.443,1.907,190,up,1,0.8095,right,1,0.9381,2.057,0,45,45,110,1,111,incongruent,down,up,incongruent,Stim/Aincon.png,up,0,-0.1,0,7,100,incongruent,right,right,congruent,Stim/Aincon.png,right,0.1,0,-90,8,2000,stimuli\\,,,,,,,,,,,,
,,,,,,,,,,zyx,1,2024-06-28_18h58.40.830,DCT_v1_online,2021.2.3,Win32,60.04563468,,,0.08,3.17,191,down,1,0.634,right,0,0.4185,2.42,0,46,46,61,1,62,congruent,down,down,congruent,Stim/Acon.png,down,0,-0.1,180,4,1000,incongruent,right,left,incongruent,Stim/Aincon.png,left,0.1,0,90,7,2000,stimuli\\,,,,,,,,,,,,
,,,,,,,,,,zyx,1,2024-06-28_18h58.40.830,DCT_v1_online,2021.2.3,Win32,60.04563468,,,0.325,2.025,192,down,1,0.7236,right,1,0.7529,2.175,0,47,47,18,1,19,congruent,up,down,incongruent,Stim/Acon.png,down,0,0.1,180,2,100,congruent,left,right,incongruent,Stim/Acon.png,right,-0.1,0,-90,2,2000,stimuli\\,,,,,,,,,,,,
,,,,,,,,,,zyx,1,2024-06-28_18h58.40.830,DCT_v1_online,2021.2.3,Win32,60.04563468,,,0.464,1.886,193,,0,,,0,,,0,48,48,2,1,3,congruent,up,up,congruent,Stim/Acon.png,up,0,0.1,0,1,100,congruent,left,right,incongruent,Stim/Acon.png,right,-0.1,0,-90,2,2000,stimuli\\,,,,,,,,,,,,
,,,,,,,,,,zyx,1,2024-06-28_18h58.40.830,DCT_v1_online,2021.2.3,Win32,60.04563468,,,0.441,2.809,194,down,1,0.6508,right,1,0.5534,2.059,0,49,49,87,1,88,incongruent,up,down,incongruent,Stim/Aincon.png,down,0,0.1,180,6,1000,congruent,right,right,congruent,Stim/Acon.png,right,0.1,0,-90,4,2000,stimuli\\,,,,,,,,,,,,
,,,,,,,,,,zyx,1,2024-06-28_18h58.40.830,DCT_v1_online,2021.2.3,Win32,60.04563468,,,0.268,2.982,195,up,1,0.6175,left,1,0.5179,2.232,0,50,50,69,1,70,incongruent,up,up,congruent,Stim/Aincon.png,up,0,0.1,0,5,1000,congruent,right,left,incongruent,Stim/Acon.png,left,0.1,0,90,3,2000,stimuli\\,,,,,,,,,,,,
,,,,,,,,,,zyx,1,2024-06-28_18h58.40.830,DCT_v1_online,2021.2.3,Win32,60.04563468,,,0.318,2.932,196,down,1,0.6005,left,0,0.4749,2.182,0,51,51,63,1,64,congruent,down,down,congruent,Stim/Acon.png,down,0,-0.1,180,4,1000,incongruent,right,right,congruent,Stim/Aincon.png,right,0.1,0,-90,8,2000,stimuli\\,,,,,,,,,,,,
,,,,,,,,,,zyx,1,2024-06-28_18h58.40.830,DCT_v1_online,2021.2.3,Win32,60.04563468,,,0.211,3.039,197,up,1,0.4681,right,1,0.459,2.289,0,52,52,3,1,4,congruent,up,up,congruent,Stim/Acon.png,up,0,0.1,0,1,1000,congruent,left,right,incongruent,Stim/Acon.png,right,-0.1,0,-90,2,2000,stimuli\\,,,,,,,,,,,,
,,,,,,,,,,zyx,1,2024-06-28_18h58.40.830,DCT_v1_online,2021.2.3,Win32,60.04563468,,,0.425,1.925,198,up,1,0.7675,right,0,0.7907,2.075,0,53,53,44,1,45,congruent,down,up,incongruent,Stim/Acon.png,up,0,-0.1,0,3,100,incongruent,right,left,incongruent,Stim/Aincon.png,left,0.1,0,90,7,2000,stimuli\\,,,,,,,,,,,,
,,,,,,,,,,zyx,1,2024-06-28_18h58.40.830,DCT_v1_online,2021.2.3,Win32,60.04563468,,,0.231,2.119,199,down,1,0.6677,right,1,0.7075,2.269,0,54,54,22,1,23,congruent,up,down,incongruent,Stim/Acon.png,down,0,0.1,180,2,100,congruent,right,right,congruent,Stim/Acon.png,right,0.1,0,-90,4,2000,stimuli\\,,,,,,,,,,,,
,,,,,,,,,,zyx,1,2024-06-28_18h58.40.830,DCT_v1_online,2021.2.3,Win32,60.04563468,,,0.059,2.291,200,up,1,0.7353,right,1,0.8084,2.441,0,55,55,66,1,67,incongruent,up,up,congruent,Stim/Aincon.png,up,0,0.1,0,5,100,congruent,left,right,incongruent,Stim/Acon.png,right,-0.1,0,-90,2,2000,stimuli\\,,,,,,,,,,,,
,,,,,,,,,,zyx,1,2024-06-28_18h58.40.830,DCT_v1_online,2021.2.3,Win32,60.04563468,,,0.05,3.2,201,down,1,0.5457,right,1,0.478,2.45,0,56,56,83,1,84,incongruent,up,down,incongruent,Stim/Aincon.png,down,0,0.1,180,6,1000,congruent,left,right,incongruent,Stim/Acon.png,right,-0.1,0,-90,2,2000,stimuli\\,,,,,,,,,,,,
,,,,,,,,,,zyx,1,2024-06-28_18h58.40.830,DCT_v1_online,2021.2.3,Win32,60.04563468,,,0.045,2.305,202,up,1,0.7424,right,1,0.851,2.455,0,57,57,74,1,75,incongruent,up,up,congruent,Stim/Aincon.png,up,0,0.1,0,5,100,incongruent,left,right,incongruent,Stim/Aincon.png,right,-0.1,0,-90,6,2000,stimuli\\,,,,,,,,,,,,
,,,,,,,,,,zyx,1,2024-06-28_18h58.40.830,DCT_v1_online,2021.2.3,Win32,60.04563468,,,0.103,2.247,203,down,1,0.7221,left,1,0.8511,2.397,0,58,58,48,1,49,congruent,down,down,congruent,Stim/Acon.png,down,0,-0.1,180,4,100,congruent,left,left,congruent,Stim/Acon.png,left,-0.1,0,90,1,2000,stimuli\\,,,,,,,,,,,,
,,,,,,,,,,zyx,1,2024-06-28_18h58.40.830,DCT_v1_online,2021.2.3,Win32,60.04563468,,,0.497,1.853,204,down,1,0.663,right,0,0.7019,2.003,0,59,59,60,1,61,congruent,down,down,congruent,Stim/Acon.png,down,0,-0.1,180,4,100,incongruent,right,left,incongruent,Stim/Aincon.png,left,0.1,0,90,7,2000,stimuli\\,,,,,,,,,,,,
,,,,,,,,,,zyx,1,2024-06-28_18h58.40.830,DCT_v1_online,2021.2.3,Win32,60.04563468,,,0.496,1.854,205,down,1,0.7717,right,1,0.8024,2.004,0,60,60,50,1,51,congruent,down,down,congruent,Stim/Acon.png,down,0,-0.1,180,4,100,congruent,left,right,incongruent,Stim/Acon.png,right,-0.1,0,-90,2,2000,stimuli\\,,,,,,,,,,,,
,,,,,,,,,,zyx,1,2024-06-28_18h58.40.830,DCT_v1_online,2021.2.3,Win32,60.04563468,,,0.468,2.782,206,down,1,0.5755,left,1,0.5115,2.032,0,61,61,21,1,22,congruent,up,down,incongruent,Stim/Acon.png,down,0,0.1,180,2,1000,congruent,right,left,incongruent,Stim/Acon.png,left,0.1,0,90,3,2000,stimuli\\,,,,,,,,,,,,
,,,,,,,,,,zyx,1,2024-06-28_18h58.40.830,DCT_v1_online,2021.2.3,Win32,60.04563468,,,0.357,2.893,207,up,1,0.6016,right,1,0.4426,2.143,0,62,62,35,1,36,congruent,down,up,incongruent,Stim/Acon.png,up,0,-0.1,0,3,1000,congruent,left,right,incongruent,Stim/Acon.png,right,-0.1,0,-90,2,2000,stimuli\\,,,,,,,,,,,,
,,,,,,,,,,zyx,1,2024-06-28_18h58.40.830,DCT_v1_online,2021.2.3,Win32,60.04563468,,,0.338,2.012,208,down,1,0.6837,left,1,0.7458,2.162,0,63,63,52,1,53,congruent,down,down,congruent,Stim/Acon.png,down,0,-0.1,180,4,100,congruent,right,left,incongruent,Stim/Acon.png,left,0.1,0,90,3,2000,stimuli\\,,,,,,,,,,,,
,,,,,,,,,,zyx,1,2024-06-28_18h58.40.830,DCT_v1_online,2021.2.3,Win32,60.04563468,,,0.044,3.206,209,up,1,0.6328,left,1,0.625,2.456,0,64,64,9,1,10,congruent,up,up,congruent,Stim/Acon.png,up,0,0.1,0,1,1000,incongruent,left,left,congruent,Stim/Aincon.png,left,-0.1,0,90,5,2000,stimuli\\,,,,,,,,,,,,
,,,,,,,,,,zyx,1,2024-06-28_18h58.40.830,DCT_v1_online,2021.2.3,Win32,60.04563468,,,0.047,2.303,210,down,1,0.7674,left,1,0.8669,2.453,0,65,65,88,1,89,incongruent,up,down,incongruent,Stim/Aincon.png,down,0,0.1,180,6,100,incongruent,left,left,congruent,Stim/Aincon.png,left,-0.1,0,90,5,2000,stimuli\\,,,,,,,,,,,,
,,,,,,,,,,zyx,1,2024-06-28_18h58.40.830,DCT_v1_online,2021.2.3,Win32,60.04563468,,,0.171,3.079,211,down,1,0.5399,right,1,0.4238,2.329,0,66,66,19,1,20,congruent,up,down,incongruent,Stim/Acon.png,down,0,0.1,180,2,1000,congruent,left,right,incongruent,Stim/Acon.png,right,-0.1,0,-90,2,2000,stimuli\\,,,,,,,,,,,,
,,,,,,,,,,zyx,1,2024-06-28_18h58.40.830,DCT_v1_online,2021.2.3,Win32,60.04563468,,,0.278,2.972,212,down,1,0.842,right,1,0.5344,2.222,0,67,67,115,1,116,incongruent,down,down,congruent,Stim/Aincon.png,down,0,-0.1,180,8,1000,congruent,left,right,incongruent,Stim/Acon.png,right,-0.1,0,-90,2,2000,stimuli\\,,,,,,,,,,,,
,,,,,,,,,,zyx,1,2024-06-28_18h58.40.830,DCT_v1_online,2021.2.3,Win32,60.04563468,,,0.433,2.817,213,up,1,0.5888,left,0,0.5256,2.067,0,68,68,79,1,80,incongruent,up,up,congruent,Stim/Aincon.png,up,0,0.1,0,5,1000,incongruent,right,right,congruent,Stim/Aincon.png,right,0.1,0,-90,8,2000,stimuli\\,,,,,,,,,,,,
,,,,,,,,,,zyx,1,2024-06-28_18h58.40.830,DCT_v1_online,2021.2.3,Win32,60.04563468,,,0.19,2.16,214,down,1,0.74,left,0,0.8572,2.31,0,69,69,58,1,59,congruent,down,down,congruent,Stim/Acon.png,down,0,-0.1,180,4,100,incongruent,left,right,incongruent,Stim/Aincon.png,right,-0.1,0,-90,6,2000,stimuli\\,,,,,,,,,,,,
,,,,,,,,,,zyx,1,2024-06-28_18h58.40.830,DCT_v1_online,2021.2.3,Win32,60.04563468,,,0.398,1.952,215,down,1,0.7741,left,1,0.9069,2.102,0,70,70,28,1,29,congruent,up,down,incongruent,Stim/Acon.png,down,0,0.1,180,2,100,incongruent,right,left,incongruent,Stim/Aincon.png,left,0.1,0,90,7,2000,stimuli\\,,,,,,,,,,,,
,,,,,,,,,,zyx,1,2024-06-28_18h58.40.830,DCT_v1_online,2021.2.3,Win32,60.04563468,,,0.087,2.263,216,up,1,0.958,left,1,1.0544,2.413,0,71,71,96,1,97,incongruent,down,up,incongruent,Stim/Aincon.png,up,0,-0.1,0,7,100,congruent,left,left,congruent,Stim/Acon.png,left,-0.1,0,90,1,2000,stimuli\\,,,,,,,,,,,,
,,,,,,,,,,zyx,1,2024-06-28_18h58.40.830,DCT_v1_online,2021.2.3,Win32,60.04563468,,,0.14,3.11,217,down,1,0.6151,left,1,0.4518,2.36,0,72,72,49,1,50,congruent,down,down,congruent,Stim/Acon.png,down,0,-0.1,180,4,1000,congruent,left,left,congruent,Stim/Acon.png,left,-0.1,0,90,1,2000,stimuli\\,,,,,,,,,,,,
,,,,,,,,,,zyx,1,2024-06-28_18h58.40.830,DCT_v1_online,2021.2.3,Win32,60.04563468,,,0.285,2.065,218,up,1,0.574,left,1,0.6781,2.215,0,73,73,0,1,1,congruent,up,up,congruent,Stim/Acon.png,up,0,0.1,0,1,100,congruent,left,left,congruent,Stim/Acon.png,left,-0.1,0,90,1,2000,stimuli\\,,,,,,,,,,,,
,,,,,,,,,,zyx,1,2024-06-28_18h58.40.830,DCT_v1_online,2021.2.3,Win32,60.04563468,,,0.06,3.19,219,up,1,0.6592,right,1,0.4386,2.44,0,74,74,67,1,68,incongruent,up,up,congruent,Stim/Aincon.png,up,0,0.1,0,5,1000,congruent,left,right,incongruent,Stim/Acon.png,right,-0.1,0,-90,2,2000,stimuli\\,,,,,,,,,,,,
,,,,,,,,,,zyx,1,2024-06-28_18h58.40.830,DCT_v1_online,2021.2.3,Win32,60.04563468,,,0.469,2.781,220,up,1,0.8354,right,1,0.5526,2.031,0,75,75,107,1,108,incongruent,down,up,incongruent,Stim/Aincon.png,up,0,-0.1,0,7,1000,incongruent,left,right,incongruent,Stim/Aincon.png,right,-0.1,0,-90,6,2000,stimuli\\,,,,,,,,,,,,
,,,,,,,,,,zyx,1,2024-06-28_18h58.40.830,DCT_v1_online,2021.2.3,Win32,60.04563468,,,0.154,2.196,221,down,1,0.587,left,1,0.7333,2.346,0,76,76,24,1,25,congruent,up,down,incongruent,Stim/Acon.png,down,0,0.1,180,2,100,incongruent,left,left,congruent,Stim/Aincon.png,left,-0.1,0,90,5,2000,stimuli\\,,,,,,,,,,,,
,,,,,,,,,,zyx,1,2024-06-28_18h58.40.830,DCT_v1_online,2021.2.3,Win32,60.04563468,,,0.099,2.251,222,up,1,0.6524,right,1,0.7406,2.401,0,77,77,14,1,15,congruent,up,up,congruent,Stim/Acon.png,up,0,0.1,0,1,100,incongruent,right,right,congruent,Stim/Aincon.png,right,0.1,0,-90,8,2000,stimuli\\,,,,,,,,,,,,
,,,,,,,,,,zyx,1,2024-06-28_18h58.40.830,DCT_v1_online,2021.2.3,Win32,60.04563468,,,0.3,2.95,223,down,1,0.8177,left,1,0.5203,2.2,0,78,78,117,1,118,incongruent,down,down,congruent,Stim/Aincon.png,down,0,-0.1,180,8,1000,congruent,right,left,incongruent,Stim/Acon.png,left,0.1,0,90,3,2000,stimuli\\,,,,,,,,,,,,
,,,,,,,,,,zyx,1,2024-06-28_18h58.40.830,DCT_v1_online,2021.2.3,Win32,60.04563468,,,0.098,3.152,224,down,1,0.6541,left,1,0.5912,2.402,0,79,79,57,1,58,congruent,down,down,congruent,Stim/Acon.png,down,0,-0.1,180,4,1000,incongruent,left,left,congruent,Stim/Aincon.png,left,-0.1,0,90,5,2000,stimuli\\,,,,,,,,,,,,
,,,,,,,,,,zyx,1,2024-06-28_18h58.40.830,DCT_v1_online,2021.2.3,Win32,60.04563468,,,0.122,2.228,225,up,1,0.801,right,1,0.8168,2.378,0,80,80,70,1,71,incongruent,up,up,congruent,Stim/Aincon.png,up,0,0.1,0,5,100,congruent,right,right,congruent,Stim/Acon.png,right,0.1,0,-90,4,2000,stimuli\\,,,,,,,,,,,,
,,,,,,,,,,zyx,1,2024-06-28_18h58.40.830,DCT_v1_online,2021.2.3,Win32,60.04563468,,,0.226,3.024,226,up,1,0.767,right,1,0.5021,2.274,0,81,81,75,1,76,incongruent,up,up,congruent,Stim/Aincon.png,up,0,0.1,0,5,1000,incongruent,left,right,incongruent,Stim/Aincon.png,right,-0.1,0,-90,6,2000,stimuli\\,,,,,,,,,,,,
,,,,,,,,,,zyx,1,2024-06-28_18h58.40.830,DCT_v1_online,2021.2.3,Win32,60.04563468,,,0.452,1.898,227,down,1,0.6615,left,1,0.6832,2.048,0,82,82,20,1,21,congruent,up,down,incongruent,Stim/Acon.png,down,0,0.1,180,2,100,congruent,right,left,incongruent,Stim/Acon.png,left,0.1,0,90,3,2000,stimuli\\,,,,,,,,,,,,
,,,,,,,,,,zyx,1,2024-06-28_18h58.40.830,DCT_v1_online,2021.2.3,Win32,60.04563468,,,0.158,2.192,228,up,1,0.9093,left,0,1.0044,2.342,0,83,83,106,1,107,incongruent,down,up,incongruent,Stim/Aincon.png,up,0,-0.1,0,7,100,incongruent,left,right,incongruent,Stim/Aincon.png,right,-0.1,0,-90,6,2000,stimuli\\,,,,,,,,,,,,
,,,,,,,,,,zyx,1,2024-06-28_18h58.40.830,DCT_v1_online,2021.2.3,Win32,60.04563468,,,0.204,3.046,229,down,1,0.7519,right,1,0.7523,2.296,0,84,84,95,1,96,incongruent,up,down,incongruent,Stim/Aincon.png,down,0,0.1,180,6,1000,incongruent,right,right,congruent,Stim/Aincon.png,right,0.1,0,-90,8,2000,stimuli\\,,,,,,,,,,,,
,,,,,,,,,,zyx,1,2024-06-28_18h58.40.830,DCT_v1_online,2021.2.3,Win32,60.04563468,,,0.135,3.115,230,down,1,0.5675,right,1,0.6508,2.365,0,85,85,31,1,32,congruent,up,down,incongruent,Stim/Acon.png,down,0,0.1,180,2,1000,incongruent,right,right,congruent,Stim/Aincon.png,right,0.1,0,-90,8,2000,stimuli\\,,,,,,,,,,,,
,,,,,,,,,,zyx,1,2024-06-28_18h58.40.830,DCT_v1_online,2021.2.3,Win32,60.04563468,,,0.453,1.897,231,up,1,0.8114,right,1,0.9598,2.047,0,86,86,42,1,43,congruent,down,up,incongruent,Stim/Acon.png,up,0,-0.1,0,3,100,incongruent,left,right,incongruent,Stim/Aincon.png,right,-0.1,0,-90,6,2000,stimuli\\,,,,,,,,,,,,
,,,,,,,,,,zyx,1,2024-06-28_18h58.40.830,DCT_v1_online,2021.2.3,Win32,60.04563468,,,0.012,3.238,232,down,1,0.7916,left,1,0.513,2.488,0,87,87,85,1,86,incongruent,up,down,incongruent,Stim/Aincon.png,down,0,0.1,180,6,1000,congruent,right,left,incongruent,Stim/Acon.png,left,0.1,0,90,3,2000,stimuli\\,,,,,,,,,,,,
,,,,,,,,,,zyx,1,2024-06-28_18h58.40.830,DCT_v1_online,2021.2.3,Win32,60.04563468,,,0.267,2.983,233,up,1,0.5663,left,1,0.717,2.233,0,88,88,1,1,2,congruent,up,up,congruent,Stim/Acon.png,up,0,0.1,0,1,1000,congruent,left,left,congruent,Stim/Acon.png,left,-0.1,0,90,1,2000,stimuli\\,,,,,,,,,,,,
,,,,,,,,,,zyx,1,2024-06-28_18h58.40.830,DCT_v1_online,2021.2.3,Win32,60.04563468,,,0.297,2.053,234,down,1,0.8922,right,1,1.1213,2.203,0,89,89,122,1,123,incongruent,down,down,congruent,Stim/Aincon.png,down,0,-0.1,180,8,100,incongruent,left,right,incongruent,Stim/Aincon.png,right,-0.1,0,-90,6,2000,stimuli\\,,,,,,,,,,,,
,,,,,,,,,,zyx,1,2024-06-28_18h58.40.830,DCT_v1_online,2021.2.3,Win32,60.04563468,,,0.314,2.936,235,down,1,0.7349,right,1,0.5516,2.186,0,90,90,55,1,56,congruent,down,down,congruent,Stim/Acon.png,down,0,-0.1,180,4,1000,congruent,right,right,congruent,Stim/Acon.png,right,0.1,0,-90,4,2000,stimuli\\,,,,,,,,,,,,
,,,,,,,,,,zyx,1,2024-06-28_18h58.40.830,DCT_v1_online,2021.2.3,Win32,60.04563468,,,0.357,2.893,236,down,0,0.5354,left,1,0.6685,2.143,0,91,91,109,1,110,incongruent,down,up,incongruent,Stim/Aincon.png,up,0,-0.1,0,7,1000,incongruent,right,left,incongruent,Stim/Aincon.png,left,0.1,0,90,7,2000,stimuli\\,,,,,,,,,,,,
,,,,,,,,,,zyx,1,2024-06-28_18h58.40.830,DCT_v1_online,2021.2.3,Win32,60.04563468,,,0.257,2.993,237,down,1,0.5395,left,1,0.4839,2.243,0,92,92,17,1,18,congruent,up,down,incongruent,Stim/Acon.png,down,0,0.1,180,2,1000,congruent,left,left,congruent,Stim/Acon.png,left,-0.1,0,90,1,2000,stimuli\\,,,,,,,,,,,,
,,,,,,,,,,zyx,1,2024-06-28_18h58.40.830,DCT_v1_online,2021.2.3,Win32,60.04563468,,,0.149,3.101,238,up,1,0.6533,left,1,0.5521,2.351,0,93,93,73,1,74,incongruent,up,up,congruent,Stim/Aincon.png,up,0,0.1,0,5,1000,incongruent,left,left,congruent,Stim/Aincon.png,left,-0.1,0,90,5,2000,stimuli\\,,,,,,,,,,,,
,,,,,,,,,,zyx,1,2024-06-28_18h58.40.830,DCT_v1_online,2021.2.3,Win32,60.04563468,,,0.053,3.197,239,down,1,0.6276,left,1,0.4637,2.447,0,94,94,113,1,114,incongruent,down,down,congruent,Stim/Aincon.png,down,0,-0.1,180,8,1000,congruent,left,left,congruent,Stim/Acon.png,left,-0.1,0,90,1,2000,stimuli\\,,,,,,,,,,,,
,,,,,,,,,,zyx,1,2024-06-28_18h58.40.830,DCT_v1_online,2021.2.3,Win32,60.04563468,,,0.46,2.79,240,down,1,0.5673,left,1,0.491,2.04,0,95,95,53,1,54,congruent,down,down,congruent,Stim/Acon.png,down,0,-0.1,180,4,1000,congruent,right,left,incongruent,Stim/Acon.png,left,0.1,0,90,3,2000,stimuli\\,,,,,,,,,,,,
,,,,,,,,,,zyx,1,2024-06-28_18h58.40.830,DCT_v1_online,2021.2.3,Win32,60.04563468,,,0.316,2.934,241,up,1,0.5846,left,1,0.4737,2.184,0,96,96,37,1,38,congruent,down,up,incongruent,Stim/Acon.png,up,0,-0.1,0,3,1000,congruent,right,left,incongruent,Stim/Acon.png,left,0.1,0,90,3,2000,stimuli\\,,,,,,,,,,,,
,,,,,,,,,,zyx,1,2024-06-28_18h58.40.830,DCT_v1_online,2021.2.3,Win32,60.04563468,,,0.391,1.959,242,up,1,0.823,left,1,0.8505,2.109,0,97,97,68,1,69,incongruent,up,up,congruent,Stim/Aincon.png,up,0,0.1,0,5,100,congruent,right,left,incongruent,Stim/Acon.png,left,0.1,0,90,3,2000,stimuli\\,,,,,,,,,,,,
,,,,,,,,,,zyx,1,2024-06-28_18h58.40.830,DCT_v1_online,2021.2.3,Win32,60.04563468,,,0.137,3.113,243,up,1,0.762,right,1,0.6065,2.363,0,98,98,103,1,104,incongruent,down,up,incongruent,Stim/Aincon.png,up,0,-0.1,0,7,1000,congruent,right,right,congruent,Stim/Acon.png,right,0.1,0,-90,4,2000,stimuli\\,,,,,,,,,,,,
,,,,,,,,,,zyx,1,2024-06-28_18h58.40.830,DCT_v1_online,2021.2.3,Win32,60.04563468,,,0.01,3.24,244,up,1,0.4513,left,0,0.3428,2.49,0,99,99,11,1,12,congruent,up,up,congruent,Stim/Acon.png,up,0,0.1,0,1,1000,incongruent,left,right,incongruent,Stim/Aincon.png,right,-0.1,0,-90,6,2000,stimuli\\,,,,,,,,,,,,
,,,,,,,,,,zyx,1,2024-06-28_18h58.40.830,DCT_v1_online,2021.2.3,Win32,60.04563468,,,0.252,2.998,245,up,1,0.526,left,0,0.4895,2.248,0,100,100,47,1,48,congruent,down,up,incongruent,Stim/Acon.png,up,0,-0.1,0,3,1000,incongruent,right,right,congruent,Stim/Aincon.png,right,0.1,0,-90,8,2000,stimuli\\,,,,,,,,,,,,
,,,,,,,,,,zyx,1,2024-06-28_18h58.40.830,DCT_v1_online,2021.2.3,Win32,60.04563468,,,0.06,2.29,246,up,1,0.7692,left,1,0.9018,2.44,0,101,101,8,1,9,congruent,up,up,congruent,Stim/Acon.png,up,0,0.1,0,1,100,incongruent,left,left,congruent,Stim/Aincon.png,left,-0.1,0,90,5,2000,stimuli\\,,,,,,,,,,,,
,,,,,,,,,,zyx,1,2024-06-28_18h58.40.830,DCT_v1_online,2021.2.3,Win32,60.04563468,,,0.305,2.045,247,up,1,0.9257,right,0,0.9887,2.195,0,102,102,40,1,41,congruent,down,up,incongruent,Stim/Acon.png,up,0,-0.1,0,3,100,incongruent,left,left,congruent,Stim/Aincon.png,left,-0.1,0,90,5,2000,stimuli\\,,,,,,,,,,,,
,,,,,,,,,,zyx,1,2024-06-28_18h58.40.830,DCT_v1_online,2021.2.3,Win32,60.04563468,,,0.388,1.962,248,down,1,0.7857,left,1,0.7847,2.112,0,103,103,16,1,17,congruent,up,down,incongruent,Stim/Acon.png,down,0,0.1,180,2,100,congruent,left,left,congruent,Stim/Acon.png,left,-0.1,0,90,1,2000,stimuli\\,,,,,,,,,,,,
,,,,,,,,,,zyx,1,2024-06-28_18h58.40.830,DCT_v1_online,2021.2.3,Win32,60.04563468,,,0.305,2.945,249,up,1,0.6776,left,1,0.52,2.195,0,104,104,5,1,6,congruent,up,up,congruent,Stim/Acon.png,up,0,0.1,0,1,1000,congruent,right,left,incongruent,Stim/Acon.png,left,0.1,0,90,3,2000,stimuli\\,,,,,,,,,,,,
,,,,,,,,,,zyx,1,2024-06-28_18h58.40.830,DCT_v1_online,2021.2.3,Win32,60.04563468,,,0.094,2.256,250,up,1,0.9562,right,0,1.0347,2.406,0,105,105,108,1,109,incongruent,down,up,incongruent,Stim/Aincon.png,up,0,-0.1,0,7,100,incongruent,right,left,incongruent,Stim/Aincon.png,left,0.1,0,90,7,2000,stimuli\\,,,,,,,,,,,,
,,,,,,,,,,zyx,1,2024-06-28_18h58.40.830,DCT_v1_online,2021.2.3,Win32,60.04563468,,,0.461,2.789,251,down,1,0.6234,left,1,0.6286,2.039,0,106,106,89,1,90,incongruent,up,down,incongruent,Stim/Aincon.png,down,0,0.1,180,6,1000,incongruent,left,left,congruent,Stim/Aincon.png,left,-0.1,0,90,5,2000,stimuli\\,,,,,,,,,,,,
,,,,,,,,,,zyx,1,2024-06-28_18h58.40.830,DCT_v1_online,2021.2.3,Win32,60.04563468,,,0.225,2.125,252,down,1,0.7174,right,1,0.7955,2.275,0,107,107,30,1,31,congruent,up,down,incongruent,Stim/Acon.png,down,0,0.1,180,2,100,incongruent,right,right,congruent,Stim/Aincon.png,right,0.1,0,-90,8,2000,stimuli\\,,,,,,,,,,,,
,,,,,,,,,,zyx,1,2024-06-28_18h58.40.830,DCT_v1_online,2021.2.3,Win32,60.04563468,,,0.12,3.13,253,down,1,0.8348,right,1,0.6255,2.38,0,108,108,123,1,124,incongruent,down,down,congruent,Stim/Aincon.png,down,0,-0.1,180,8,1000,incongruent,left,right,incongruent,Stim/Aincon.png,right,-0.1,0,-90,6,2000,stimuli\\,,,,,,,,,,,,
,,,,,,,,,,zyx,1,2024-06-28_18h58.40.830,DCT_v1_online,2021.2.3,Win32,60.04563468,,,0.008,3.242,254,down,1,0.6016,left,1,0.5692,2.492,0,109,109,25,1,26,congruent,up,down,incongruent,Stim/Acon.png,down,0,0.1,180,2,1000,incongruent,left,left,congruent,Stim/Aincon.png,left,-0.1,0,90,5,2000,stimuli\\,,,,,,,,,,,,
,,,,,,,,,,zyx,1,2024-06-28_18h58.40.830,DCT_v1_online,2021.2.3,Win32,60.04563468,,,0.457,1.893,255,down,1,0.6738,right,1,0.7526,2.043,0,110,110,86,1,87,incongruent,up,down,incongruent,Stim/Aincon.png,down,0,0.1,180,6,100,congruent,right,right,congruent,Stim/Acon.png,right,0.1,0,-90,4,2000,stimuli\\,,,,,,,,,,,,
,,,,,,,,,,zyx,1,2024-06-28_18h58.40.830,DCT_v1_online,2021.2.3,Win32,60.04563468,,,0.46,1.89,256,down,1,0.7859,right,1,0.8606,2.04,0,111,111,118,1,119,incongruent,down,down,congruent,Stim/Aincon.png,down,0,-0.1,180,8,100,congruent,right,right,congruent,Stim/Acon.png,right,0.1,0,-90,4,2000,stimuli\\,,,,,,,,,,,,
,,,,,,,,,,zyx,1,2024-06-28_18h58.40.830,DCT_v1_online,2021.2.3,Win32,60.04563468,,,0.082,2.268,257,down,1,0.8011,right,1,0.9415,2.418,0,112,112,62,1,63,congruent,down,down,congruent,Stim/Acon.png,down,0,-0.1,180,4,100,incongruent,right,right,congruent,Stim/Aincon.png,right,0.1,0,-90,8,2000,stimuli\\,,,,,,,,,,,,
,,,,,,,,,,zyx,1,2024-06-28_18h58.40.830,DCT_v1_online,2021.2.3,Win32,60.04563468,,,0.32,2.03,258,up,1,0.8838,left,1,1.1173,2.18,0,113,113,76,1,77,incongruent,up,up,congruent,Stim/Aincon.png,up,0,0.1,0,5,100,incongruent,right,left,incongruent,Stim/Aincon.png,left,0.1,0,90,7,2000,stimuli\\,,,,,,,,,,,,
,,,,,,,,,,zyx,1,2024-06-28_18h58.40.830,DCT_v1_online,2021.2.3,Win32,60.04563468,,,0.19,3.06,259,up,1,0.6355,left,1,0.7088,2.31,0,114,114,45,1,46,congruent,down,up,incongruent,Stim/Acon.png,up,0,-0.1,0,3,1000,incongruent,right,left,incongruent,Stim/Aincon.png,left,0.1,0,90,7,2000,stimuli\\,,,,,,,,,,,,
,,,,,,,,,,zyx,1,2024-06-28_18h58.40.830,DCT_v1_online,2021.2.3,Win32,60.04563468,,,0.236,2.114,260,up,1,0.7555,left,1,0.8406,2.264,0,115,115,64,1,65,incongruent,up,up,congruent,Stim/Aincon.png,up,0,0.1,0,5,100,congruent,left,left,congruent,Stim/Acon.png,left,-0.1,0,90,1,2000,stimuli\\,,,,,,,,,,,,
,,,,,,,,,,zyx,1,2024-06-28_18h58.40.830,DCT_v1_online,2021.2.3,Win32,60.04563468,,,0.43,1.92,261,up,1,0.853,left,1,0.9095,2.07,0,116,116,72,1,73,incongruent,up,up,congruent,Stim/Aincon.png,up,0,0.1,0,5,100,incongruent,left,left,congruent,Stim/Aincon.png,left,-0.1,0,90,5,2000,stimuli\\,,,,,,,,,,,,
,,,,,,,,,,zyx,1,2024-06-28_18h58.40.830,DCT_v1_online,2021.2.3,Win32,60.04563468,,,0.073,2.277,262,down,1,0.9843,left,1,0.9973,2.427,0,117,117,80,1,81,incongruent,up,down,incongruent,Stim/Aincon.png,down,0,0.1,180,6,100,congruent,left,left,congruent,Stim/Acon.png,left,-0.1,0,90,1,2000,stimuli\\,,,,,,,,,,,,
,,,,,,,,,,zyx,1,2024-06-28_18h58.40.830,DCT_v1_online,2021.2.3,Win32,60.04563468,,,0.401,2.849,263,up,1,0.7841,right,1,0.4838,2.099,0,118,118,99,1,100,incongruent,down,up,incongruent,Stim/Aincon.png,up,0,-0.1,0,7,1000,congruent,left,right,incongruent,Stim/Acon.png,right,-0.1,0,-90,2,2000,stimuli\\,,,,,,,,,,,,
,,,,,,,,,,zyx,1,2024-06-28_18h58.40.830,DCT_v1_online,2021.2.3,Win32,60.04563468,,,0.203,2.147,264,up,1,0.8586,right,1,0.9383,2.297,0,119,119,102,1,103,incongruent,down,up,incongruent,Stim/Aincon.png,up,0,-0.1,0,7,100,congruent,right,right,congruent,Stim/Acon.png,right,0.1,0,-90,4,2000,stimuli\\,,,,,,,,,,,,
,,,,,,,,,,zyx,1,2024-06-28_18h58.40.830,DCT_v1_online,2021.2.3,Win32,60.04563468,,,0.164,2.186,265,up,1,1.0012,right,1,1.1499,2.336,0,120,120,46,1,47,congruent,down,up,incongruent,Stim/Acon.png,up,0,-0.1,0,3,100,incongruent,right,right,congruent,Stim/Aincon.png,right,0.1,0,-90,8,2000,stimuli\\,,,,,,,,,,,,
,,,,,,,,,,zyx,1,2024-06-28_18h58.40.830,DCT_v1_online,2021.2.3,Win32,60.04563468,,,0.145,2.205,266,up,1,0.8413,right,1,0.8839,2.355,0,121,121,34,1,35,congruent,down,up,incongruent,Stim/Acon.png,up,0,-0.1,0,3,100,congruent,left,right,incongruent,Stim/Acon.png,right,-0.1,0,-90,2,2000,stimuli\\,,,,,,,,,,,,
,,,,,,,,,,zyx,1,2024-06-28_18h58.40.830,DCT_v1_online,2021.2.3,Win32,60.04563468,,,0.003,2.347,267,up,1,0.8863,right,0,1.0352,2.497,0,122,122,104,1,105,incongruent,down,up,incongruent,Stim/Aincon.png,up,0,-0.1,0,7,100,incongruent,left,left,congruent,Stim/Aincon.png,left,-0.1,0,90,5,2000,stimuli\\,,,,,,,,,,,,
,,,,,,,,,,zyx,1,2024-06-28_18h58.40.830,DCT_v1_online,2021.2.3,Win32,60.04563468,,,0.496,2.754,268,up,1,0.8382,left,0,0.4957,2.004,0,123,123,111,1,112,incongruent,down,up,incongruent,Stim/Aincon.png,up,0,-0.1,0,7,1000,incongruent,right,right,congruent,Stim/Aincon.png,right,0.1,0,-90,8,2000,stimuli\\,,,,,,,,,,,,
,,,,,,,,,,zyx,1,2024-06-28_18h58.40.830,DCT_v1_online,2021.2.3,Win32,60.04563468,,,0.317,2.033,269,up,1,0.676,left,1,0.735,2.183,0,124,124,4,1,5,congruent,up,up,congruent,Stim/Acon.png,up,0,0.1,0,1,100,congruent,right,left,incongruent,Stim/Acon.png,left,0.1,0,90,3,2000,stimuli\\,,,,,,,,,,,,
,,,,,,,,,,zyx,1,2024-06-28_18h58.40.830,DCT_v1_online,2021.2.3,Win32,60.04563468,,,0.481,2.769,270,up,1,0.626,right,1,0.6243,2.019,0,125,125,15,1,16,congruent,up,up,congruent,Stim/Acon.png,up,0,0.1,0,1,1000,incongruent,right,right,congruent,Stim/Aincon.png,right,0.1,0,-90,8,2000,stimuli\\,,,,,,,,,,,,
,,,,,,,,,,zyx,1,2024-06-28_18h58.40.830,DCT_v1_online,2021.2.3,Win32,60.04563468,,,0.224,2.126,271,up,1,0.569,right,1,0.8016,2.276,0,126,126,10,1,11,congruent,up,up,congruent,Stim/Acon.png,up,0,0.1,0,1,100,incongruent,left,right,incongruent,Stim/Aincon.png,right,-0.1,0,-90,6,2000,stimuli\\,,,,,,,,,,,,
,,,,,,,,,,zyx,1,2024-06-28_18h58.40.830,DCT_v1_online,2021.2.3,Win32,60.04563468,,,0.29,2.06,272,down,1,0.961,right,0,1.1185,2.21,0,127,127,124,1,125,incongruent,down,down,congruent,Stim/Aincon.png,down,0,-0.1,180,8,100,incongruent,right,left,incongruent,Stim/Aincon.png,left,0.1,0,90,7,2000,stimuli\\,,,,,,,,,,,,
,,,,,,,,,,zyx,1,2024-06-28_18h58.40.830,DCT_v1_online,2021.2.3,Win32,60.04563468,,,,,,,,,,,,,,,,,,,,,,,,,,,,,,,,,,,,,,,,,,space,2.3388,0,2,2,2,1,Instructions/i6.png,test,conditions/block1.xlsx,1.2,0.5
,,,,,,,,,,zyx,1,2024-06-28_18h58.40.830,DCT_v1_online,2021.2.3,Win32,60.04563468,space,0.6745,0.049,3.201,273,up,1,0.5852,right,1,0.5918,2.451,0,0,0,15,1,16,congruent,up,up,congruent,Stim/Acon.png,up,0,0.1,0,1,1000,incongruent,right,right,congruent,Stim/Aincon.png,right,0.1,0,-90,8,2000,stimuli\\,,,,,,,,,,,,
,,,,,,,,,,zyx,1,2024-06-28_18h58.40.830,DCT_v1_online,2021.2.3,Win32,60.04563468,,,0.363,1.987,274,down,1,0.8035,right,1,0.9673,2.137,0,1,1,58,1,59,congruent,down,down,congruent,Stim/Acon.png,down,0,-0.1,180,4,100,incongruent,left,right,incongruent,Stim/Aincon.png,right,-0.1,0,-90,6,2000,stimuli\\,,,,,,,,,,,,
,,,,,,,,,,zyx,1,2024-06-28_18h58.40.830,DCT_v1_online,2021.2.3,Win32,60.04563468,,,0.284,2.966,275,up,1,0.836,right,1,0.4882,2.216,0,2,2,107,1,108,incongruent,down,up,incongruent,Stim/Aincon.png,up,0,-0.1,0,7,1000,incongruent,left,right,incongruent,Stim/Aincon.png,right,-0.1,0,-90,6,2000,stimuli\\,,,,,,,,,,,,
,,,,,,,,,,zyx,1,2024-06-28_18h58.40.830,DCT_v1_online,2021.2.3,Win32,60.04563468,,,0.186,2.164,276,up,1,0.6741,right,1,0.6847,2.314,0,3,3,102,1,103,incongruent,down,up,incongruent,Stim/Aincon.png,up,0,-0.1,0,7,100,congruent,right,right,congruent,Stim/Acon.png,right,0.1,0,-90,4,2000,stimuli\\,,,,,,,,,,,,
,,,,,,,,,,zyx,1,2024-06-28_18h58.40.830,DCT_v1_online,2021.2.3,Win32,60.04563468,,,0.153,3.097,277,down,1,0.7415,left,1,0.602,2.347,0,4,4,121,1,122,incongruent,down,down,congruent,Stim/Aincon.png,down,0,-0.1,180,8,1000,incongruent,left,left,congruent,Stim/Aincon.png,left,-0.1,0,90,5,2000,stimuli\\,,,,,,,,,,,,
,,,,,,,,,,zyx,1,2024-06-28_18h58.40.830,DCT_v1_online,2021.2.3,Win32,60.04563468,,,0.129,2.221,278,down,1,0.6921,right,1,0.7169,2.371,0,5,5,54,1,55,congruent,down,down,congruent,Stim/Acon.png,down,0,-0.1,180,4,100,congruent,right,right,congruent,Stim/Acon.png,right,0.1,0,-90,4,2000,stimuli\\,,,,,,,,,,,,
,,,,,,,,,,zyx,1,2024-06-28_18h58.40.830,DCT_v1_online,2021.2.3,Win32,60.04563468,,,0.301,2.049,279,up,1,0.8076,left,1,1.0082,2.199,0,6,6,96,1,97,incongruent,down,up,incongruent,Stim/Aincon.png,up,0,-0.1,0,7,100,congruent,left,left,congruent,Stim/Acon.png,left,-0.1,0,90,1,2000,stimuli\\,,,,,,,,,,,,
,,,,,,,,,,zyx,1,2024-06-28_18h58.40.830,DCT_v1_online,2021.2.3,Win32,60.04563468,,,0.345,2.905,280,up,1,0.5061,left,1,0.5075,2.155,0,7,7,5,1,6,congruent,up,up,congruent,Stim/Acon.png,up,0,0.1,0,1,1000,congruent,right,left,incongruent,Stim/Acon.png,left,0.1,0,90,3,2000,stimuli\\,,,,,,,,,,,,
,,,,,,,,,,zyx,1,2024-06-28_18h58.40.830,DCT_v1_online,2021.2.3,Win32,60.04563468,,,0.499,2.751,281,up,1,0.52,right,1,0.5012,2.001,0,8,8,3,1,4,congruent,up,up,congruent,Stim/Acon.png,up,0,0.1,0,1,1000,congruent,left,right,incongruent,Stim/Acon.png,right,-0.1,0,-90,2,2000,stimuli\\,,,,,,,,,,,,
,,,,,,,,,,zyx,1,2024-06-28_18h58.40.830,DCT_v1_online,2021.2.3,Win32,60.04563468,,,0.093,2.257,282,up,1,0.6689,right,0,0.6848,2.407,0,9,9,44,1,45,congruent,down,up,incongruent,Stim/Acon.png,up,0,-0.1,0,3,100,incongruent,right,left,incongruent,Stim/Aincon.png,left,0.1,0,90,7,2000,stimuli\\,,,,,,,,,,,,
,,,,,,,,,,zyx,1,2024-06-28_18h58.40.830,DCT_v1_online,2021.2.3,Win32,60.04563468,,,0.039,2.311,283,up,1,0.7944,right,1,0.8898,2.461,0,10,10,98,1,99,incongruent,down,up,incongruent,Stim/Aincon.png,up,0,-0.1,0,7,100,congruent,left,right,incongruent,Stim/Acon.png,right,-0.1,0,-90,2,2000,stimuli\\,,,,,,,,,,,,
,,,,,,,,,,zyx,1,2024-06-28_18h58.40.830,DCT_v1_online,2021.2.3,Win32,60.04563468,,,0.354,1.996,284,up,1,0.5958,right,0,0.6739,2.146,0,11,11,40,1,41,congruent,down,up,incongruent,Stim/Acon.png,up,0,-0.1,0,3,100,incongruent,left,left,congruent,Stim/Aincon.png,left,-0.1,0,90,5,2000,stimuli\\,,,,,,,,,,,,
,,,,,,,,,,zyx,1,2024-06-28_18h58.40.830,DCT_v1_online,2021.2.3,Win32,60.04563468,,,0.363,2.887,285,up,1,0.786,left,1,0.5022,2.137,0,12,12,101,1,102,incongruent,down,up,incongruent,Stim/Aincon.png,up,0,-0.1,0,7,1000,congruent,right,left,incongruent,Stim/Acon.png,left,0.1,0,90,3,2000,stimuli\\,,,,,,,,,,,,
,,,,,,,,,,zyx,1,2024-06-28_18h58.40.830,DCT_v1_online,2021.2.3,Win32,60.04563468,,,0.467,1.883,286,down,1,0.725,right,0,0.7617,2.033,0,13,13,56,1,57,congruent,down,down,congruent,Stim/Acon.png,down,0,-0.1,180,4,100,incongruent,left,left,congruent,Stim/Aincon.png,left,-0.1,0,90,5,2000,stimuli\\,,,,,,,,,,,,
,,,,,,,,,,zyx,1,2024-06-28_18h58.40.830,DCT_v1_online,2021.2.3,Win32,60.04563468,,,0.395,2.855,287,down,1,0.8251,left,1,0.5069,2.105,0,14,14,117,1,118,incongruent,down,down,congruent,Stim/Aincon.png,down,0,-0.1,180,8,1000,congruent,right,left,incongruent,Stim/Acon.png,left,0.1,0,90,3,2000,stimuli\\,,,,,,,,,,,,
,,,,,,,,,,zyx,1,2024-06-28_18h58.40.830,DCT_v1_online,2021.2.3,Win32,60.04563468,,,0.23,2.12,288,down,1,0.8198,left,1,0.8353,2.27,0,15,15,80,1,81,incongruent,up,down,incongruent,Stim/Aincon.png,down,0,0.1,180,6,100,congruent,left,left,congruent,Stim/Acon.png,left,-0.1,0,90,1,2000,stimuli\\,,,,,,,,,,,,
,,,,,,,,,,zyx,1,2024-06-28_18h58.40.830,DCT_v1_online,2021.2.3,Win32,60.04563468,,,0.094,2.256,289,up,1,0.8026,right,1,0.891,2.406,0,16,16,74,1,75,incongruent,up,up,congruent,Stim/Aincon.png,up,0,0.1,0,5,100,incongruent,left,right,incongruent,Stim/Aincon.png,right,-0.1,0,-90,6,2000,stimuli\\,,,,,,,,,,,,
,,,,,,,,,,zyx,1,2024-06-28_18h58.40.830,DCT_v1_online,2021.2.3,Win32,60.04563468,,,0.172,2.178,290,down,1,0.6889,right,1,0.7669,2.328,0,17,17,26,1,27,congruent,up,down,incongruent,Stim/Acon.png,down,0,0.1,180,2,100,incongruent,left,right,incongruent,Stim/Aincon.png,right,-0.1,0,-90,6,2000,stimuli\\,,,,,,,,,,,,
,,,,,,,,,,zyx,1,2024-06-28_18h58.40.830,DCT_v1_online,2021.2.3,Win32,60.04563468,,,0.258,2.992,291,down,1,0.5221,right,1,0.5156,2.242,0,18,18,23,1,24,congruent,up,down,incongruent,Stim/Acon.png,down,0,0.1,180,2,1000,congruent,right,right,congruent,Stim/Acon.png,right,0.1,0,-90,4,2000,stimuli\\,,,,,,,,,,,,
,,,,,,,,,,zyx,1,2024-06-28_18h58.40.830,DCT_v1_online,2021.2.3,Win32,60.04563468,,,0.371,1.979,292,down,1,0.75,left,1,0.7778,2.129,0,19,19,52,1,53,congruent,down,down,congruent,Stim/Acon.png,down,0,-0.1,180,4,100,congruent,right,left,incongruent,Stim/Acon.png,left,0.1,0,90,3,2000,stimuli\\,,,,,,,,,,,,
,,,,,,,,,,zyx,1,2024-06-28_18h58.40.830,DCT_v1_online,2021.2.3,Win32,60.04563468,,,0.478,2.772,293,down,1,0.5743,left,1,0.5353,2.022,0,20,20,21,1,22,congruent,up,down,incongruent,Stim/Acon.png,down,0,0.1,180,2,1000,congruent,right,left,incongruent,Stim/Acon.png,left,0.1,0,90,3,2000,stimuli\\,,,,,,,,,,,,
,,,,,,,,,,zyx,1,2024-06-28_18h58.40.830,DCT_v1_online,2021.2.3,Win32,60.04563468,,,0.159,2.191,294,down,1,0.8919,right,1,1.0355,2.341,0,21,21,126,1,127,incongruent,down,down,congruent,Stim/Aincon.png,down,0,-0.1,180,8,100,incongruent,right,right,congruent,Stim/Aincon.png,right,0.1,0,-90,8,2000,stimuli\\,,,,,,,,,,,,
,,,,,,,,,,zyx,1,2024-06-28_18h58.40.830,DCT_v1_online,2021.2.3,Win32,60.04563468,,,0.015,3.235,295,down,1,0.7081,right,1,0.4522,2.485,0,22,22,115,1,116,incongruent,down,down,congruent,Stim/Aincon.png,down,0,-0.1,180,8,1000,congruent,left,right,incongruent,Stim/Acon.png,right,-0.1,0,-90,2,2000,stimuli\\,,,,,,,,,,,,
,,,,,,,,,,zyx,1,2024-06-28_18h58.40.830,DCT_v1_online,2021.2.3,Win32,60.04563468,,,0.242,2.108,296,up,1,0.9741,right,1,1.0223,2.258,0,23,23,66,1,67,incongruent,up,up,congruent,Stim/Aincon.png,up,0,0.1,0,5,100,congruent,left,right,incongruent,Stim/Acon.png,right,-0.1,0,-90,2,2000,stimuli\\,,,,,,,,,,,,
,,,,,,,,,,zyx,1,2024-06-28_18h58.40.830,DCT_v1_online,2021.2.3,Win32,60.04563468,,,0.212,2.138,297,up,1,0.5959,right,1,0.6339,2.288,0,24,24,6,1,7,congruent,up,up,congruent,Stim/Acon.png,up,0,0.1,0,1,100,congruent,right,right,congruent,Stim/Acon.png,right,0.1,0,-90,4,2000,stimuli\\,,,,,,,,,,,,
,,,,,,,,,,zyx,1,2024-06-28_18h58.40.830,DCT_v1_online,2021.2.3,Win32,60.04563468,,,0.093,2.257,298,up,1,0.6006,left,1,0.7352,2.407,0,25,25,32,1,33,congruent,down,up,incongruent,Stim/Acon.png,up,0,-0.1,0,3,100,congruent,left,left,congruent,Stim/Acon.png,left,-0.1,0,90,1,2000,stimuli\\,,,,,,,,,,,,
,,,,,,,,,,zyx,1,2024-06-28_18h58.40.830,DCT_v1_online,2021.2.3,Win32,60.04563468,,,0.399,1.951,299,up,1,0.5672,right,1,0.6652,2.101,0,26,26,14,1,15,congruent,up,up,congruent,Stim/Acon.png,up,0,0.1,0,1,100,incongruent,right,right,congruent,Stim/Aincon.png,right,0.1,0,-90,8,2000,stimuli\\,,,,,,,,,,,,
,,,,,,,,,,zyx,1,2024-06-28_18h58.40.830,DCT_v1_online,2021.2.3,Win32,60.04563468,,,0.252,2.998,300,down,1,0.6844,right,1,0.668,2.248,0,27,27,127,1,128,incongruent,down,down,congruent,Stim/Aincon.png,down,0,-0.1,180,8,1000,incongruent,right,right,congruent,Stim/Aincon.png,right,0.1,0,-90,8,2000,stimuli\\,,,,,,,,,,,,
,,,,,,,,,,zyx,1,2024-06-28_18h58.40.830,DCT_v1_online,2021.2.3,Win32,60.04563468,,,0.149,2.201,301,up,1,0.7921,right,1,0.818,2.351,0,28,28,34,1,35,congruent,down,up,incongruent,Stim/Acon.png,up,0,-0.1,0,3,100,congruent,left,right,incongruent,Stim/Acon.png,right,-0.1,0,-90,2,2000,stimuli\\,,,,,,,,,,,,
,,,,,,,,,,zyx,1,2024-06-28_18h58.40.830,DCT_v1_online,2021.2.3,Win32,60.04563468,,,0.33,2.92,302,down,1,0.6334,left,0,0.6177,2.17,0,29,29,31,1,32,congruent,up,down,incongruent,Stim/Acon.png,down,0,0.1,180,2,1000,incongruent,right,right,congruent,Stim/Aincon.png,right,0.1,0,-90,8,2000,stimuli\\,,,,,,,,,,,,
,,,,,,,,,,zyx,1,2024-06-28_18h58.40.830,DCT_v1_online,2021.2.3,Win32,60.04563468,,,0.324,2.026,303,up,1,0.658,right,0,0.7358,2.176,0,30,30,76,1,77,incongruent,up,up,congruent,Stim/Aincon.png,up,0,0.1,0,5,100,incongruent,right,left,incongruent,Stim/Aincon.png,left,0.1,0,90,7,2000,stimuli\\,,,,,,,,,,,,
,,,,,,,,,,zyx,1,2024-06-28_18h58.40.830,DCT_v1_online,2021.2.3,Win32,60.04563468,,,0.346,2.904,304,down,1,0.5212,right,1,0.6345,2.154,0,31,31,95,1,96,incongruent,up,down,incongruent,Stim/Aincon.png,down,0,0.1,180,6,1000,incongruent,right,right,congruent,Stim/Aincon.png,right,0.1,0,-90,8,2000,stimuli\\,,,,,,,,,,,,
,,,,,,,,,,zyx,1,2024-06-28_18h58.40.830,DCT_v1_online,2021.2.3,Win32,60.04563468,,,0.249,2.101,305,down,1,0.8582,left,1,0.9531,2.251,0,32,32,116,1,117,incongruent,down,down,congruent,Stim/Aincon.png,down,0,-0.1,180,8,100,congruent,right,left,incongruent,Stim/Acon.png,left,0.1,0,90,3,2000,stimuli\\,,,,,,,,,,,,
,,,,,,,,,,zyx,1,2024-06-28_18h58.40.830,DCT_v1_online,2021.2.3,Win32,60.04563468,,,0.494,1.856,306,down,1,0.5919,left,1,0.6698,2.006,0,33,33,28,1,29,congruent,up,down,incongruent,Stim/Acon.png,down,0,0.1,180,2,100,incongruent,right,left,incongruent,Stim/Aincon.png,left,0.1,0,90,7,2000,stimuli\\,,,,,,,,,,,,
,,,,,,,,,,zyx,1,2024-06-28_18h58.40.830,DCT_v1_online,2021.2.3,Win32,60.04563468,,,0.051,3.199,307,down,1,0.7169,right,1,0.4843,2.449,0,34,34,119,1,120,incongruent,down,down,congruent,Stim/Aincon.png,down,0,-0.1,180,8,1000,congruent,right,right,congruent,Stim/Acon.png,right,0.1,0,-90,4,2000,stimuli\\,,,,,,,,,,,,
,,,,,,,,,,zyx,1,2024-06-28_18h58.40.830,DCT_v1_online,2021.2.3,Win32,60.04563468,,,0.024,3.226,308,up,1,0.6352,left,0,0.5097,2.476,0,35,35,47,1,48,congruent,down,up,incongruent,Stim/Acon.png,up,0,-0.1,0,3,1000,incongruent,right,right,congruent,Stim/Aincon.png,right,0.1,0,-90,8,2000,stimuli\\,,,,,,,,,,,,
,,,,,,,,,,zyx,1,2024-06-28_18h58.40.830,DCT_v1_online,2021.2.3,Win32,60.04563468,,,0.326,2.924,309,down,1,0.6242,right,1,0.5383,2.174,0,36,36,87,1,88,incongruent,up,down,incongruent,Stim/Aincon.png,down,0,0.1,180,6,1000,congruent,right,right,congruent,Stim/Acon.png,right,0.1,0,-90,4,2000,stimuli\\,,,,,,,,,,,,
,,,,,,,,,,zyx,1,2024-06-28_18h58.40.830,DCT_v1_online,2021.2.3,Win32,60.04563468,,,0.467,1.883,310,down,1,0.8573,left,0,1.0729,2.033,0,37,37,62,1,63,congruent,down,down,congruent,Stim/Acon.png,down,0,-0.1,180,4,100,incongruent,right,right,congruent,Stim/Aincon.png,right,0.1,0,-90,8,2000,stimuli\\,,,,,,,,,,,,
,,,,,,,,,,zyx,1,2024-06-28_18h58.40.830,DCT_v1_online,2021.2.3,Win32,60.04563468,,,0.101,2.249,311,down,1,0.7181,right,0,0.9607,2.399,0,38,38,24,1,25,congruent,up,down,incongruent,Stim/Acon.png,down,0,0.1,180,2,100,incongruent,left,left,congruent,Stim/Aincon.png,left,-0.1,0,90,5,2000,stimuli\\,,,,,,,,,,,,
,,,,,,,,,,zyx,1,2024-06-28_18h58.40.830,DCT_v1_online,2021.2.3,Win32,60.04563468,,,0.241,2.109,312,down,1,0.7038,left,0,0.8923,2.259,0,39,39,90,1,91,incongruent,up,down,incongruent,Stim/Aincon.png,down,0,0.1,180,6,100,incongruent,left,right,incongruent,Stim/Aincon.png,right,-0.1,0,-90,6,2000,stimuli\\,,,,,,,,,,,,
,,,,,,,,,,zyx,1,2024-06-28_18h58.40.830,DCT_v1_online,2021.2.3,Win32,60.04563468,,,0.312,2.938,313,up,1,0.6352,right,1,0.5506,2.188,0,40,40,39,1,40,congruent,down,up,incongruent,Stim/Acon.png,up,0,-0.1,0,3,1000,congruent,right,right,congruent,Stim/Acon.png,right,0.1,0,-90,4,2000,stimuli\\,,,,,,,,,,,,
,,,,,,,,,,zyx,1,2024-06-28_18h58.40.830,DCT_v1_online,2021.2.3,Win32,60.04563468,,,0.014,2.336,314,down,1,0.6512,right,0,0.8154,2.486,0,41,41,120,1,121,incongruent,down,down,congruent,Stim/Aincon.png,down,0,-0.1,180,8,100,incongruent,left,left,congruent,Stim/Aincon.png,left,-0.1,0,90,5,2000,stimuli\\,,,,,,,,,,,,
,,,,,,,,,,zyx,1,2024-06-28_18h58.40.830,DCT_v1_online,2021.2.3,Win32,60.04563468,,,0.356,2.894,315,up,1,0.7841,left,1,0.6692,2.144,0,42,42,77,1,78,incongruent,up,up,congruent,Stim/Aincon.png,up,0,0.1,0,5,1000,incongruent,right,left,incongruent,Stim/Aincon.png,left,0.1,0,90,7,2000,stimuli\\,,,,,,,,,,,,
,,,,,,,,,,zyx,1,2024-06-28_18h58.40.830,DCT_v1_online,2021.2.3,Win32,60.04563468,,,0.002,3.248,316,up,1,0.7654,right,1,0.525,2.498,0,43,43,103,1,104,incongruent,down,up,incongruent,Stim/Aincon.png,up,0,-0.1,0,7,1000,congruent,right,right,congruent,Stim/Acon.png,right,0.1,0,-90,4,2000,stimuli\\,,,,,,,,,,,,
,,,,,,,,,,zyx,1,2024-06-28_18h58.40.830,DCT_v1_online,2021.2.3,Win32,60.04563468,,,0.003,3.247,317,down,1,0.606,left,1,0.4845,2.497,0,44,44,85,1,86,incongruent,up,down,incongruent,Stim/Aincon.png,down,0,0.1,180,6,1000,congruent,right,left,incongruent,Stim/Acon.png,left,0.1,0,90,3,2000,stimuli\\,,,,,,,,,,,,
,,,,,,,,,,zyx,1,2024-06-28_18h58.40.830,DCT_v1_online,2021.2.3,Win32,60.04563468,,,0.477,1.873,318,down,1,0.6833,left,1,0.6899,2.023,0,45,45,20,1,21,congruent,up,down,incongruent,Stim/Acon.png,down,0,0.1,180,2,100,congruent,right,left,incongruent,Stim/Acon.png,left,0.1,0,90,3,2000,stimuli\\,,,,,,,,,,,,
,,,,,,,,,,zyx,1,2024-06-28_18h58.40.830,DCT_v1_online,2021.2.3,Win32,60.04563468,,,0.187,3.063,319,up,1,0.6202,left,1,0.4528,2.313,0,46,46,65,1,66,incongruent,up,up,congruent,Stim/Aincon.png,up,0,0.1,0,5,1000,congruent,left,left,congruent,Stim/Acon.png,left,-0.1,0,90,1,2000,stimuli\\,,,,,,,,,,,,
,,,,,,,,,,zyx,1,2024-06-28_18h58.40.830,DCT_v1_online,2021.2.3,Win32,60.04563468,,,0.274,2.976,320,up,1,0.7674,right,1,0.5911,2.226,0,47,47,99,1,100,incongruent,down,up,incongruent,Stim/Aincon.png,up,0,-0.1,0,7,1000,congruent,left,right,incongruent,Stim/Acon.png,right,-0.1,0,-90,2,2000,stimuli\\,,,,,,,,,,,,
