﻿key_resp.keys,key_resp.rt,trials_2.thisRepN,trials_2.thisTrialN,trials_2.thisN,trials_2.thisIndex,trials_2.ran,stim_ins,size_insrx,size_insry,name,session,date,expName,psychopyVersion,OS,frameRate,key_resp_2.keys,key_resp_2.rt,注视点1,试次呈现时间+注视点2,count,key_resp_T1.keys,key_resp_T1.corr,key_resp_T2.keys,key_resp_T2.corr,trials.thisRepN,trials.thisTrialN,trials.thisN,trials.thisIndex,trials.ran,TrialNumber,FlankerConditionT1,LocationT1,DirectionT1,LocationConditionT1,ImageT1,CorrectAnswerT1,PositionT1x,PositionT1y,anglefilpT1,ConditionT1,IntervalT1toT2,FlankerConditionT2,LocationT2,DirectionT2,LocationConditionT2,ImageT2,CorrectAnswerT2,PositionT2x,PositionT2y,anglefilpT2,ConditionT2,DurationFixation,TargetFilePath,key_resp_T1.rt,key_resp_T2.rt,注视点2,key_resp_3.keys,key_resp_3.rt,trials_3.thisRepN,trials_3.thisTrialN,trials_3.thisN,trials_3.thisIndex,trials_3.ran,instr_p_t,block_type,cond,size_p_tx,size_p_ty
space,5.2063,0,0,0,0,1,Instructions/i1.png,1,0.4,dyl,1,2024-06-27_20h31.58.552,DCT_v1_online,2021.2.3,Win32,144.6131598,,,,,,,,,,,,,,,,,,,,,,,,,,,,,,,,,,,,,,,,,,,,,,,,,,,,,
space,29.2586,0,1,1,1,1,Instructions/i2.png,1.4,0.85,dyl,1,2024-06-27_20h31.58.552,DCT_v1_online,2021.2.3,Win32,144.6131598,,,,,,,,,,,,,,,,,,,,,,,,,,,,,,,,,,,,,,,,,,,,,,,,,,,,,
space,1.7689,0,2,2,2,1,Instructions/i3.png,1.2,0.85,dyl,1,2024-06-27_20h31.58.552,DCT_v1_online,2021.2.3,Win32,144.6131598,,,,,,,,,,,,,,,,,,,,,,,,,,,,,,,,,,,,,,,,,,,,,,,,,,,,,
,,,,,,,,,,dyl,1,2024-06-27_20h31.58.552,DCT_v1_online,2021.2.3,Win32,144.6131598,space,3.4668,0.238,2.112,1,,0,,0,0,0,0,2,1,17,congruent,up,down,incongruent,Stim/Acon.png,down,0,0.1,180,2,100,congruent,left,right,congruent,Stim/Acon.png,right,-0.1,0,-90,1,2000,stimuli\\,,,,,,,,,,,,,,,
,,,,,,,,,,dyl,1,2024-06-27_20h31.58.552,DCT_v1_online,2021.2.3,Win32,144.6131598,,,0.427,2.823,2,up,1,left,1,0,1,1,5,1,34,congruent,down,up,incongruent,Stim/Acon.png,up,0,-0.1,0,3,1000,incongruent,left,left,congruent,Stim/Aincon.png,left,-0.1,0,90,1,2000,stimuli\\,1.7236,0.9554,2.073,,,,,,,,,,,,
,,,,,,,,,,dyl,1,2024-06-27_20h31.58.552,DCT_v1_online,2021.2.3,Win32,144.6131598,,,0.418,2.832,3,up,1,right,1,0,2,2,9,1,66,incongruent,up,up,congruent,Stim/Aincon.png,up,0,0.1,0,5,1000,congruent,left,right,congruent,Stim/Acon.png,right,-0.1,0,-90,1,2000,stimuli\\,0.8076,0.5427,2.082,,,,,,,,,,,,
,,,,,,,,,,dyl,1,2024-06-27_20h31.58.552,DCT_v1_online,2021.2.3,Win32,144.6131598,,,0.045,2.305,4,up,1,right,1,0,3,3,0,1,1,congruent,up,up,congruent,Stim/Acon.png,up,0,0.1,0,1,100,congruent,left,right,congruent,Stim/Acon.png,right,-0.1,0,-90,1,2000,stimuli\\,0.7348,0.8472,2.455,,,,,,,,,,,,
,,,,,,,,,,dyl,1,2024-06-27_20h31.58.552,DCT_v1_online,2021.2.3,Win32,144.6131598,,,0.468,2.782,5,down,1,right,1,0,4,4,11,1,82,incongruent,up,down,incongruent,Stim/Aincon.png,down,0,0.1,180,6,1000,congruent,left,right,congruent,Stim/Acon.png,right,-0.1,0,-90,1,2000,stimuli\\,0.9495,0.677,2.032,,,,,,,,,,,,
,,,,,,,,,,dyl,1,2024-06-27_20h31.58.552,DCT_v1_online,2021.2.3,Win32,144.6131598,,,0.183,3.067,6,up,1,right,1,0,5,5,1,1,2,congruent,up,up,congruent,Stim/Acon.png,up,0,0.1,0,1,1000,congruent,left,right,congruent,Stim/Acon.png,right,-0.1,0,-90,1,2000,stimuli\\,0.7298,0.515,2.317,,,,,,,,,,,,
,,,,,,,,,,dyl,1,2024-06-27_20h31.58.552,DCT_v1_online,2021.2.3,Win32,144.6131598,,,0.492,1.858,7,up,1,right,1,0,6,6,8,1,65,incongruent,up,up,congruent,Stim/Aincon.png,up,0,0.1,0,5,100,congruent,left,right,congruent,Stim/Acon.png,right,-0.1,0,-90,1,2000,stimuli\\,0.8827,1.04,2.008,,,,,,,,,,,,
,,,,,,,,,,dyl,1,2024-06-27_20h31.58.552,DCT_v1_online,2021.2.3,Win32,144.6131598,,,0.082,2.268,8,up,1,left,1,0,7,7,12,1,111,incongruent,down,up,incongruent,Stim/Aincon.png,up,0,-0.1,0,7,100,incongruent,right,left,congruent,Stim/Aincon.png,left,0.1,0,90,8,2000,stimuli\\,1.2708,1.4605,2.418,,,,,,,,,,,,
,,,,,,,,,,dyl,1,2024-06-27_20h31.58.552,DCT_v1_online,2021.2.3,Win32,144.6131598,,,0.433,1.917,9,up,1,left,1,0,8,8,4,1,33,congruent,down,up,incongruent,Stim/Acon.png,up,0,-0.1,0,3,100,incongruent,left,left,congruent,Stim/Aincon.png,left,-0.1,0,90,1,2000,stimuli\\,0.849,1.2255,2.067,,,,,,,,,,,,
,,,,,,,,,,dyl,1,2024-06-27_20h31.58.552,DCT_v1_online,2021.2.3,Win32,144.6131598,,,0.427,2.823,10,up,1,right,0,0,9,9,13,1,112,incongruent,down,up,incongruent,Stim/Aincon.png,up,0,-0.1,0,7,1000,incongruent,right,left,congruent,Stim/Aincon.png,left,0.1,0,90,8,2000,stimuli\\,0.9215,0.5447,2.073,,,,,,,,,,,,
,,,,,,,,,,dyl,1,2024-06-27_20h31.58.552,DCT_v1_online,2021.2.3,Win32,144.6131598,,,0.285,2.965,11,down,1,right,1,0,10,10,3,1,18,congruent,up,down,incongruent,Stim/Acon.png,down,0,0.1,180,2,1000,congruent,left,right,congruent,Stim/Acon.png,right,-0.1,0,-90,1,2000,stimuli\\,0.6876,0.5659,2.215,,,,,,,,,,,,
,,,,,,,,,,dyl,1,2024-06-27_20h31.58.552,DCT_v1_online,2021.2.3,Win32,144.6131598,,,0.011,3.239,12,down,1,right,1,0,11,11,15,1,114,incongruent,down,down,congruent,Stim/Aincon.png,down,0,-0.1,180,8,1000,incongruent,left,right,congruent,Stim/Aincon.png,right,-0.1,0,-90,1,2000,stimuli\\,0.9374,0.5934,2.489,,,,,,,,,,,,
,,,,,,,,,,dyl,1,2024-06-27_20h31.58.552,DCT_v1_online,2021.2.3,Win32,144.6131598,,,0.134,3.116,13,down,1,left,1,0,12,12,7,1,50,congruent,down,down,congruent,Stim/Acon.png,down,0,-0.1,180,4,1000,incongruent,left,left,congruent,Stim/Aincon.png,left,-0.1,0,90,1,2000,stimuli\\,0.8505,0.5497,2.366,,,,,,,,,,,,
,,,,,,,,,,dyl,1,2024-06-27_20h31.58.552,DCT_v1_online,2021.2.3,Win32,144.6131598,,,0.001,2.349,14,down,1,right,1,0,13,13,10,1,81,incongruent,up,down,incongruent,Stim/Aincon.png,down,0,0.1,180,6,100,congruent,left,right,congruent,Stim/Acon.png,right,-0.1,0,-90,1,2000,stimuli\\,0.8223,0.9985,2.499,,,,,,,,,,,,
,,,,,,,,,,dyl,1,2024-06-27_20h31.58.552,DCT_v1_online,2021.2.3,Win32,144.6131598,,,0.424,1.926,15,down,1,left,1,0,14,14,6,1,49,congruent,down,down,congruent,Stim/Acon.png,down,0,-0.1,180,4,100,incongruent,left,left,congruent,Stim/Aincon.png,left,-0.1,0,90,1,2000,stimuli\\,0.9452,1.1168,2.076,,,,,,,,,,,,
,,,,,,,,,,dyl,1,2024-06-27_20h31.58.552,DCT_v1_online,2021.2.3,Win32,144.6131598,,,0.146,2.204,16,down,1,right,1,0,15,15,14,1,113,incongruent,down,down,congruent,Stim/Aincon.png,down,0,-0.1,180,8,100,incongruent,left,right,congruent,Stim/Aincon.png,right,-0.1,0,-90,1,2000,stimuli\\,0.8257,1.0354,2.354,,,,,,,,,,,,
,,,,,,,,,,dyl,1,2024-06-27_20h31.58.552,DCT_v1_online,2021.2.3,Win32,144.6131598,,,,,,,,,,,,,,,,,,,,,,,,,,,,,,,,,,,,,,,,,,space,17.1693,0,0,0,0,1,Instructions/i4.png,pra,conditions/blockpra.xlsx,0.8,0.45
,,,,,,,,,,dyl,1,2024-06-27_20h31.58.552,DCT_v1_online,2021.2.3,Win32,144.6131598,space,1.3734,0.425,2.825,17,up,1,right,1,0,0,0,3,1,4,congruent,up,up,congruent,Stim/Acon.png,up,0,0.1,0,1,1000,congruent,left,right,incongruent,Stim/Acon.png,right,-0.1,0,-90,2,2000,stimuli\\,0.6375,0.4948,2.075,,,,,,,,,,,,
,,,,,,,,,,dyl,1,2024-06-27_20h31.58.552,DCT_v1_online,2021.2.3,Win32,144.6131598,,,0.185,3.065,18,up,1,right,1,0,1,1,11,1,12,congruent,up,up,congruent,Stim/Acon.png,up,0,0.1,0,1,1000,incongruent,left,right,incongruent,Stim/Aincon.png,right,-0.1,0,-90,6,2000,stimuli\\,0.5584,0.651,2.315,,,,,,,,,,,,
,,,,,,,,,,dyl,1,2024-06-27_20h31.58.552,DCT_v1_online,2021.2.3,Win32,144.6131598,,,0.055,2.295,19,down,1,left,1,0,2,2,48,1,49,congruent,down,down,congruent,Stim/Acon.png,down,0,-0.1,180,4,100,congruent,left,left,congruent,Stim/Acon.png,left,-0.1,0,90,1,2000,stimuli\\,0.8606,1.0178,2.445,,,,,,,,,,,,
,,,,,,,,,,dyl,1,2024-06-27_20h31.58.552,DCT_v1_online,2021.2.3,Win32,144.6131598,,,0.103,3.147,20,down,1,left,1,0,3,3,81,1,82,incongruent,up,down,incongruent,Stim/Aincon.png,down,0,0.1,180,6,1000,congruent,left,left,congruent,Stim/Acon.png,left,-0.1,0,90,1,2000,stimuli\\,0.6864,0.4731,2.397,,,,,,,,,,,,
,,,,,,,,,,dyl,1,2024-06-27_20h31.58.552,DCT_v1_online,2021.2.3,Win32,144.6131598,,,0.326,2.024,21,down,1,right,1,0,4,4,54,1,55,congruent,down,down,congruent,Stim/Acon.png,down,0,-0.1,180,4,100,congruent,right,right,congruent,Stim/Acon.png,right,0.1,0,-90,4,2000,stimuli\\,0.7474,0.8701,2.174,,,,,,,,,,,,
,,,,,,,,,,dyl,1,2024-06-27_20h31.58.552,DCT_v1_online,2021.2.3,Win32,144.6131598,,,0.302,2.048,22,down,1,right,1,0,5,5,22,1,23,congruent,up,down,incongruent,Stim/Acon.png,down,0,0.1,180,2,100,congruent,right,right,congruent,Stim/Acon.png,right,0.1,0,-90,4,2000,stimuli\\,0.6579,0.7833,2.198,,,,,,,,,,,,
,,,,,,,,,,dyl,1,2024-06-27_20h31.58.552,DCT_v1_online,2021.2.3,Win32,144.6131598,,,0.044,2.306,23,down,1,left,1,0,6,6,24,1,25,congruent,up,down,incongruent,Stim/Acon.png,down,0,0.1,180,2,100,incongruent,left,left,congruent,Stim/Aincon.png,left,-0.1,0,90,5,2000,stimuli\\,0.6907,0.8592,2.456,,,,,,,,,,,,
,,,,,,,,,,dyl,1,2024-06-27_20h31.58.552,DCT_v1_online,2021.2.3,Win32,144.6131598,,,0.049,3.201,24,down,1,left,1,0,7,7,53,1,54,congruent,down,down,congruent,Stim/Acon.png,down,0,-0.1,180,4,1000,congruent,right,left,incongruent,Stim/Acon.png,left,0.1,0,90,3,2000,stimuli\\,0.6698,0.7478,2.451,,,,,,,,,,,,
,,,,,,,,,,dyl,1,2024-06-27_20h31.58.552,DCT_v1_online,2021.2.3,Win32,144.6131598,,,0.29,2.06,25,down,1,left,1,0,8,8,56,1,57,congruent,down,down,congruent,Stim/Acon.png,down,0,-0.1,180,4,100,incongruent,left,left,congruent,Stim/Aincon.png,left,-0.1,0,90,5,2000,stimuli\\,0.7485,0.9118,2.21,,,,,,,,,,,,
,,,,,,,,,,dyl,1,2024-06-27_20h31.58.552,DCT_v1_online,2021.2.3,Win32,144.6131598,,,0.251,2.999,26,down,1,right,1,0,9,9,87,1,88,incongruent,up,down,incongruent,Stim/Aincon.png,down,0,0.1,180,6,1000,congruent,right,right,congruent,Stim/Acon.png,right,0.1,0,-90,4,2000,stimuli\\,0.8017,0.451,2.249,,,,,,,,,,,,
,,,,,,,,,,dyl,1,2024-06-27_20h31.58.552,DCT_v1_online,2021.2.3,Win32,144.6131598,,,0.438,2.812,27,up,1,right,1,0,10,10,67,1,68,incongruent,up,up,congruent,Stim/Aincon.png,up,0,0.1,0,5,1000,congruent,left,right,incongruent,Stim/Acon.png,right,-0.1,0,-90,2,2000,stimuli\\,0.7255,0.4894,2.062,,,,,,,,,,,,
,,,,,,,,,,dyl,1,2024-06-27_20h31.58.552,DCT_v1_online,2021.2.3,Win32,144.6131598,,,0.254,2.096,28,up,1,left,1,0,11,11,32,1,33,congruent,down,up,incongruent,Stim/Acon.png,up,0,-0.1,0,3,100,congruent,left,left,congruent,Stim/Acon.png,left,-0.1,0,90,1,2000,stimuli\\,0.8774,1.0968,2.246,,,,,,,,,,,,
,,,,,,,,,,dyl,1,2024-06-27_20h31.58.552,DCT_v1_online,2021.2.3,Win32,144.6131598,,,0.349,2.901,29,up,1,left,1,0,12,12,1,1,2,congruent,up,up,congruent,Stim/Acon.png,up,0,0.1,0,1,1000,congruent,left,left,congruent,Stim/Acon.png,left,-0.1,0,90,1,2000,stimuli\\,0.5114,0.4157,2.151,,,,,,,,,,,,
,,,,,,,,,,dyl,1,2024-06-27_20h31.58.552,DCT_v1_online,2021.2.3,Win32,144.6131598,,,0.26,2.99,30,up,1,right,0,0,13,13,77,1,78,incongruent,up,up,congruent,Stim/Aincon.png,up,0,0.1,0,5,1000,incongruent,right,left,incongruent,Stim/Aincon.png,left,0.1,0,90,7,2000,stimuli\\,0.8912,0.4965,2.24,,,,,,,,,,,,
,,,,,,,,,,dyl,1,2024-06-27_20h31.58.552,DCT_v1_online,2021.2.3,Win32,144.6131598,,,0.299,2.051,31,up,1,left,1,0,14,14,36,1,37,congruent,down,up,incongruent,Stim/Acon.png,up,0,-0.1,0,3,100,congruent,right,left,incongruent,Stim/Acon.png,left,0.1,0,90,3,2000,stimuli\\,0.8977,1.1327,2.201,,,,,,,,,,,,
,,,,,,,,,,dyl,1,2024-06-27_20h31.58.552,DCT_v1_online,2021.2.3,Win32,144.6131598,,,0.143,3.107,32,up,1,left,1,0,15,15,97,1,98,incongruent,down,up,incongruent,Stim/Aincon.png,up,0,-0.1,0,7,1000,congruent,left,left,congruent,Stim/Acon.png,left,-0.1,0,90,1,2000,stimuli\\,0.8992,0.4862,2.357,,,,,,,,,,,,
,,,,,,,,,,dyl,1,2024-06-27_20h31.58.552,DCT_v1_online,2021.2.3,Win32,144.6131598,,,0.037,3.213,33,up,1,left,1,0,16,16,69,1,70,incongruent,up,up,congruent,Stim/Aincon.png,up,0,0.1,0,5,1000,congruent,right,left,incongruent,Stim/Acon.png,left,0.1,0,90,3,2000,stimuli\\,0.6043,0.6373,2.463,,,,,,,,,,,,
,,,,,,,,,,dyl,1,2024-06-27_20h31.58.552,DCT_v1_online,2021.2.3,Win32,144.6131598,,,0.208,3.042,34,up,1,left,1,0,17,17,101,1,102,incongruent,down,up,incongruent,Stim/Aincon.png,up,0,-0.1,0,7,1000,congruent,right,left,incongruent,Stim/Acon.png,left,0.1,0,90,3,2000,stimuli\\,0.6907,0.5698,2.292,,,,,,,,,,,,
,,,,,,,,,,dyl,1,2024-06-27_20h31.58.552,DCT_v1_online,2021.2.3,Win32,144.6131598,,,0.243,3.007,35,down,1,right,1,0,18,18,59,1,60,congruent,down,down,congruent,Stim/Acon.png,down,0,-0.1,180,4,1000,incongruent,left,right,incongruent,Stim/Aincon.png,right,-0.1,0,-90,6,2000,stimuli\\,1.1922,0.7947,2.257,,,,,,,,,,,,
,,,,,,,,,,dyl,1,2024-06-27_20h31.58.552,DCT_v1_online,2021.2.3,Win32,144.6131598,,,0.112,2.238,36,up,1,left,1,0,19,19,96,1,97,incongruent,down,up,incongruent,Stim/Aincon.png,up,0,-0.1,0,7,100,congruent,left,left,congruent,Stim/Acon.png,left,-0.1,0,90,1,2000,stimuli\\,0.7919,0.9402,2.388,,,,,,,,,,,,
,,,,,,,,,,dyl,1,2024-06-27_20h31.58.552,DCT_v1_online,2021.2.3,Win32,144.6131598,,,0.319,2.031,37,down,1,right,1,0,20,20,26,1,27,congruent,up,down,incongruent,Stim/Acon.png,down,0,0.1,180,2,100,incongruent,left,right,incongruent,Stim/Aincon.png,right,-0.1,0,-90,6,2000,stimuli\\,0.8002,1.0044,2.181,,,,,,,,,,,,
,,,,,,,,,,dyl,1,2024-06-27_20h31.58.552,DCT_v1_online,2021.2.3,Win32,144.6131598,,,0.193,2.157,38,up,1,left,1,0,21,21,64,1,65,incongruent,up,up,congruent,Stim/Aincon.png,up,0,0.1,0,5,100,congruent,left,left,congruent,Stim/Acon.png,left,-0.1,0,90,1,2000,stimuli\\,0.7428,0.9051,2.307,,,,,,,,,,,,
,,,,,,,,,,dyl,1,2024-06-27_20h31.58.552,DCT_v1_online,2021.2.3,Win32,144.6131598,,,0.48,1.87,39,down,1,right,1,0,22,22,18,1,19,congruent,up,down,incongruent,Stim/Acon.png,down,0,0.1,180,2,100,congruent,left,right,incongruent,Stim/Acon.png,right,-0.1,0,-90,2,2000,stimuli\\,0.7228,0.8908,2.02,,,,,,,,,,,,
,,,,,,,,,,dyl,1,2024-06-27_20h31.58.552,DCT_v1_online,2021.2.3,Win32,144.6131598,,,0.15,2.2,40,down,1,right,1,0,23,23,114,1,115,incongruent,down,down,congruent,Stim/Aincon.png,down,0,-0.1,180,8,100,congruent,left,right,incongruent,Stim/Acon.png,right,-0.1,0,-90,2,2000,stimuli\\,0.9419,1.1815,2.35,,,,,,,,,,,,
,,,,,,,,,,dyl,1,2024-06-27_20h31.58.552,DCT_v1_online,2021.2.3,Win32,144.6131598,,,0.263,2.087,41,down,1,left,1,0,24,24,52,1,53,congruent,down,down,congruent,Stim/Acon.png,down,0,-0.1,180,4,100,congruent,right,left,incongruent,Stim/Acon.png,left,0.1,0,90,3,2000,stimuli\\,1.2663,1.4308,2.237,,,,,,,,,,,,
,,,,,,,,,,dyl,1,2024-06-27_20h31.58.552,DCT_v1_online,2021.2.3,Win32,144.6131598,,,0.388,1.962,42,down,1,left,1,0,25,25,84,1,85,incongruent,up,down,incongruent,Stim/Aincon.png,down,0,0.1,180,6,100,congruent,right,left,incongruent,Stim/Acon.png,left,0.1,0,90,3,2000,stimuli\\,0.889,1.1068,2.112,,,,,,,,,,,,
,,,,,,,,,,dyl,1,2024-06-27_20h31.58.552,DCT_v1_online,2021.2.3,Win32,144.6131598,,,0.164,2.186,43,down,1,left,1,0,26,26,116,1,117,incongruent,down,down,congruent,Stim/Aincon.png,down,0,-0.1,180,8,100,congruent,right,left,incongruent,Stim/Acon.png,left,0.1,0,90,3,2000,stimuli\\,0.8483,1.017,2.336,,,,,,,,,,,,
,,,,,,,,,,dyl,1,2024-06-27_20h31.58.552,DCT_v1_online,2021.2.3,Win32,144.6131598,,,0.472,2.778,44,down,1,left,1,0,27,27,89,1,90,incongruent,up,down,incongruent,Stim/Aincon.png,down,0,0.1,180,6,1000,incongruent,left,left,congruent,Stim/Aincon.png,left,-0.1,0,90,5,2000,stimuli\\,0.6878,0.6437,2.028,,,,,,,,,,,,
,,,,,,,,,,dyl,1,2024-06-27_20h31.58.552,DCT_v1_online,2021.2.3,Win32,144.6131598,,,0.025,3.225,45,down,1,right,1,0,28,28,127,1,128,incongruent,down,down,congruent,Stim/Aincon.png,down,0,-0.1,180,8,1000,incongruent,right,right,congruent,Stim/Aincon.png,right,0.1,0,-90,8,2000,stimuli\\,1.0254,0.8355,2.475,,,,,,,,,,,,
,,,,,,,,,,dyl,1,2024-06-27_20h31.58.552,DCT_v1_online,2021.2.3,Win32,144.6131598,,,0.093,3.157,46,down,1,left,1,0,29,29,21,1,22,congruent,up,down,incongruent,Stim/Acon.png,down,0,0.1,180,2,1000,congruent,right,left,incongruent,Stim/Acon.png,left,0.1,0,90,3,2000,stimuli\\,0.6096,0.4751,2.407,,,,,,,,,,,,
,,,,,,,,,,dyl,1,2024-06-27_20h31.58.552,DCT_v1_online,2021.2.3,Win32,144.6131598,,,0.033,3.217,47,down,1,left,1,0,30,30,49,1,50,congruent,down,down,congruent,Stim/Acon.png,down,0,-0.1,180,4,1000,congruent,left,left,congruent,Stim/Acon.png,left,-0.1,0,90,1,2000,stimuli\\,0.6829,0.4176,2.467,,,,,,,,,,,,
,,,,,,,,,,dyl,1,2024-06-27_20h31.58.552,DCT_v1_online,2021.2.3,Win32,144.6131598,,,0.486,1.864,48,up,1,right,1,0,31,31,34,1,35,congruent,down,up,incongruent,Stim/Acon.png,up,0,-0.1,0,3,100,congruent,left,right,incongruent,Stim/Acon.png,right,-0.1,0,-90,2,2000,stimuli\\,0.8258,0.9662,2.014,,,,,,,,,,,,
,,,,,,,,,,dyl,1,2024-06-27_20h31.58.552,DCT_v1_online,2021.2.3,Win32,144.6131598,,,0.485,1.865,49,up,1,right,1,0,32,32,102,1,103,incongruent,down,up,incongruent,Stim/Aincon.png,up,0,-0.1,0,7,100,congruent,right,right,congruent,Stim/Acon.png,right,0.1,0,-90,4,2000,stimuli\\,0.7924,1.1747,2.015,,,,,,,,,,,,
,,,,,,,,,,dyl,1,2024-06-27_20h31.58.552,DCT_v1_online,2021.2.3,Win32,144.6131598,,,0.261,2.989,50,down,1,left,0,0,33,33,123,1,124,incongruent,down,down,congruent,Stim/Aincon.png,down,0,-0.1,180,8,1000,incongruent,left,right,incongruent,Stim/Aincon.png,right,-0.1,0,-90,6,2000,stimuli\\,0.896,0.5095,2.239,,,,,,,,,,,,
,,,,,,,,,,dyl,1,2024-06-27_20h31.58.552,DCT_v1_online,2021.2.3,Win32,144.6131598,,,0.169,2.181,51,down,1,left,1,0,34,34,92,1,93,incongruent,up,down,incongruent,Stim/Aincon.png,down,0,0.1,180,6,100,incongruent,right,left,incongruent,Stim/Aincon.png,left,0.1,0,90,7,2000,stimuli\\,0.8152,1.0435,2.331,,,,,,,,,,,,
,,,,,,,,,,dyl,1,2024-06-27_20h31.58.552,DCT_v1_online,2021.2.3,Win32,144.6131598,,,0.398,2.852,52,up,1,left,1,0,35,35,109,1,110,incongruent,down,up,incongruent,Stim/Aincon.png,up,0,-0.1,0,7,1000,incongruent,right,left,incongruent,Stim/Aincon.png,left,0.1,0,90,7,2000,stimuli\\,0.9453,0.83,2.102,,,,,,,,,,,,
,,,,,,,,,,dyl,1,2024-06-27_20h31.58.552,DCT_v1_online,2021.2.3,Win32,144.6131598,,,0.179,2.171,53,up,1,left,1,0,36,36,108,1,109,incongruent,down,up,incongruent,Stim/Aincon.png,up,0,-0.1,0,7,100,incongruent,right,left,incongruent,Stim/Aincon.png,left,0.1,0,90,7,2000,stimuli\\,0.789,1.1663,2.321,,,,,,,,,,,,
,,,,,,,,,,dyl,1,2024-06-27_20h31.58.552,DCT_v1_online,2021.2.3,Win32,144.6131598,,,0.137,2.213,54,up,1,right,1,0,37,37,2,1,3,congruent,up,up,congruent,Stim/Acon.png,up,0,0.1,0,1,100,congruent,left,right,incongruent,Stim/Acon.png,right,-0.1,0,-90,2,2000,stimuli\\,1.2328,0.8018,2.363,,,,,,,,,,,,
,,,,,,,,,,dyl,1,2024-06-27_20h31.58.552,DCT_v1_online,2021.2.3,Win32,144.6131598,,,0.277,2.973,55,up,1,right,1,0,38,38,111,1,112,incongruent,down,up,incongruent,Stim/Aincon.png,up,0,-0.1,0,7,1000,incongruent,right,right,congruent,Stim/Aincon.png,right,0.1,0,-90,8,2000,stimuli\\,0.8216,0.7618,2.223,,,,,,,,,,,,
,,,,,,,,,,dyl,1,2024-06-27_20h31.58.552,DCT_v1_online,2021.2.3,Win32,144.6131598,,,0.186,2.164,56,down,1,right,1,0,39,39,122,1,123,incongruent,down,down,congruent,Stim/Aincon.png,down,0,-0.1,180,8,100,incongruent,left,right,incongruent,Stim/Aincon.png,right,-0.1,0,-90,6,2000,stimuli\\,0.8399,1.1182,2.314,,,,,,,,,,,,
,,,,,,,,,,dyl,1,2024-06-27_20h31.58.552,DCT_v1_online,2021.2.3,Win32,144.6131598,,,0.424,2.826,57,down,1,right,1,0,40,40,91,1,92,incongruent,up,down,incongruent,Stim/Aincon.png,down,0,0.1,180,6,1000,incongruent,left,right,incongruent,Stim/Aincon.png,right,-0.1,0,-90,6,2000,stimuli\\,0.8152,0.6783,2.076,,,,,,,,,,,,
,,,,,,,,,,dyl,1,2024-06-27_20h31.58.552,DCT_v1_online,2021.2.3,Win32,144.6131598,,,0.497,2.753,58,up,1,right,1,0,41,41,75,1,76,incongruent,up,up,congruent,Stim/Aincon.png,up,0,0.1,0,5,1000,incongruent,left,right,incongruent,Stim/Aincon.png,right,-0.1,0,-90,6,2000,stimuli\\,0.7409,0.7664,2.003,,,,,,,,,,,,
,,,,,,,,,,dyl,1,2024-06-27_20h31.58.552,DCT_v1_online,2021.2.3,Win32,144.6131598,,,0.006,2.344,59,up,1,left,1,0,42,42,72,1,73,incongruent,up,up,congruent,Stim/Aincon.png,up,0,0.1,0,5,100,incongruent,left,left,congruent,Stim/Aincon.png,left,-0.1,0,90,5,2000,stimuli\\,0.9524,1.1641,2.494,,,,,,,,,,,,
,,,,,,,,,,dyl,1,2024-06-27_20h31.58.552,DCT_v1_online,2021.2.3,Win32,144.6131598,,,0.266,2.084,60,down,1,left,1,0,43,43,20,1,21,congruent,up,down,incongruent,Stim/Acon.png,down,0,0.1,180,2,100,congruent,right,left,incongruent,Stim/Acon.png,left,0.1,0,90,3,2000,stimuli\\,0.7437,0.9933,2.234,,,,,,,,,,,,
,,,,,,,,,,dyl,1,2024-06-27_20h31.58.552,DCT_v1_online,2021.2.3,Win32,144.6131598,,,0.073,3.177,61,down,1,left,1,0,44,44,57,1,58,congruent,down,down,congruent,Stim/Acon.png,down,0,-0.1,180,4,1000,incongruent,left,left,congruent,Stim/Aincon.png,left,-0.1,0,90,5,2000,stimuli\\,0.7612,0.5654,2.427,,,,,,,,,,,,
,,,,,,,,,,dyl,1,2024-06-27_20h31.58.552,DCT_v1_online,2021.2.3,Win32,144.6131598,,,0.433,1.917,62,up,1,left,1,0,45,45,100,1,101,incongruent,down,up,incongruent,Stim/Aincon.png,up,0,-0.1,0,7,100,congruent,right,left,incongruent,Stim/Acon.png,left,0.1,0,90,3,2000,stimuli\\,0.8158,1.0698,2.067,,,,,,,,,,,,
,,,,,,,,,,dyl,1,2024-06-27_20h31.58.552,DCT_v1_online,2021.2.3,Win32,144.6131598,,,0.216,2.134,63,down,1,left,1,0,46,46,88,1,89,incongruent,up,down,incongruent,Stim/Aincon.png,down,0,0.1,180,6,100,incongruent,left,left,congruent,Stim/Aincon.png,left,-0.1,0,90,5,2000,stimuli\\,0.8571,1.2679,2.284,,,,,,,,,,,,
,,,,,,,,,,dyl,1,2024-06-27_20h31.58.552,DCT_v1_online,2021.2.3,Win32,144.6131598,,,0.394,2.856,64,up,1,left,1,0,47,47,45,1,46,congruent,down,up,incongruent,Stim/Acon.png,up,0,-0.1,0,3,1000,incongruent,right,left,incongruent,Stim/Aincon.png,left,0.1,0,90,7,2000,stimuli\\,0.6672,0.8408,2.106,,,,,,,,,,,,
,,,,,,,,,,dyl,1,2024-06-27_20h31.58.552,DCT_v1_online,2021.2.3,Win32,144.6131598,,,0.145,2.205,65,down,1,left,1,0,48,48,60,1,61,congruent,down,down,congruent,Stim/Acon.png,down,0,-0.1,180,4,100,incongruent,right,left,incongruent,Stim/Aincon.png,left,0.1,0,90,7,2000,stimuli\\,0.7836,1.0891,2.355,,,,,,,,,,,,
,,,,,,,,,,dyl,1,2024-06-27_20h31.58.552,DCT_v1_online,2021.2.3,Win32,144.6131598,,,0.016,2.334,66,down,1,right,1,0,49,49,30,1,31,congruent,up,down,incongruent,Stim/Acon.png,down,0,0.1,180,2,100,incongruent,right,right,congruent,Stim/Aincon.png,right,0.1,0,-90,8,2000,stimuli\\,0.7508,1.0243,2.484,,,,,,,,,,,,
,,,,,,,,,,dyl,1,2024-06-27_20h31.58.552,DCT_v1_online,2021.2.3,Win32,144.6131598,,,0.289,2.961,67,up,1,right,1,0,50,50,39,1,40,congruent,down,up,incongruent,Stim/Acon.png,up,0,-0.1,0,3,1000,congruent,right,right,congruent,Stim/Acon.png,right,0.1,0,-90,4,2000,stimuli\\,0.6059,0.8061,2.211,,,,,,,,,,,,
,,,,,,,,,,dyl,1,2024-06-27_20h31.58.552,DCT_v1_online,2021.2.3,Win32,144.6131598,,,0.292,2.058,68,up,1,right,1,0,51,51,74,1,75,incongruent,up,up,congruent,Stim/Aincon.png,up,0,0.1,0,5,100,incongruent,left,right,incongruent,Stim/Aincon.png,right,-0.1,0,-90,6,2000,stimuli\\,0.7501,1.1627,2.208,,,,,,,,,,,,
,,,,,,,,,,dyl,1,2024-06-27_20h31.58.552,DCT_v1_online,2021.2.3,Win32,144.6131598,,,0.204,3.046,69,up,1,left,1,0,52,52,41,1,42,congruent,down,up,incongruent,Stim/Acon.png,up,0,-0.1,0,3,1000,incongruent,left,left,congruent,Stim/Aincon.png,left,-0.1,0,90,5,2000,stimuli\\,0.6551,0.5769,2.296,,,,,,,,,,,,
,,,,,,,,,,dyl,1,2024-06-27_20h31.58.552,DCT_v1_online,2021.2.3,Win32,144.6131598,,,0.443,1.907,70,up,1,right,1,0,53,53,46,1,47,congruent,down,up,incongruent,Stim/Acon.png,up,0,-0.1,0,3,100,incongruent,right,right,congruent,Stim/Aincon.png,right,0.1,0,-90,8,2000,stimuli\\,0.7637,1.0516,2.057,,,,,,,,,,,,
,,,,,,,,,,dyl,1,2024-06-27_20h31.58.552,DCT_v1_online,2021.2.3,Win32,144.6131598,,,0.083,2.267,71,up,1,right,1,0,54,54,38,1,39,congruent,down,up,incongruent,Stim/Acon.png,up,0,-0.1,0,3,100,congruent,right,right,congruent,Stim/Acon.png,right,0.1,0,-90,4,2000,stimuli\\,0.6742,0.9238,2.417,,,,,,,,,,,,
,,,,,,,,,,dyl,1,2024-06-27_20h31.58.552,DCT_v1_online,2021.2.3,Win32,144.6131598,,,0.381,2.869,72,down,1,right,1,0,55,55,63,1,64,congruent,down,down,congruent,Stim/Acon.png,down,0,-0.1,180,4,1000,incongruent,right,right,congruent,Stim/Aincon.png,right,0.1,0,-90,8,2000,stimuli\\,0.8722,0.7833,2.119,,,,,,,,,,,,
,,,,,,,,,,dyl,1,2024-06-27_20h31.58.552,DCT_v1_online,2021.2.3,Win32,144.6131598,,,0.492,2.758,73,down,1,left,1,0,56,56,85,1,86,incongruent,up,down,incongruent,Stim/Aincon.png,down,0,0.1,180,6,1000,congruent,right,left,incongruent,Stim/Acon.png,left,0.1,0,90,3,2000,stimuli\\,0.6448,0.6695,2.008,,,,,,,,,,,,
,,,,,,,,,,dyl,1,2024-06-27_20h31.58.552,DCT_v1_online,2021.2.3,Win32,144.6131598,,,0.367,1.983,74,up,1,left,1,0,57,57,12,1,13,congruent,up,up,congruent,Stim/Acon.png,up,0,0.1,0,1,100,incongruent,right,left,incongruent,Stim/Aincon.png,left,0.1,0,90,7,2000,stimuli\\,0.5996,1.0187,2.133,,,,,,,,,,,,
,,,,,,,,,,dyl,1,2024-06-27_20h31.58.552,DCT_v1_online,2021.2.3,Win32,144.6131598,,,0.301,2.049,75,down,1,right,1,0,58,58,82,1,83,incongruent,up,down,incongruent,Stim/Aincon.png,down,0,0.1,180,6,100,congruent,left,right,incongruent,Stim/Acon.png,right,-0.1,0,-90,2,2000,stimuli\\,0.7138,0.8992,2.199,,,,,,,,,,,,
,,,,,,,,,,dyl,1,2024-06-27_20h31.58.552,DCT_v1_online,2021.2.3,Win32,144.6131598,,,0.256,2.994,76,down,1,right,1,0,59,59,31,1,32,congruent,up,down,incongruent,Stim/Acon.png,down,0,0.1,180,2,1000,incongruent,right,right,congruent,Stim/Aincon.png,right,0.1,0,-90,8,2000,stimuli\\,0.6788,0.7802,2.244,,,,,,,,,,,,
,,,,,,,,,,dyl,1,2024-06-27_20h31.58.552,DCT_v1_online,2021.2.3,Win32,144.6131598,,,0.493,1.857,77,up,1,left,1,0,60,60,0,1,1,congruent,up,up,congruent,Stim/Acon.png,up,0,0.1,0,1,100,congruent,left,left,congruent,Stim/Acon.png,left,-0.1,0,90,1,2000,stimuli\\,0.6155,0.7989,2.007,,,,,,,,,,,,
,,,,,,,,,,dyl,1,2024-06-27_20h31.58.552,DCT_v1_online,2021.2.3,Win32,144.6131598,,,0.423,2.827,78,up,1,left,1,0,61,61,105,1,106,incongruent,down,up,incongruent,Stim/Aincon.png,up,0,-0.1,0,7,1000,incongruent,left,left,congruent,Stim/Aincon.png,left,-0.1,0,90,5,2000,stimuli\\,0.868,0.7958,2.077,,,,,,,,,,,,
,,,,,,,,,,dyl,1,2024-06-27_20h31.58.552,DCT_v1_online,2021.2.3,Win32,144.6131598,,,0.117,3.133,79,up,1,left,1,0,62,62,33,1,34,congruent,down,up,incongruent,Stim/Acon.png,up,0,-0.1,0,3,1000,congruent,left,left,congruent,Stim/Acon.png,left,-0.1,0,90,1,2000,stimuli\\,0.6202,0.5044,2.383,,,,,,,,,,,,
,,,,,,,,,,dyl,1,2024-06-27_20h31.58.552,DCT_v1_online,2021.2.3,Win32,144.6131598,,,0.217,3.033,80,up,1,right,1,0,63,63,47,1,48,congruent,down,up,incongruent,Stim/Acon.png,up,0,-0.1,0,3,1000,incongruent,right,right,congruent,Stim/Aincon.png,right,0.1,0,-90,8,2000,stimuli\\,0.6226,0.8909,2.283,,,,,,,,,,,,
,,,,,,,,,,dyl,1,2024-06-27_20h31.58.552,DCT_v1_online,2021.2.3,Win32,144.6131598,,,0.074,3.176,81,down,1,right,1,0,64,64,51,1,52,congruent,down,down,congruent,Stim/Acon.png,down,0,-0.1,180,4,1000,congruent,left,right,incongruent,Stim/Acon.png,right,-0.1,0,-90,2,2000,stimuli\\,0.7037,0.5928,2.426,,,,,,,,,,,,
,,,,,,,,,,dyl,1,2024-06-27_20h31.58.552,DCT_v1_online,2021.2.3,Win32,144.6131598,,,0.264,2.986,82,up,1,right,1,0,65,65,15,1,16,congruent,up,up,congruent,Stim/Acon.png,up,0,0.1,0,1,1000,incongruent,right,right,congruent,Stim/Aincon.png,right,0.1,0,-90,8,2000,stimuli\\,0.6633,0.8179,2.236,,,,,,,,,,,,
,,,,,,,,,,dyl,1,2024-06-27_20h31.58.552,DCT_v1_online,2021.2.3,Win32,144.6131598,,,0.06,3.19,83,down,1,right,1,0,66,66,23,1,24,congruent,up,down,incongruent,Stim/Acon.png,down,0,0.1,180,2,1000,congruent,right,right,congruent,Stim/Acon.png,right,0.1,0,-90,4,2000,stimuli\\,0.6139,0.9172,2.44,,,,,,,,,,,,
,,,,,,,,,,dyl,1,2024-06-27_20h31.58.552,DCT_v1_online,2021.2.3,Win32,144.6131598,,,0.414,1.936,84,up,1,right,1,0,67,67,110,1,111,incongruent,down,up,incongruent,Stim/Aincon.png,up,0,-0.1,0,7,100,incongruent,right,right,congruent,Stim/Aincon.png,right,0.1,0,-90,8,2000,stimuli\\,0.8198,1.1862,2.086,,,,,,,,,,,,
,,,,,,,,,,dyl,1,2024-06-27_20h31.58.552,DCT_v1_online,2021.2.3,Win32,144.6131598,,,0.423,2.827,85,up,1,right,1,0,68,68,71,1,72,incongruent,up,up,congruent,Stim/Aincon.png,up,0,0.1,0,5,1000,congruent,right,right,congruent,Stim/Acon.png,right,0.1,0,-90,4,2000,stimuli\\,0.5505,0.5909,2.077,,,,,,,,,,,,
,,,,,,,,,,dyl,1,2024-06-27_20h31.58.552,DCT_v1_online,2021.2.3,Win32,144.6131598,,,0.495,2.755,86,up,1,left,1,0,69,69,37,1,38,congruent,down,up,incongruent,Stim/Acon.png,up,0,-0.1,0,3,1000,congruent,right,left,incongruent,Stim/Acon.png,left,0.1,0,90,3,2000,stimuli\\,0.5675,0.5487,2.005,,,,,,,,,,,,
,,,,,,,,,,dyl,1,2024-06-27_20h31.58.552,DCT_v1_online,2021.2.3,Win32,144.6131598,,,0.02,2.33,87,down,1,left,1,0,70,70,80,1,81,incongruent,up,down,incongruent,Stim/Aincon.png,down,0,0.1,180,6,100,congruent,left,left,congruent,Stim/Acon.png,left,-0.1,0,90,1,2000,stimuli\\,0.844,1.0942,2.48,,,,,,,,,,,,
,,,,,,,,,,dyl,1,2024-06-27_20h31.58.552,DCT_v1_online,2021.2.3,Win32,144.6131598,,,0.196,2.154,88,up,1,left,1,0,71,71,40,1,41,congruent,down,up,incongruent,Stim/Acon.png,up,0,-0.1,0,3,100,incongruent,left,left,congruent,Stim/Aincon.png,left,-0.1,0,90,5,2000,stimuli\\,0.7073,1.0288,2.304,,,,,,,,,,,,
,,,,,,,,,,dyl,1,2024-06-27_20h31.58.552,DCT_v1_online,2021.2.3,Win32,144.6131598,,,0.379,2.871,89,up,1,right,1,0,72,72,7,1,8,congruent,up,up,congruent,Stim/Acon.png,up,0,0.1,0,1,1000,congruent,right,right,congruent,Stim/Acon.png,right,0.1,0,-90,4,2000,stimuli\\,0.5231,0.4025,2.121,,,,,,,,,,,,
,,,,,,,,,,dyl,1,2024-06-27_20h31.58.552,DCT_v1_online,2021.2.3,Win32,144.6131598,,,0.102,2.248,90,down,1,right,1,0,73,73,86,1,87,incongruent,up,down,incongruent,Stim/Aincon.png,down,0,0.1,180,6,100,congruent,right,right,congruent,Stim/Acon.png,right,0.1,0,-90,4,2000,stimuli\\,0.8164,1.1144,2.398,,,,,,,,,,,,
,,,,,,,,,,dyl,1,2024-06-27_20h31.58.552,DCT_v1_online,2021.2.3,Win32,144.6131598,,,0.45,1.9,91,up,1,right,1,0,74,74,10,1,11,congruent,up,up,congruent,Stim/Acon.png,up,0,0.1,0,1,100,incongruent,left,right,incongruent,Stim/Aincon.png,right,-0.1,0,-90,6,2000,stimuli\\,0.5995,0.8823,2.05,,,,,,,,,,,,
,,,,,,,,,,dyl,1,2024-06-27_20h31.58.552,DCT_v1_online,2021.2.3,Win32,144.6131598,,,0.42,2.83,92,down,1,right,1,0,75,75,55,1,56,congruent,down,down,congruent,Stim/Acon.png,down,0,-0.1,180,4,1000,congruent,right,right,congruent,Stim/Acon.png,right,0.1,0,-90,4,2000,stimuli\\,0.6945,0.5562,2.08,,,,,,,,,,,,
,,,,,,,,,,dyl,1,2024-06-27_20h31.58.552,DCT_v1_online,2021.2.3,Win32,144.6131598,,,0.445,1.905,93,up,1,right,1,0,76,76,42,1,43,congruent,down,up,incongruent,Stim/Acon.png,up,0,-0.1,0,3,100,incongruent,left,right,incongruent,Stim/Aincon.png,right,-0.1,0,-90,6,2000,stimuli\\,0.715,0.9405,2.055,,,,,,,,,,,,
,,,,,,,,,,dyl,1,2024-06-27_20h31.58.552,DCT_v1_online,2021.2.3,Win32,144.6131598,,,0.276,2.074,94,up,1,right,0,0,77,77,104,1,105,incongruent,down,up,incongruent,Stim/Aincon.png,up,0,-0.1,0,7,100,incongruent,left,left,congruent,Stim/Aincon.png,left,-0.1,0,90,5,2000,stimuli\\,1.267,1.5033,2.224,,,,,,,,,,,,
,,,,,,,,,,dyl,1,2024-06-27_20h31.58.552,DCT_v1_online,2021.2.3,Win32,144.6131598,,,0.447,2.803,95,up,1,right,1,0,78,78,107,1,108,incongruent,down,up,incongruent,Stim/Aincon.png,up,0,-0.1,0,7,1000,incongruent,left,right,incongruent,Stim/Aincon.png,right,-0.1,0,-90,6,2000,stimuli\\,0.8257,0.6739,2.053,,,,,,,,,,,,
,,,,,,,,,,dyl,1,2024-06-27_20h31.58.552,DCT_v1_online,2021.2.3,Win32,144.6131598,,,0.406,1.944,96,up,1,right,1,0,79,79,70,1,71,incongruent,up,up,congruent,Stim/Aincon.png,up,0,0.1,0,5,100,congruent,right,right,congruent,Stim/Acon.png,right,0.1,0,-90,4,2000,stimuli\\,0.7344,0.9268,2.094,,,,,,,,,,,,
,,,,,,,,,,dyl,1,2024-06-27_20h31.58.552,DCT_v1_online,2021.2.3,Win32,144.6131598,,,0.211,2.139,97,up,1,right,1,0,80,80,66,1,67,incongruent,up,up,congruent,Stim/Aincon.png,up,0,0.1,0,5,100,congruent,left,right,incongruent,Stim/Acon.png,right,-0.1,0,-90,2,2000,stimuli\\,0.6327,0.8013,2.289,,,,,,,,,,,,
,,,,,,,,,,dyl,1,2024-06-27_20h31.58.552,DCT_v1_online,2021.2.3,Win32,144.6131598,,,0.295,2.955,98,down,1,right,1,0,81,81,19,1,20,congruent,up,down,incongruent,Stim/Acon.png,down,0,0.1,180,2,1000,congruent,left,right,incongruent,Stim/Acon.png,right,-0.1,0,-90,2,2000,stimuli\\,0.7558,0.5339,2.205,,,,,,,,,,,,
,,,,,,,,,,dyl,1,2024-06-27_20h31.58.552,DCT_v1_online,2021.2.3,Win32,144.6131598,,,0.17,3.08,99,up,1,right,1,0,82,82,79,1,80,incongruent,up,up,congruent,Stim/Aincon.png,up,0,0.1,0,5,1000,incongruent,right,right,congruent,Stim/Aincon.png,right,0.1,0,-90,8,2000,stimuli\\,0.7361,0.8478,2.33,,,,,,,,,,,,
,,,,,,,,,,dyl,1,2024-06-27_20h31.58.552,DCT_v1_online,2021.2.3,Win32,144.6131598,,,0.419,2.831,100,up,1,left,1,0,83,83,73,1,74,incongruent,up,up,congruent,Stim/Aincon.png,up,0,0.1,0,5,1000,incongruent,left,left,congruent,Stim/Aincon.png,left,-0.1,0,90,5,2000,stimuli\\,0.6225,0.8113,2.081,,,,,,,,,,,,
,,,,,,,,,,dyl,1,2024-06-27_20h31.58.552,DCT_v1_online,2021.2.3,Win32,144.6131598,,,0.182,2.168,101,down,1,left,1,0,84,84,112,1,113,incongruent,down,down,congruent,Stim/Aincon.png,down,0,-0.1,180,8,100,congruent,left,left,congruent,Stim/Acon.png,left,-0.1,0,90,1,2000,stimuli\\,0.917,1.107,2.318,,,,,,,,,,,,
,,,,,,,,,,dyl,1,2024-06-27_20h31.58.552,DCT_v1_online,2021.2.3,Win32,144.6131598,,,0.079,2.271,102,up,1,right,1,0,85,85,6,1,7,congruent,up,up,congruent,Stim/Acon.png,up,0,0.1,0,1,100,congruent,right,right,congruent,Stim/Acon.png,right,0.1,0,-90,4,2000,stimuli\\,0.725,0.8962,2.421,,,,,,,,,,,,
,,,,,,,,,,dyl,1,2024-06-27_20h31.58.552,DCT_v1_online,2021.2.3,Win32,144.6131598,,,0.305,2.945,103,up,1,left,1,0,86,86,65,1,66,incongruent,up,up,congruent,Stim/Aincon.png,up,0,0.1,0,5,1000,congruent,left,left,congruent,Stim/Acon.png,left,-0.1,0,90,1,2000,stimuli\\,0.7128,0.5366,2.195,,,,,,,,,,,,
,,,,,,,,,,dyl,1,2024-06-27_20h31.58.552,DCT_v1_online,2021.2.3,Win32,144.6131598,,,0.32,2.93,104,down,1,right,1,0,87,87,115,1,116,incongruent,down,down,congruent,Stim/Aincon.png,down,0,-0.1,180,8,1000,congruent,left,right,incongruent,Stim/Acon.png,right,-0.1,0,-90,2,2000,stimuli\\,0.7722,0.487,2.18,,,,,,,,,,,,
,,,,,,,,,,dyl,1,2024-06-27_20h31.58.552,DCT_v1_online,2021.2.3,Win32,144.6131598,,,0.349,2.001,105,down,1,right,1,0,88,88,58,1,59,congruent,down,down,congruent,Stim/Acon.png,down,0,-0.1,180,4,100,incongruent,left,right,incongruent,Stim/Aincon.png,right,-0.1,0,-90,6,2000,stimuli\\,0.7214,0.9547,2.151,,,,,,,,,,,,
,,,,,,,,,,dyl,1,2024-06-27_20h31.58.552,DCT_v1_online,2021.2.3,Win32,144.6131598,,,0.177,3.073,106,down,1,left,1,0,89,89,117,1,118,incongruent,down,down,congruent,Stim/Aincon.png,down,0,-0.1,180,8,1000,congruent,right,left,incongruent,Stim/Acon.png,left,0.1,0,90,3,2000,stimuli\\,0.8123,0.5639,2.323,,,,,,,,,,,,
,,,,,,,,,,dyl,1,2024-06-27_20h31.58.552,DCT_v1_online,2021.2.3,Win32,144.6131598,,,0.368,2.882,107,down,1,left,1,0,90,90,29,1,30,congruent,up,down,incongruent,Stim/Acon.png,down,0,0.1,180,2,1000,incongruent,right,left,incongruent,Stim/Aincon.png,left,0.1,0,90,7,2000,stimuli\\,0.9878,0.8104,2.132,,,,,,,,,,,,
,,,,,,,,,,dyl,1,2024-06-27_20h31.58.552,DCT_v1_online,2021.2.3,Win32,144.6131598,,,0.099,2.251,108,down,1,right,1,0,91,91,62,1,63,congruent,down,down,congruent,Stim/Acon.png,down,0,-0.1,180,4,100,incongruent,right,right,congruent,Stim/Aincon.png,right,0.1,0,-90,8,2000,stimuli\\,0.6939,0.887,2.401,,,,,,,,,,,,
,,,,,,,,,,dyl,1,2024-06-27_20h31.58.552,DCT_v1_online,2021.2.3,Win32,144.6131598,,,0.31,2.04,109,down,1,right,1,0,92,92,90,1,91,incongruent,up,down,incongruent,Stim/Aincon.png,down,0,0.1,180,6,100,incongruent,left,right,incongruent,Stim/Aincon.png,right,-0.1,0,-90,6,2000,stimuli\\,0.7456,0.9698,2.19,,,,,,,,,,,,
,,,,,,,,,,dyl,1,2024-06-27_20h31.58.552,DCT_v1_online,2021.2.3,Win32,144.6131598,,,0.463,1.887,110,down,0,right,1,0,93,93,98,1,99,incongruent,down,up,incongruent,Stim/Aincon.png,up,0,-0.1,0,7,100,congruent,left,right,incongruent,Stim/Acon.png,right,-0.1,0,-90,2,2000,stimuli\\,1.2845,1.545,2.037,,,,,,,,,,,,
,,,,,,,,,,dyl,1,2024-06-27_20h31.58.552,DCT_v1_online,2021.2.3,Win32,144.6131598,,,0.254,2.096,111,down,1,right,1,0,94,94,118,1,119,incongruent,down,down,congruent,Stim/Aincon.png,down,0,-0.1,180,8,100,congruent,right,right,congruent,Stim/Acon.png,right,0.1,0,-90,4,2000,stimuli\\,0.9304,1.1052,2.246,,,,,,,,,,,,
,,,,,,,,,,dyl,1,2024-06-27_20h31.58.552,DCT_v1_online,2021.2.3,Win32,144.6131598,,,0.484,1.866,112,down,1,right,1,0,95,95,126,1,127,incongruent,down,down,congruent,Stim/Aincon.png,down,0,-0.1,180,8,100,incongruent,right,right,congruent,Stim/Aincon.png,right,0.1,0,-90,8,2000,stimuli\\,0.8873,1.2692,2.016,,,,,,,,,,,,
,,,,,,,,,,dyl,1,2024-06-27_20h31.58.552,DCT_v1_online,2021.2.3,Win32,144.6131598,,,0.293,2.057,113,up,1,right,1,0,96,96,14,1,15,congruent,up,up,congruent,Stim/Acon.png,up,0,0.1,0,1,100,incongruent,right,right,congruent,Stim/Aincon.png,right,0.1,0,-90,8,2000,stimuli\\,0.7648,1.1963,2.207,,,,,,,,,,,,
,,,,,,,,,,dyl,1,2024-06-27_20h31.58.552,DCT_v1_online,2021.2.3,Win32,144.6131598,,,0.465,1.885,114,down,1,right,1,0,97,97,50,1,51,congruent,down,down,congruent,Stim/Acon.png,down,0,-0.1,180,4,100,congruent,left,right,incongruent,Stim/Acon.png,right,-0.1,0,-90,2,2000,stimuli\\,0.8227,0.9725,2.035,,,,,,,,,,,,
,,,,,,,,,,dyl,1,2024-06-27_20h31.58.552,DCT_v1_online,2021.2.3,Win32,144.6131598,,,0.004,3.246,115,down,1,right,1,0,98,98,83,1,84,incongruent,up,down,incongruent,Stim/Aincon.png,down,0,0.1,180,6,1000,congruent,left,right,incongruent,Stim/Acon.png,right,-0.1,0,-90,2,2000,stimuli\\,0.8574,0.4774,2.496,,,,,,,,,,,,
,,,,,,,,,,dyl,1,2024-06-27_20h31.58.552,DCT_v1_online,2021.2.3,Win32,144.6131598,,,0.425,2.825,116,up,1,left,1,0,99,99,5,1,6,congruent,up,up,congruent,Stim/Acon.png,up,0,0.1,0,1,1000,congruent,right,left,incongruent,Stim/Acon.png,left,0.1,0,90,3,2000,stimuli\\,0.6558,0.6883,2.075,,,,,,,,,,,,
,,,,,,,,,,dyl,1,2024-06-27_20h31.58.552,DCT_v1_online,2021.2.3,Win32,144.6131598,,,0.284,2.966,117,up,1,left,1,0,100,100,9,1,10,congruent,up,up,congruent,Stim/Acon.png,up,0,0.1,0,1,1000,incongruent,left,left,congruent,Stim/Aincon.png,left,-0.1,0,90,5,2000,stimuli\\,0.6787,0.5879,2.216,,,,,,,,,,,,
,,,,,,,,,,dyl,1,2024-06-27_20h31.58.552,DCT_v1_online,2021.2.3,Win32,144.6131598,,,0.095,3.155,118,up,1,right,0,0,101,101,13,1,14,congruent,up,up,congruent,Stim/Acon.png,up,0,0.1,0,1,1000,incongruent,right,left,incongruent,Stim/Aincon.png,left,0.1,0,90,7,2000,stimuli\\,0.6605,0.4433,2.405,,,,,,,,,,,,
,,,,,,,,,,dyl,1,2024-06-27_20h31.58.552,DCT_v1_online,2021.2.3,Win32,144.6131598,,,0.428,1.922,119,up,1,left,1,0,102,102,4,1,5,congruent,up,up,congruent,Stim/Acon.png,up,0,0.1,0,1,100,congruent,right,left,incongruent,Stim/Acon.png,left,0.1,0,90,3,2000,stimuli\\,0.6579,0.777,2.072,,,,,,,,,,,,
,,,,,,,,,,dyl,1,2024-06-27_20h31.58.552,DCT_v1_online,2021.2.3,Win32,144.6131598,,,0.471,1.879,120,down,1,right,1,0,103,103,94,1,95,incongruent,up,down,incongruent,Stim/Aincon.png,down,0,0.1,180,6,100,incongruent,right,right,congruent,Stim/Aincon.png,right,0.1,0,-90,8,2000,stimuli\\,1.0394,1.2245,2.029,,,,,,,,,,,,
,,,,,,,,,,dyl,1,2024-06-27_20h31.58.552,DCT_v1_online,2021.2.3,Win32,144.6131598,,,0.051,3.199,121,down,1,right,1,0,104,104,119,1,120,incongruent,down,down,congruent,Stim/Aincon.png,down,0,-0.1,180,8,1000,congruent,right,right,congruent,Stim/Acon.png,right,0.1,0,-90,4,2000,stimuli\\,0.8836,0.6272,2.449,,,,,,,,,,,,
,,,,,,,,,,dyl,1,2024-06-27_20h31.58.552,DCT_v1_online,2021.2.3,Win32,144.6131598,,,0.381,2.869,122,down,1,left,1,0,105,105,113,1,114,incongruent,down,down,congruent,Stim/Aincon.png,down,0,-0.1,180,8,1000,congruent,left,left,congruent,Stim/Acon.png,left,-0.1,0,90,1,2000,stimuli\\,0.8971,0.4896,2.119,,,,,,,,,,,,
,,,,,,,,,,dyl,1,2024-06-27_20h31.58.552,DCT_v1_online,2021.2.3,Win32,144.6131598,,,0.21,3.04,123,down,1,left,1,0,106,106,61,1,62,congruent,down,down,congruent,Stim/Acon.png,down,0,-0.1,180,4,1000,incongruent,right,left,incongruent,Stim/Aincon.png,left,0.1,0,90,7,2000,stimuli\\,0.6556,0.7381,2.29,,,,,,,,,,,,
,,,,,,,,,,dyl,1,2024-06-27_20h31.58.552,DCT_v1_online,2021.2.3,Win32,144.6131598,,,0.053,2.297,124,up,1,left,1,0,107,107,68,1,69,incongruent,up,up,congruent,Stim/Aincon.png,up,0,0.1,0,5,100,congruent,right,left,incongruent,Stim/Acon.png,left,0.1,0,90,3,2000,stimuli\\,0.8526,1.0777,2.447,,,,,,,,,,,,
,,,,,,,,,,dyl,1,2024-06-27_20h31.58.552,DCT_v1_online,2021.2.3,Win32,144.6131598,,,0.304,2.046,125,up,1,left,1,0,108,108,8,1,9,congruent,up,up,congruent,Stim/Acon.png,up,0,0.1,0,1,100,incongruent,left,left,congruent,Stim/Aincon.png,left,-0.1,0,90,5,2000,stimuli\\,0.7366,0.9609,2.196,,,,,,,,,,,,
,,,,,,,,,,dyl,1,2024-06-27_20h31.58.552,DCT_v1_online,2021.2.3,Win32,144.6131598,,,0.019,3.231,126,down,1,left,1,0,109,109,125,1,126,incongruent,down,down,congruent,Stim/Aincon.png,down,0,-0.1,180,8,1000,incongruent,right,left,incongruent,Stim/Aincon.png,left,0.1,0,90,7,2000,stimuli\\,0.7439,0.6805,2.481,,,,,,,,,,,,
,,,,,,,,,,dyl,1,2024-06-27_20h31.58.552,DCT_v1_online,2021.2.3,Win32,144.6131598,,,0.257,2.093,127,down,1,left,1,0,110,110,120,1,121,incongruent,down,down,congruent,Stim/Aincon.png,down,0,-0.1,180,8,100,incongruent,left,left,congruent,Stim/Aincon.png,left,-0.1,0,90,5,2000,stimuli\\,0.8519,1.1278,2.243,,,,,,,,,,,,
,,,,,,,,,,dyl,1,2024-06-27_20h31.58.552,DCT_v1_online,2021.2.3,Win32,144.6131598,,,0.278,2.972,128,down,1,left,1,0,111,111,93,1,94,incongruent,up,down,incongruent,Stim/Aincon.png,down,0,0.1,180,6,1000,incongruent,right,left,incongruent,Stim/Aincon.png,left,0.1,0,90,7,2000,stimuli\\,0.7637,0.6629,2.222,,,,,,,,,,,,
,,,,,,,,,,dyl,1,2024-06-27_20h31.58.552,DCT_v1_online,2021.2.3,Win32,144.6131598,,,0.232,3.018,129,down,1,right,1,0,112,112,95,1,96,incongruent,up,down,incongruent,Stim/Aincon.png,down,0,0.1,180,6,1000,incongruent,right,right,congruent,Stim/Aincon.png,right,0.1,0,-90,8,2000,stimuli\\,0.6759,0.7686,2.268,,,,,,,,,,,,
,,,,,,,,,,dyl,1,2024-06-27_20h31.58.552,DCT_v1_online,2021.2.3,Win32,144.6131598,,,0.19,2.16,130,down,1,left,1,0,113,113,28,1,29,congruent,up,down,incongruent,Stim/Acon.png,down,0,0.1,180,2,100,incongruent,right,left,incongruent,Stim/Aincon.png,left,0.1,0,90,7,2000,stimuli\\,0.7019,0.8831,2.31,,,,,,,,,,,,
,,,,,,,,,,dyl,1,2024-06-27_20h31.58.552,DCT_v1_online,2021.2.3,Win32,144.6131598,,,0.115,3.135,131,down,1,left,1,0,114,114,25,1,26,congruent,up,down,incongruent,Stim/Acon.png,down,0,0.1,180,2,1000,incongruent,left,left,congruent,Stim/Aincon.png,left,-0.1,0,90,5,2000,stimuli\\,0.6343,0.6779,2.385,,,,,,,,,,,,
,,,,,,,,,,dyl,1,2024-06-27_20h31.58.552,DCT_v1_online,2021.2.3,Win32,144.6131598,,,0.112,2.238,132,up,1,left,1,0,115,115,76,1,77,incongruent,up,up,congruent,Stim/Aincon.png,up,0,0.1,0,5,100,incongruent,right,left,incongruent,Stim/Aincon.png,left,0.1,0,90,7,2000,stimuli\\,0.817,1.0912,2.388,,,,,,,,,,,,
,,,,,,,,,,dyl,1,2024-06-27_20h31.58.552,DCT_v1_online,2021.2.3,Win32,144.6131598,,,0.078,3.172,133,down,1,left,1,0,116,116,121,1,122,incongruent,down,down,congruent,Stim/Aincon.png,down,0,-0.1,180,8,1000,incongruent,left,left,congruent,Stim/Aincon.png,left,-0.1,0,90,5,2000,stimuli\\,0.7664,0.5261,2.422,,,,,,,,,,,,
,,,,,,,,,,dyl,1,2024-06-27_20h31.58.552,DCT_v1_online,2021.2.3,Win32,144.6131598,,,0.207,3.043,134,down,1,left,1,0,117,117,17,1,18,congruent,up,down,incongruent,Stim/Acon.png,down,0,0.1,180,2,1000,congruent,left,left,congruent,Stim/Acon.png,left,-0.1,0,90,1,2000,stimuli\\,0.6282,0.4642,2.293,,,,,,,,,,,,
,,,,,,,,,,dyl,1,2024-06-27_20h31.58.552,DCT_v1_online,2021.2.3,Win32,144.6131598,,,0.289,2.061,135,up,1,left,1,0,118,118,44,1,45,congruent,down,up,incongruent,Stim/Acon.png,up,0,-0.1,0,3,100,incongruent,right,left,incongruent,Stim/Aincon.png,left,0.1,0,90,7,2000,stimuli\\,0.8184,1.1086,2.211,,,,,,,,,,,,
,,,,,,,,,,dyl,1,2024-06-27_20h31.58.552,DCT_v1_online,2021.2.3,Win32,144.6131598,,,0.176,3.074,136,up,1,right,1,0,119,119,103,1,104,incongruent,down,up,incongruent,Stim/Aincon.png,up,0,-0.1,0,7,1000,congruent,right,right,congruent,Stim/Acon.png,right,0.1,0,-90,4,2000,stimuli\\,0.9566,0.6805,2.324,,,,,,,,,,,,
,,,,,,,,,,dyl,1,2024-06-27_20h31.58.552,DCT_v1_online,2021.2.3,Win32,144.6131598,,,0.283,2.067,137,up,1,right,1,0,120,120,106,1,107,incongruent,down,up,incongruent,Stim/Aincon.png,up,0,-0.1,0,7,100,incongruent,left,right,incongruent,Stim/Aincon.png,right,-0.1,0,-90,6,2000,stimuli\\,0.9526,1.1588,2.217,,,,,,,,,,,,
,,,,,,,,,,dyl,1,2024-06-27_20h31.58.552,DCT_v1_online,2021.2.3,Win32,144.6131598,,,0.099,3.151,138,down,1,right,1,0,121,121,27,1,28,congruent,up,down,incongruent,Stim/Acon.png,down,0,0.1,180,2,1000,incongruent,left,right,incongruent,Stim/Aincon.png,right,-0.1,0,-90,6,2000,stimuli\\,0.64,0.7115,2.401,,,,,,,,,,,,
,,,,,,,,,,dyl,1,2024-06-27_20h31.58.552,DCT_v1_online,2021.2.3,Win32,144.6131598,,,0.455,2.795,139,up,1,right,1,0,122,122,35,1,36,congruent,down,up,incongruent,Stim/Acon.png,up,0,-0.1,0,3,1000,congruent,left,right,incongruent,Stim/Acon.png,right,-0.1,0,-90,2,2000,stimuli\\,0.6911,0.5441,2.045,,,,,,,,,,,,
,,,,,,,,,,dyl,1,2024-06-27_20h31.58.552,DCT_v1_online,2021.2.3,Win32,144.6131598,,,0.339,2.011,140,up,1,right,1,0,123,123,78,1,79,incongruent,up,up,congruent,Stim/Aincon.png,up,0,0.1,0,5,100,incongruent,right,right,congruent,Stim/Aincon.png,right,0.1,0,-90,8,2000,stimuli\\,0.625,0.9029,2.161,,,,,,,,,,,,
,,,,,,,,,,dyl,1,2024-06-27_20h31.58.552,DCT_v1_online,2021.2.3,Win32,144.6131598,,,0.378,2.872,141,up,1,right,1,0,124,124,99,1,100,incongruent,down,up,incongruent,Stim/Aincon.png,up,0,-0.1,0,7,1000,congruent,left,right,incongruent,Stim/Acon.png,right,-0.1,0,-90,2,2000,stimuli\\,0.829,0.5282,2.122,,,,,,,,,,,,
,,,,,,,,,,dyl,1,2024-06-27_20h31.58.552,DCT_v1_online,2021.2.3,Win32,144.6131598,,,0.333,2.017,142,down,1,left,1,0,125,125,16,1,17,congruent,up,down,incongruent,Stim/Acon.png,down,0,0.1,180,2,100,congruent,left,left,congruent,Stim/Acon.png,left,-0.1,0,90,1,2000,stimuli\\,0.7084,0.8685,2.167,,,,,,,,,,,,
,,,,,,,,,,dyl,1,2024-06-27_20h31.58.552,DCT_v1_online,2021.2.3,Win32,144.6131598,,,0.042,2.308,143,down,1,left,1,0,126,126,124,1,125,incongruent,down,down,congruent,Stim/Aincon.png,down,0,-0.1,180,8,100,incongruent,right,left,incongruent,Stim/Aincon.png,left,0.1,0,90,7,2000,stimuli\\,0.9306,1.1132,2.458,,,,,,,,,,,,
,,,,,,,,,,dyl,1,2024-06-27_20h31.58.552,DCT_v1_online,2021.2.3,Win32,144.6131598,,,0.046,3.204,144,up,1,right,1,0,127,127,43,1,44,congruent,down,up,incongruent,Stim/Acon.png,up,0,-0.1,0,3,1000,incongruent,left,right,incongruent,Stim/Aincon.png,right,-0.1,0,-90,6,2000,stimuli\\,0.6319,0.6935,2.454,,,,,,,,,,,,
,,,,,,,,,,dyl,1,2024-06-27_20h31.58.552,DCT_v1_online,2021.2.3,Win32,144.6131598,,,,,,,,,,,,,,,,,,,,,,,,,,,,,,,,,,,,,,,,,,space,17.3333,0,1,1,1,1,Instructions/i5.png,test,conditions/block1.xlsx,1.2,0.8
,,,,,,,,,,dyl,1,2024-06-27_20h31.58.552,DCT_v1_online,2021.2.3,Win32,144.6131598,space,2.6141,0.168,2.182,145,up,1,right,1,0,0,0,38,1,39,congruent,down,up,incongruent,Stim/Acon.png,up,0,-0.1,0,3,100,congruent,right,right,congruent,Stim/Acon.png,right,0.1,0,-90,4,2000,stimuli\\,0.7757,0.9683,2.332,,,,,,,,,,,,
,,,,,,,,,,dyl,1,2024-06-27_20h31.58.552,DCT_v1_online,2021.2.3,Win32,144.6131598,,,0.127,3.123,146,up,1,left,1,0,1,1,13,1,14,congruent,up,up,congruent,Stim/Acon.png,up,0,0.1,0,1,1000,incongruent,right,left,incongruent,Stim/Aincon.png,left,0.1,0,90,7,2000,stimuli\\,0.5654,0.7881,2.373,,,,,,,,,,,,
,,,,,,,,,,dyl,1,2024-06-27_20h31.58.552,DCT_v1_online,2021.2.3,Win32,144.6131598,,,0.472,2.778,147,down,1,right,1,0,2,2,55,1,56,congruent,down,down,congruent,Stim/Acon.png,down,0,-0.1,180,4,1000,congruent,right,right,congruent,Stim/Acon.png,right,0.1,0,-90,4,2000,stimuli\\,0.7605,0.6255,2.028,,,,,,,,,,,,
,,,,,,,,,,dyl,1,2024-06-27_20h31.58.552,DCT_v1_online,2021.2.3,Win32,144.6131598,,,0.31,2.94,148,down,1,left,1,0,3,3,17,1,18,congruent,up,down,incongruent,Stim/Acon.png,down,0,0.1,180,2,1000,congruent,left,left,congruent,Stim/Acon.png,left,-0.1,0,90,1,2000,stimuli\\,0.6469,0.4863,2.19,,,,,,,,,,,,
,,,,,,,,,,dyl,1,2024-06-27_20h31.58.552,DCT_v1_online,2021.2.3,Win32,144.6131598,,,0.156,2.194,149,up,1,right,1,0,4,4,10,1,11,congruent,up,up,congruent,Stim/Acon.png,up,0,0.1,0,1,100,incongruent,left,right,incongruent,Stim/Aincon.png,right,-0.1,0,-90,6,2000,stimuli\\,0.6716,0.8811,2.344,,,,,,,,,,,,
,,,,,,,,,,dyl,1,2024-06-27_20h31.58.552,DCT_v1_online,2021.2.3,Win32,144.6131598,,,0.045,3.205,150,up,1,right,1,0,5,5,43,1,44,congruent,down,up,incongruent,Stim/Acon.png,up,0,-0.1,0,3,1000,incongruent,left,right,incongruent,Stim/Aincon.png,right,-0.1,0,-90,6,2000,stimuli\\,0.6763,0.732,2.455,,,,,,,,,,,,
,,,,,,,,,,dyl,1,2024-06-27_20h31.58.552,DCT_v1_online,2021.2.3,Win32,144.6131598,,,0.413,1.937,151,up,1,left,1,0,6,6,96,1,97,incongruent,down,up,incongruent,Stim/Aincon.png,up,0,-0.1,0,7,100,congruent,left,left,congruent,Stim/Acon.png,left,-0.1,0,90,1,2000,stimuli\\,0.9936,1.1238,2.087,,,,,,,,,,,,
,,,,,,,,,,dyl,1,2024-06-27_20h31.58.552,DCT_v1_online,2021.2.3,Win32,144.6131598,,,0.228,3.022,152,down,1,left,1,0,7,7,81,1,82,incongruent,up,down,incongruent,Stim/Aincon.png,down,0,0.1,180,6,1000,congruent,left,left,congruent,Stim/Acon.png,left,-0.1,0,90,1,2000,stimuli\\,0.8186,0.4656,2.272,,,,,,,,,,,,
,,,,,,,,,,dyl,1,2024-06-27_20h31.58.552,DCT_v1_online,2021.2.3,Win32,144.6131598,,,0.002,2.348,153,up,1,left,0,0,8,8,110,1,111,incongruent,down,up,incongruent,Stim/Aincon.png,up,0,-0.1,0,7,100,incongruent,right,right,congruent,Stim/Aincon.png,right,0.1,0,-90,8,2000,stimuli\\,0.9841,1.2322,2.498,,,,,,,,,,,,
,,,,,,,,,,dyl,1,2024-06-27_20h31.58.552,DCT_v1_online,2021.2.3,Win32,144.6131598,,,0.272,2.078,154,up,1,left,1,0,9,9,72,1,73,incongruent,up,up,congruent,Stim/Aincon.png,up,0,0.1,0,5,100,incongruent,left,left,congruent,Stim/Aincon.png,left,-0.1,0,90,5,2000,stimuli\\,0.6559,0.9335,2.228,,,,,,,,,,,,
,,,,,,,,,,dyl,1,2024-06-27_20h31.58.552,DCT_v1_online,2021.2.3,Win32,144.6131598,,,0.289,2.961,155,up,1,left,1,0,10,10,97,1,98,incongruent,down,up,incongruent,Stim/Aincon.png,up,0,-0.1,0,7,1000,congruent,left,left,congruent,Stim/Acon.png,left,-0.1,0,90,1,2000,stimuli\\,0.9114,0.5133,2.211,,,,,,,,,,,,
,,,,,,,,,,dyl,1,2024-06-27_20h31.58.552,DCT_v1_online,2021.2.3,Win32,144.6131598,,,0.099,2.251,156,up,1,right,1,0,11,11,6,1,7,congruent,up,up,congruent,Stim/Acon.png,up,0,0.1,0,1,100,congruent,right,right,congruent,Stim/Acon.png,right,0.1,0,-90,4,2000,stimuli\\,0.6071,0.7465,2.401,,,,,,,,,,,,
,,,,,,,,,,dyl,1,2024-06-27_20h31.58.552,DCT_v1_online,2021.2.3,Win32,144.6131598,,,0.355,2.895,157,up,1,right,1,0,12,12,71,1,72,incongruent,up,up,congruent,Stim/Aincon.png,up,0,0.1,0,5,1000,congruent,right,right,congruent,Stim/Acon.png,right,0.1,0,-90,4,2000,stimuli\\,0.6178,0.5632,2.145,,,,,,,,,,,,
,,,,,,,,,,dyl,1,2024-06-27_20h31.58.552,DCT_v1_online,2021.2.3,Win32,144.6131598,,,0.032,2.318,158,up,1,left,1,0,13,13,12,1,13,congruent,up,up,congruent,Stim/Acon.png,up,0,0.1,0,1,100,incongruent,right,left,incongruent,Stim/Aincon.png,left,0.1,0,90,7,2000,stimuli\\,0.6716,0.9409,2.468,,,,,,,,,,,,
,,,,,,,,,,dyl,1,2024-06-27_20h31.58.552,DCT_v1_online,2021.2.3,Win32,144.6131598,,,0.143,3.107,159,up,1,left,1,0,14,14,9,1,10,congruent,up,up,congruent,Stim/Acon.png,up,0,0.1,0,1,1000,incongruent,left,left,congruent,Stim/Aincon.png,left,-0.1,0,90,5,2000,stimuli\\,1.0924,1.0001,2.357,,,,,,,,,,,,
,,,,,,,,,,dyl,1,2024-06-27_20h31.58.552,DCT_v1_online,2021.2.3,Win32,144.6131598,,,0.387,2.863,160,down,1,left,1,0,15,15,61,1,62,congruent,down,down,congruent,Stim/Acon.png,down,0,-0.1,180,4,1000,incongruent,right,left,incongruent,Stim/Aincon.png,left,0.1,0,90,7,2000,stimuli\\,0.7521,0.7053,2.113,,,,,,,,,,,,
,,,,,,,,,,dyl,1,2024-06-27_20h31.58.552,DCT_v1_online,2021.2.3,Win32,144.6131598,,,0.254,2.096,161,down,1,left,1,0,16,16,124,1,125,incongruent,down,down,congruent,Stim/Aincon.png,down,0,-0.1,180,8,100,incongruent,right,left,incongruent,Stim/Aincon.png,left,0.1,0,90,7,2000,stimuli\\,0.986,1.5588,2.246,,,,,,,,,,,,
,,,,,,,,,,dyl,1,2024-06-27_20h31.58.552,DCT_v1_online,2021.2.3,Win32,144.6131598,,,0.244,3.006,162,down,1,left,1,0,17,17,25,1,26,congruent,up,down,incongruent,Stim/Acon.png,down,0,0.1,180,2,1000,incongruent,left,left,congruent,Stim/Aincon.png,left,-0.1,0,90,5,2000,stimuli\\,0.6458,0.7024,2.256,,,,,,,,,,,,
,,,,,,,,,,dyl,1,2024-06-27_20h31.58.552,DCT_v1_online,2021.2.3,Win32,144.6131598,,,0.263,2.987,163,down,1,right,1,0,18,18,87,1,88,incongruent,up,down,incongruent,Stim/Aincon.png,down,0,0.1,180,6,1000,congruent,right,right,congruent,Stim/Acon.png,right,0.1,0,-90,4,2000,stimuli\\,0.6933,0.6567,2.237,,,,,,,,,,,,
,,,,,,,,,,dyl,1,2024-06-27_20h31.58.552,DCT_v1_online,2021.2.3,Win32,144.6131598,,,0.018,2.332,164,up,1,left,1,0,19,19,104,1,105,incongruent,down,up,incongruent,Stim/Aincon.png,up,0,-0.1,0,7,100,incongruent,left,left,congruent,Stim/Aincon.png,left,-0.1,0,90,5,2000,stimuli\\,0.9887,1.1636,2.482,,,,,,,,,,,,
,,,,,,,,,,dyl,1,2024-06-27_20h31.58.552,DCT_v1_online,2021.2.3,Win32,144.6131598,,,0.16,3.09,165,up,1,left,1,0,20,20,45,1,46,congruent,down,up,incongruent,Stim/Acon.png,up,0,-0.1,0,3,1000,incongruent,right,left,incongruent,Stim/Aincon.png,left,0.1,0,90,7,2000,stimuli\\,0.7926,0.5974,2.34,,,,,,,,,,,,
,,,,,,,,,,dyl,1,2024-06-27_20h31.58.552,DCT_v1_online,2021.2.3,Win32,144.6131598,,,0.081,2.269,166,up,1,right,1,0,21,21,74,1,75,incongruent,up,up,congruent,Stim/Aincon.png,up,0,0.1,0,5,100,incongruent,left,right,incongruent,Stim/Aincon.png,right,-0.1,0,-90,6,2000,stimuli\\,0.7577,1.0559,2.419,,,,,,,,,,,,
,,,,,,,,,,dyl,1,2024-06-27_20h31.58.552,DCT_v1_online,2021.2.3,Win32,144.6131598,,,0.025,2.325,167,down,1,left,1,0,22,22,16,1,17,congruent,up,down,incongruent,Stim/Acon.png,down,0,0.1,180,2,100,congruent,left,left,congruent,Stim/Acon.png,left,-0.1,0,90,1,2000,stimuli\\,0.8255,1.009,2.475,,,,,,,,,,,,
,,,,,,,,,,dyl,1,2024-06-27_20h31.58.552,DCT_v1_online,2021.2.3,Win32,144.6131598,,,0.403,2.847,168,down,1,right,1,0,23,23,123,1,124,incongruent,down,down,congruent,Stim/Aincon.png,down,0,-0.1,180,8,1000,incongruent,left,right,incongruent,Stim/Aincon.png,right,-0.1,0,-90,6,2000,stimuli\\,0.9392,0.7063,2.097,,,,,,,,,,,,
,,,,,,,,,,dyl,1,2024-06-27_20h31.58.552,DCT_v1_online,2021.2.3,Win32,144.6131598,,,0.305,2.045,169,down,1,right,1,0,24,24,82,1,83,incongruent,up,down,incongruent,Stim/Aincon.png,down,0,0.1,180,6,100,congruent,left,right,incongruent,Stim/Acon.png,right,-0.1,0,-90,2,2000,stimuli\\,0.922,1.0747,2.195,,,,,,,,,,,,
,,,,,,,,,,dyl,1,2024-06-27_20h31.58.552,DCT_v1_online,2021.2.3,Win32,144.6131598,,,0.402,2.848,170,up,1,right,1,0,25,25,7,1,8,congruent,up,up,congruent,Stim/Acon.png,up,0,0.1,0,1,1000,congruent,right,right,congruent,Stim/Acon.png,right,0.1,0,-90,4,2000,stimuli\\,0.603,0.6824,2.098,,,,,,,,,,,,
,,,,,,,,,,dyl,1,2024-06-27_20h31.58.552,DCT_v1_online,2021.2.3,Win32,144.6131598,,,0.021,2.329,171,down,1,right,1,0,26,26,90,1,91,incongruent,up,down,incongruent,Stim/Aincon.png,down,0,0.1,180,6,100,incongruent,left,right,incongruent,Stim/Aincon.png,right,-0.1,0,-90,6,2000,stimuli\\,0.9191,1.1174,2.479,,,,,,,,,,,,
,,,,,,,,,,dyl,1,2024-06-27_20h31.58.552,DCT_v1_online,2021.2.3,Win32,144.6131598,,,0.368,1.982,172,down,1,right,1,0,27,27,26,1,27,congruent,up,down,incongruent,Stim/Acon.png,down,0,0.1,180,2,100,incongruent,left,right,incongruent,Stim/Aincon.png,right,-0.1,0,-90,6,2000,stimuli\\,0.7778,1.0885,2.132,,,,,,,,,,,,
,,,,,,,,,,dyl,1,2024-06-27_20h31.58.552,DCT_v1_online,2021.2.3,Win32,144.6131598,,,0.358,2.892,173,up,1,left,1,0,28,28,41,1,42,congruent,down,up,incongruent,Stim/Acon.png,up,0,-0.1,0,3,1000,incongruent,left,left,congruent,Stim/Aincon.png,left,-0.1,0,90,5,2000,stimuli\\,0.7169,0.6421,2.142,,,,,,,,,,,,
,,,,,,,,,,dyl,1,2024-06-27_20h31.58.552,DCT_v1_online,2021.2.3,Win32,144.6131598,,,0.469,1.881,174,down,1,left,1,0,29,29,56,1,57,congruent,down,down,congruent,Stim/Acon.png,down,0,-0.1,180,4,100,incongruent,left,left,congruent,Stim/Aincon.png,left,-0.1,0,90,5,2000,stimuli\\,0.7804,0.9631,2.031,,,,,,,,,,,,
,,,,,,,,,,dyl,1,2024-06-27_20h31.58.552,DCT_v1_online,2021.2.3,Win32,144.6131598,,,0.482,2.768,175,down,1,left,1,0,30,30,121,1,122,incongruent,down,down,congruent,Stim/Aincon.png,down,0,-0.1,180,8,1000,incongruent,left,left,congruent,Stim/Aincon.png,left,-0.1,0,90,5,2000,stimuli\\,0.8505,0.6341,2.018,,,,,,,,,,,,
,,,,,,,,,,dyl,1,2024-06-27_20h31.58.552,DCT_v1_online,2021.2.3,Win32,144.6131598,,,0.057,3.193,176,down,1,left,1,0,31,31,93,1,94,incongruent,up,down,incongruent,Stim/Aincon.png,down,0,0.1,180,6,1000,incongruent,right,left,incongruent,Stim/Aincon.png,left,0.1,0,90,7,2000,stimuli\\,0.7574,0.7064,2.443,,,,,,,,,,,,
,,,,,,,,,,dyl,1,2024-06-27_20h31.58.552,DCT_v1_online,2021.2.3,Win32,144.6131598,,,0.071,2.279,177,down,1,right,1,0,32,32,50,1,51,congruent,down,down,congruent,Stim/Acon.png,down,0,-0.1,180,4,100,congruent,left,right,incongruent,Stim/Acon.png,right,-0.1,0,-90,2,2000,stimuli\\,0.8346,1.0173,2.429,,,,,,,,,,,,
,,,,,,,,,,dyl,1,2024-06-27_20h31.58.552,DCT_v1_online,2021.2.3,Win32,144.6131598,,,0.365,1.985,178,up,1,left,1,0,33,33,108,1,109,incongruent,down,up,incongruent,Stim/Aincon.png,up,0,-0.1,0,7,100,incongruent,right,left,incongruent,Stim/Aincon.png,left,0.1,0,90,7,2000,stimuli\\,0.9097,1.0996,2.135,,,,,,,,,,,,
,,,,,,,,,,dyl,1,2024-06-27_20h31.58.552,DCT_v1_online,2021.2.3,Win32,144.6131598,,,0.491,2.759,179,up,1,left,1,0,34,34,101,1,102,incongruent,down,up,incongruent,Stim/Aincon.png,up,0,-0.1,0,7,1000,congruent,right,left,incongruent,Stim/Acon.png,left,0.1,0,90,3,2000,stimuli\\,0.88,0.6191,2.009,,,,,,,,,,,,
,,,,,,,,,,dyl,1,2024-06-27_20h31.58.552,DCT_v1_online,2021.2.3,Win32,144.6131598,,,0.217,3.033,180,down,1,right,1,0,35,35,91,1,92,incongruent,up,down,incongruent,Stim/Aincon.png,down,0,0.1,180,6,1000,incongruent,left,right,incongruent,Stim/Aincon.png,right,-0.1,0,-90,6,2000,stimuli\\,0.7386,0.6254,2.283,,,,,,,,,,,,
,,,,,,,,,,dyl,1,2024-06-27_20h31.58.552,DCT_v1_online,2021.2.3,Win32,144.6131598,,,0.285,2.065,181,up,1,left,1,0,36,36,4,1,5,congruent,up,up,congruent,Stim/Acon.png,up,0,0.1,0,1,100,congruent,right,left,incongruent,Stim/Acon.png,left,0.1,0,90,3,2000,stimuli\\,0.6396,0.8223,2.215,,,,,,,,,,,,
,,,,,,,,,,dyl,1,2024-06-27_20h31.58.552,DCT_v1_online,2021.2.3,Win32,144.6131598,,,0.235,2.115,182,down,1,left,1,0,37,37,80,1,81,incongruent,up,down,incongruent,Stim/Aincon.png,down,0,0.1,180,6,100,congruent,left,left,congruent,Stim/Acon.png,left,-0.1,0,90,1,2000,stimuli\\,0.7153,0.8519,2.265,,,,,,,,,,,,
,,,,,,,,,,dyl,1,2024-06-27_20h31.58.552,DCT_v1_online,2021.2.3,Win32,144.6131598,,,0.107,2.243,183,up,1,left,1,0,38,38,44,1,45,congruent,down,up,incongruent,Stim/Acon.png,up,0,-0.1,0,3,100,incongruent,right,left,incongruent,Stim/Aincon.png,left,0.1,0,90,7,2000,stimuli\\,0.7615,1.1654,2.393,,,,,,,,,,,,
,,,,,,,,,,dyl,1,2024-06-27_20h31.58.552,DCT_v1_online,2021.2.3,Win32,144.6131598,,,0.424,1.926,184,down,1,right,1,0,39,39,126,1,127,incongruent,down,down,congruent,Stim/Aincon.png,down,0,-0.1,180,8,100,incongruent,right,right,congruent,Stim/Aincon.png,right,0.1,0,-90,8,2000,stimuli\\,0.9625,1.1533,2.076,,,,,,,,,,,,
,,,,,,,,,,dyl,1,2024-06-27_20h31.58.552,DCT_v1_online,2021.2.3,Win32,144.6131598,,,0.071,3.179,185,down,1,left,0,0,40,40,59,1,60,congruent,down,down,congruent,Stim/Acon.png,down,0,-0.1,180,4,1000,incongruent,left,right,incongruent,Stim/Aincon.png,right,-0.1,0,-90,6,2000,stimuli\\,0.7854,0.4698,2.429,,,,,,,,,,,,
,,,,,,,,,,dyl,1,2024-06-27_20h31.58.552,DCT_v1_online,2021.2.3,Win32,144.6131598,,,0.439,1.911,186,down,1,left,1,0,41,41,112,1,113,incongruent,down,down,congruent,Stim/Aincon.png,down,0,-0.1,180,8,100,congruent,left,left,congruent,Stim/Acon.png,left,-0.1,0,90,1,2000,stimuli\\,0.9452,1.0874,2.061,,,,,,,,,,,,
,,,,,,,,,,dyl,1,2024-06-27_20h31.58.552,DCT_v1_online,2021.2.3,Win32,144.6131598,,,0.341,2.009,187,up,1,right,1,0,42,42,2,1,3,congruent,up,up,congruent,Stim/Acon.png,up,0,0.1,0,1,100,congruent,left,right,incongruent,Stim/Acon.png,right,-0.1,0,-90,2,2000,stimuli\\,0.663,0.843,2.159,,,,,,,,,,,,
,,,,,,,,,,dyl,1,2024-06-27_20h31.58.552,DCT_v1_online,2021.2.3,Win32,144.6131598,,,0.063,3.187,188,up,1,left,1,0,43,43,1,1,2,congruent,up,up,congruent,Stim/Acon.png,up,0,0.1,0,1,1000,congruent,left,left,congruent,Stim/Acon.png,left,-0.1,0,90,1,2000,stimuli\\,0.6001,0.458,2.437,,,,,,,,,,,,
,,,,,,,,,,dyl,1,2024-06-27_20h31.58.552,DCT_v1_online,2021.2.3,Win32,144.6131598,,,0.493,1.857,189,up,1,right,1,0,44,44,42,1,43,congruent,down,up,incongruent,Stim/Acon.png,up,0,-0.1,0,3,100,incongruent,left,right,incongruent,Stim/Aincon.png,right,-0.1,0,-90,6,2000,stimuli\\,0.7756,1.0127,2.007,,,,,,,,,,,,
,,,,,,,,,,dyl,1,2024-06-27_20h31.58.552,DCT_v1_online,2021.2.3,Win32,144.6131598,,,0.152,2.198,190,up,1,right,1,0,45,45,98,1,99,incongruent,down,up,incongruent,Stim/Aincon.png,up,0,-0.1,0,7,100,congruent,left,right,incongruent,Stim/Acon.png,right,-0.1,0,-90,2,2000,stimuli\\,0.8998,1.1067,2.348,,,,,,,,,,,,
,,,,,,,,,,dyl,1,2024-06-27_20h31.58.552,DCT_v1_online,2021.2.3,Win32,144.6131598,,,0.038,2.312,191,down,1,right,1,0,46,46,58,1,59,congruent,down,down,congruent,Stim/Acon.png,down,0,-0.1,180,4,100,incongruent,left,right,incongruent,Stim/Aincon.png,right,-0.1,0,-90,6,2000,stimuli\\,0.9151,1.3706,2.462,,,,,,,,,,,,
,,,,,,,,,,dyl,1,2024-06-27_20h31.58.552,DCT_v1_online,2021.2.3,Win32,144.6131598,,,0.243,2.107,192,up,1,left,1,0,47,47,100,1,101,incongruent,down,up,incongruent,Stim/Aincon.png,up,0,-0.1,0,7,100,congruent,right,left,incongruent,Stim/Acon.png,left,0.1,0,90,3,2000,stimuli\\,0.9871,1.1692,2.257,,,,,,,,,,,,
,,,,,,,,,,dyl,1,2024-06-27_20h31.58.552,DCT_v1_online,2021.2.3,Win32,144.6131598,,,0.257,2.993,193,up,1,left,1,0,48,48,5,1,6,congruent,up,up,congruent,Stim/Acon.png,up,0,0.1,0,1,1000,congruent,right,left,incongruent,Stim/Acon.png,left,0.1,0,90,3,2000,stimuli\\,0.7847,0.798,2.243,,,,,,,,,,,,
,,,,,,,,,,dyl,1,2024-06-27_20h31.58.552,DCT_v1_online,2021.2.3,Win32,144.6131598,,,0.014,3.236,194,up,1,right,1,0,49,49,67,1,68,incongruent,up,up,congruent,Stim/Aincon.png,up,0,0.1,0,5,1000,congruent,left,right,incongruent,Stim/Acon.png,right,-0.1,0,-90,2,2000,stimuli\\,0.7014,0.5577,2.486,,,,,,,,,,,,
,,,,,,,,,,dyl,1,2024-06-27_20h31.58.552,DCT_v1_online,2021.2.3,Win32,144.6131598,,,0.288,2.062,195,down,1,right,1,0,50,50,94,1,95,incongruent,up,down,incongruent,Stim/Aincon.png,down,0,0.1,180,6,100,incongruent,right,right,congruent,Stim/Aincon.png,right,0.1,0,-90,8,2000,stimuli\\,0.8818,1.0625,2.212,,,,,,,,,,,,
,,,,,,,,,,dyl,1,2024-06-27_20h31.58.552,DCT_v1_online,2021.2.3,Win32,144.6131598,,,0.159,3.091,196,up,1,left,1,0,51,51,33,1,34,congruent,down,up,incongruent,Stim/Acon.png,up,0,-0.1,0,3,1000,congruent,left,left,congruent,Stim/Acon.png,left,-0.1,0,90,1,2000,stimuli\\,0.6692,0.4794,2.341,,,,,,,,,,,,
,,,,,,,,,,dyl,1,2024-06-27_20h31.58.552,DCT_v1_online,2021.2.3,Win32,144.6131598,,,0.318,2.032,197,up,1,left,1,0,52,52,64,1,65,incongruent,up,up,congruent,Stim/Aincon.png,up,0,0.1,0,5,100,congruent,left,left,congruent,Stim/Acon.png,left,-0.1,0,90,1,2000,stimuli\\,0.722,0.9348,2.182,,,,,,,,,,,,
,,,,,,,,,,dyl,1,2024-06-27_20h31.58.552,DCT_v1_online,2021.2.3,Win32,144.6131598,,,0.037,2.313,198,down,1,left,1,0,53,53,92,1,93,incongruent,up,down,incongruent,Stim/Aincon.png,down,0,0.1,180,6,100,incongruent,right,left,incongruent,Stim/Aincon.png,left,0.1,0,90,7,2000,stimuli\\,0.8485,1.2761,2.463,,,,,,,,,,,,
,,,,,,,,,,dyl,1,2024-06-27_20h31.58.552,DCT_v1_online,2021.2.3,Win32,144.6131598,,,0.237,3.013,199,up,1,left,1,0,54,54,109,1,110,incongruent,down,up,incongruent,Stim/Aincon.png,up,0,-0.1,0,7,1000,incongruent,right,left,incongruent,Stim/Aincon.png,left,0.1,0,90,7,2000,stimuli\\,0.884,0.7757,2.263,,,,,,,,,,,,
,,,,,,,,,,dyl,1,2024-06-27_20h31.58.552,DCT_v1_online,2021.2.3,Win32,144.6131598,,,0.24,2.11,200,up,1,left,1,0,55,55,36,1,37,congruent,down,up,incongruent,Stim/Acon.png,up,0,-0.1,0,3,100,congruent,right,left,incongruent,Stim/Acon.png,left,0.1,0,90,3,2000,stimuli\\,0.7114,0.8938,2.26,,,,,,,,,,,,
,,,,,,,,,,dyl,1,2024-06-27_20h31.58.552,DCT_v1_online,2021.2.3,Win32,144.6131598,,,0.39,1.96,201,up,1,left,1,0,56,56,0,1,1,congruent,up,up,congruent,Stim/Acon.png,up,0,0.1,0,1,100,congruent,left,left,congruent,Stim/Acon.png,left,-0.1,0,90,1,2000,stimuli\\,0.6687,0.8011,2.11,,,,,,,,,,,,
,,,,,,,,,,dyl,1,2024-06-27_20h31.58.552,DCT_v1_online,2021.2.3,Win32,144.6131598,,,0.402,2.848,202,up,1,left,1,0,57,57,37,1,38,congruent,down,up,incongruent,Stim/Acon.png,up,0,-0.1,0,3,1000,congruent,right,left,incongruent,Stim/Acon.png,left,0.1,0,90,3,2000,stimuli\\,0.6215,0.5603,2.098,,,,,,,,,,,,
,,,,,,,,,,dyl,1,2024-06-27_20h31.58.552,DCT_v1_online,2021.2.3,Win32,144.6131598,,,0.356,1.994,203,down,1,right,1,0,58,58,62,1,63,congruent,down,down,congruent,Stim/Acon.png,down,0,-0.1,180,4,100,incongruent,right,right,congruent,Stim/Aincon.png,right,0.1,0,-90,8,2000,stimuli\\,0.9061,1.1486,2.144,,,,,,,,,,,,
,,,,,,,,,,dyl,1,2024-06-27_20h31.58.552,DCT_v1_online,2021.2.3,Win32,144.6131598,,,0.225,3.025,204,down,1,right,1,0,59,59,115,1,116,incongruent,down,down,congruent,Stim/Aincon.png,down,0,-0.1,180,8,1000,congruent,left,right,incongruent,Stim/Acon.png,right,-0.1,0,-90,2,2000,stimuli\\,0.8145,0.6432,2.275,,,,,,,,,,,,
,,,,,,,,,,dyl,1,2024-06-27_20h31.58.552,DCT_v1_online,2021.2.3,Win32,144.6131598,,,0.183,3.067,205,up,1,left,1,0,60,60,65,1,66,incongruent,up,up,congruent,Stim/Aincon.png,up,0,0.1,0,5,1000,congruent,left,left,congruent,Stim/Acon.png,left,-0.1,0,90,1,2000,stimuli\\,0.7209,0.4792,2.317,,,,,,,,,,,,
,,,,,,,,,,dyl,1,2024-06-27_20h31.58.552,DCT_v1_online,2021.2.3,Win32,144.6131598,,,0.105,2.245,206,down,1,left,1,0,61,61,120,1,121,incongruent,down,down,congruent,Stim/Aincon.png,down,0,-0.1,180,8,100,incongruent,left,left,congruent,Stim/Aincon.png,left,-0.1,0,90,5,2000,stimuli\\,0.8294,0.9913,2.395,,,,,,,,,,,,
,,,,,,,,,,dyl,1,2024-06-27_20h31.58.552,DCT_v1_online,2021.2.3,Win32,144.6131598,,,0.335,2.015,207,up,1,right,1,0,62,62,78,1,79,incongruent,up,up,congruent,Stim/Aincon.png,up,0,0.1,0,5,100,incongruent,right,right,congruent,Stim/Aincon.png,right,0.1,0,-90,8,2000,stimuli\\,0.7413,0.9428,2.165,,,,,,,,,,,,
,,,,,,,,,,dyl,1,2024-06-27_20h31.58.552,DCT_v1_online,2021.2.3,Win32,144.6131598,,,0.258,2.092,208,down,1,left,1,0,63,63,116,1,117,incongruent,down,down,congruent,Stim/Aincon.png,down,0,-0.1,180,8,100,congruent,right,left,incongruent,Stim/Acon.png,left,0.1,0,90,3,2000,stimuli\\,0.9865,1.3148,2.242,,,,,,,,,,,,
,,,,,,,,,,dyl,1,2024-06-27_20h31.58.552,DCT_v1_online,2021.2.3,Win32,144.6131598,,,0.476,2.774,209,down,1,left,1,0,64,64,21,1,22,congruent,up,down,incongruent,Stim/Acon.png,down,0,0.1,180,2,1000,congruent,right,left,incongruent,Stim/Acon.png,left,0.1,0,90,3,2000,stimuli\\,0.6193,0.5033,2.024,,,,,,,,,,,,
,,,,,,,,,,dyl,1,2024-06-27_20h31.58.552,DCT_v1_online,2021.2.3,Win32,144.6131598,,,0.145,3.105,210,down,1,right,1,0,65,65,127,1,128,incongruent,down,down,congruent,Stim/Aincon.png,down,0,-0.1,180,8,1000,incongruent,right,right,congruent,Stim/Aincon.png,right,0.1,0,-90,8,2000,stimuli\\,0.7432,0.8001,2.355,,,,,,,,,,,,
,,,,,,,,,,dyl,1,2024-06-27_20h31.58.552,DCT_v1_online,2021.2.3,Win32,144.6131598,,,0.087,2.263,211,down,1,right,1,0,66,66,86,1,87,incongruent,up,down,incongruent,Stim/Aincon.png,down,0,0.1,180,6,100,congruent,right,right,congruent,Stim/Acon.png,right,0.1,0,-90,4,2000,stimuli\\,0.7488,0.9956,2.413,,,,,,,,,,,,
,,,,,,,,,,dyl,1,2024-06-27_20h31.58.552,DCT_v1_online,2021.2.3,Win32,144.6131598,,,0.485,1.865,212,down,1,left,1,0,67,67,20,1,21,congruent,up,down,incongruent,Stim/Acon.png,down,0,0.1,180,2,100,congruent,right,left,incongruent,Stim/Acon.png,left,0.1,0,90,3,2000,stimuli\\,0.7904,1.0667,2.015,,,,,,,,,,,,
,,,,,,,,,,dyl,1,2024-06-27_20h31.58.552,DCT_v1_online,2021.2.3,Win32,144.6131598,,,0.237,2.113,213,up,1,right,1,0,68,68,106,1,107,incongruent,down,up,incongruent,Stim/Aincon.png,up,0,-0.1,0,7,100,incongruent,left,right,incongruent,Stim/Aincon.png,right,-0.1,0,-90,6,2000,stimuli\\,0.8306,1.0418,2.263,,,,,,,,,,,,
,,,,,,,,,,dyl,1,2024-06-27_20h31.58.552,DCT_v1_online,2021.2.3,Win32,144.6131598,,,0.43,2.82,214,up,1,right,1,0,69,69,75,1,76,incongruent,up,up,congruent,Stim/Aincon.png,up,0,0.1,0,5,1000,incongruent,left,right,incongruent,Stim/Aincon.png,right,-0.1,0,-90,6,2000,stimuli\\,0.6763,0.7739,2.07,,,,,,,,,,,,
,,,,,,,,,,dyl,1,2024-06-27_20h31.58.552,DCT_v1_online,2021.2.3,Win32,144.6131598,,,0.225,3.025,215,up,1,right,1,0,70,70,47,1,48,congruent,down,up,incongruent,Stim/Acon.png,up,0,-0.1,0,3,1000,incongruent,right,right,congruent,Stim/Aincon.png,right,0.1,0,-90,8,2000,stimuli\\,0.685,0.9097,2.275,,,,,,,,,,,,
,,,,,,,,,,dyl,1,2024-06-27_20h31.58.552,DCT_v1_online,2021.2.3,Win32,144.6131598,,,0.139,2.211,216,up,1,left,1,0,71,71,68,1,69,incongruent,up,up,congruent,Stim/Aincon.png,up,0,0.1,0,5,100,congruent,right,left,incongruent,Stim/Acon.png,left,0.1,0,90,3,2000,stimuli\\,0.6491,0.9336,2.361,,,,,,,,,,,,
,,,,,,,,,,dyl,1,2024-06-27_20h31.58.552,DCT_v1_online,2021.2.3,Win32,144.6131598,,,0.105,3.145,217,up,1,left,1,0,72,72,105,1,106,incongruent,down,up,incongruent,Stim/Aincon.png,up,0,-0.1,0,7,1000,incongruent,left,left,congruent,Stim/Aincon.png,left,-0.1,0,90,5,2000,stimuli\\,0.8845,0.6723,2.395,,,,,,,,,,,,
,,,,,,,,,,dyl,1,2024-06-27_20h31.58.552,DCT_v1_online,2021.2.3,Win32,144.6131598,,,0.382,1.968,218,up,1,left,1,0,73,73,8,1,9,congruent,up,up,congruent,Stim/Acon.png,up,0,0.1,0,1,100,incongruent,left,left,congruent,Stim/Aincon.png,left,-0.1,0,90,5,2000,stimuli\\,0.6533,0.8985,2.118,,,,,,,,,,,,
,,,,,,,,,,dyl,1,2024-06-27_20h31.58.552,DCT_v1_online,2021.2.3,Win32,144.6131598,,,0.466,2.784,219,up,1,left,1,0,74,74,69,1,70,incongruent,up,up,congruent,Stim/Aincon.png,up,0,0.1,0,5,1000,congruent,right,left,incongruent,Stim/Acon.png,left,0.1,0,90,3,2000,stimuli\\,0.5368,0.5726,2.034,,,,,,,,,,,,
,,,,,,,,,,dyl,1,2024-06-27_20h31.58.552,DCT_v1_online,2021.2.3,Win32,144.6131598,,,0.442,1.908,220,up,1,left,1,0,75,75,32,1,33,congruent,down,up,incongruent,Stim/Acon.png,up,0,-0.1,0,3,100,congruent,left,left,congruent,Stim/Acon.png,left,-0.1,0,90,1,2000,stimuli\\,0.8058,0.9903,2.058,,,,,,,,,,,,
,,,,,,,,,,dyl,1,2024-06-27_20h31.58.552,DCT_v1_online,2021.2.3,Win32,144.6131598,,,0.067,2.283,221,up,1,right,1,0,76,76,66,1,67,incongruent,up,up,congruent,Stim/Aincon.png,up,0,0.1,0,5,100,congruent,left,right,incongruent,Stim/Acon.png,right,-0.1,0,-90,2,2000,stimuli\\,0.7267,0.9677,2.433,,,,,,,,,,,,
,,,,,,,,,,dyl,1,2024-06-27_20h31.58.552,DCT_v1_online,2021.2.3,Win32,144.6131598,,,0.029,3.221,222,down,1,left,1,0,77,77,53,1,54,congruent,down,down,congruent,Stim/Acon.png,down,0,-0.1,180,4,1000,congruent,right,left,incongruent,Stim/Acon.png,left,0.1,0,90,3,2000,stimuli\\,0.921,0.5507,2.471,,,,,,,,,,,,
,,,,,,,,,,dyl,1,2024-06-27_20h31.58.552,DCT_v1_online,2021.2.3,Win32,144.6131598,,,0.291,2.059,223,down,1,right,1,0,78,78,22,1,23,congruent,up,down,incongruent,Stim/Acon.png,down,0,0.1,180,2,100,congruent,right,right,congruent,Stim/Acon.png,right,0.1,0,-90,4,2000,stimuli\\,0.7728,0.9238,2.209,,,,,,,,,,,,
,,,,,,,,,,dyl,1,2024-06-27_20h31.58.552,DCT_v1_online,2021.2.3,Win32,144.6131598,,,0.284,2.066,224,up,1,right,1,0,79,79,46,1,47,congruent,down,up,incongruent,Stim/Acon.png,up,0,-0.1,0,3,100,incongruent,right,right,congruent,Stim/Aincon.png,right,0.1,0,-90,8,2000,stimuli\\,0.8155,1.2434,2.216,,,,,,,,,,,,
,,,,,,,,,,dyl,1,2024-06-27_20h31.58.552,DCT_v1_online,2021.2.3,Win32,144.6131598,,,0.465,1.885,225,down,1,left,1,0,80,80,88,1,89,incongruent,up,down,incongruent,Stim/Aincon.png,down,0,0.1,180,6,100,incongruent,left,left,congruent,Stim/Aincon.png,left,-0.1,0,90,5,2000,stimuli\\,0.8476,1.0634,2.035,,,,,,,,,,,,
,,,,,,,,,,dyl,1,2024-06-27_20h31.58.552,DCT_v1_online,2021.2.3,Win32,144.6131598,,,0.445,1.905,226,down,1,right,1,0,81,81,18,1,19,congruent,up,down,incongruent,Stim/Acon.png,down,0,0.1,180,2,100,congruent,left,right,incongruent,Stim/Acon.png,right,-0.1,0,-90,2,2000,stimuli\\,0.7496,0.8573,2.055,,,,,,,,,,,,
,,,,,,,,,,dyl,1,2024-06-27_20h31.58.552,DCT_v1_online,2021.2.3,Win32,144.6131598,,,0.449,2.801,227,up,1,left,1,0,82,82,73,1,74,incongruent,up,up,congruent,Stim/Aincon.png,up,0,0.1,0,5,1000,incongruent,left,left,congruent,Stim/Aincon.png,left,-0.1,0,90,5,2000,stimuli\\,0.618,0.6737,2.051,,,,,,,,,,,,
,,,,,,,,,,dyl,1,2024-06-27_20h31.58.552,DCT_v1_online,2021.2.3,Win32,144.6131598,,,0.464,2.786,228,up,1,left,0,0,83,83,107,1,108,incongruent,down,up,incongruent,Stim/Aincon.png,up,0,-0.1,0,7,1000,incongruent,left,right,incongruent,Stim/Aincon.png,right,-0.1,0,-90,6,2000,stimuli\\,0.8811,0.4131,2.036,,,,,,,,,,,,
,,,,,,,,,,dyl,1,2024-06-27_20h31.58.552,DCT_v1_online,2021.2.3,Win32,144.6131598,,,0.195,2.155,229,down,1,left,1,0,84,84,24,1,25,congruent,up,down,incongruent,Stim/Acon.png,down,0,0.1,180,2,100,incongruent,left,left,congruent,Stim/Aincon.png,left,-0.1,0,90,5,2000,stimuli\\,0.7898,1.0092,2.305,,,,,,,,,,,,
,,,,,,,,,,dyl,1,2024-06-27_20h31.58.552,DCT_v1_online,2021.2.3,Win32,144.6131598,,,0.03,2.32,230,up,1,right,1,0,85,85,34,1,35,congruent,down,up,incongruent,Stim/Acon.png,up,0,-0.1,0,3,100,congruent,left,right,incongruent,Stim/Acon.png,right,-0.1,0,-90,2,2000,stimuli\\,0.8202,0.9638,2.47,,,,,,,,,,,,
,,,,,,,,,,dyl,1,2024-06-27_20h31.58.552,DCT_v1_online,2021.2.3,Win32,144.6131598,,,0.277,2.973,231,up,1,right,1,0,86,86,103,1,104,incongruent,down,up,incongruent,Stim/Aincon.png,up,0,-0.1,0,7,1000,congruent,right,right,congruent,Stim/Acon.png,right,0.1,0,-90,4,2000,stimuli\\,0.7818,0.6318,2.223,,,,,,,,,,,,
,,,,,,,,,,dyl,1,2024-06-27_20h31.58.552,DCT_v1_online,2021.2.3,Win32,144.6131598,,,0.195,3.055,232,up,1,right,1,0,87,87,39,1,40,congruent,down,up,incongruent,Stim/Acon.png,up,0,-0.1,0,3,1000,congruent,right,right,congruent,Stim/Acon.png,right,0.1,0,-90,4,2000,stimuli\\,0.6474,0.6321,2.305,,,,,,,,,,,,
,,,,,,,,,,dyl,1,2024-06-27_20h31.58.552,DCT_v1_online,2021.2.3,Win32,144.6131598,,,0.397,1.953,233,down,1,left,1,0,88,88,48,1,49,congruent,down,down,congruent,Stim/Acon.png,down,0,-0.1,180,4,100,congruent,left,left,congruent,Stim/Acon.png,left,-0.1,0,90,1,2000,stimuli\\,0.9036,1.1954,2.103,,,,,,,,,,,,
,,,,,,,,,,dyl,1,2024-06-27_20h31.58.552,DCT_v1_online,2021.2.3,Win32,144.6131598,,,0.497,2.753,234,up,1,right,1,0,89,89,79,1,80,incongruent,up,up,congruent,Stim/Aincon.png,up,0,0.1,0,5,1000,incongruent,right,right,congruent,Stim/Aincon.png,right,0.1,0,-90,8,2000,stimuli\\,0.6892,0.7853,2.003,,,,,,,,,,,,
,,,,,,,,,,dyl,1,2024-06-27_20h31.58.552,DCT_v1_online,2021.2.3,Win32,144.6131598,,,0.424,2.826,235,down,1,left,1,0,90,90,113,1,114,incongruent,down,down,congruent,Stim/Aincon.png,down,0,-0.1,180,8,1000,congruent,left,left,congruent,Stim/Acon.png,left,-0.1,0,90,1,2000,stimuli\\,0.893,0.4824,2.076,,,,,,,,,,,,
,,,,,,,,,,dyl,1,2024-06-27_20h31.58.552,DCT_v1_online,2021.2.3,Win32,144.6131598,,,0.126,2.224,236,down,1,right,1,0,91,91,54,1,55,congruent,down,down,congruent,Stim/Acon.png,down,0,-0.1,180,4,100,congruent,right,right,congruent,Stim/Acon.png,right,0.1,0,-90,4,2000,stimuli\\,0.7822,0.907,2.374,,,,,,,,,,,,
,,,,,,,,,,dyl,1,2024-06-27_20h31.58.552,DCT_v1_online,2021.2.3,Win32,144.6131598,,,0.087,3.163,237,down,1,right,1,0,92,92,51,1,52,congruent,down,down,congruent,Stim/Acon.png,down,0,-0.1,180,4,1000,congruent,left,right,incongruent,Stim/Acon.png,right,-0.1,0,-90,2,2000,stimuli\\,0.7075,0.5698,2.413,,,,,,,,,,,,
,,,,,,,,,,dyl,1,2024-06-27_20h31.58.552,DCT_v1_online,2021.2.3,Win32,144.6131598,,,0.168,3.082,238,down,1,right,1,0,93,93,63,1,64,congruent,down,down,congruent,Stim/Acon.png,down,0,-0.1,180,4,1000,incongruent,right,right,congruent,Stim/Aincon.png,right,0.1,0,-90,8,2000,stimuli\\,0.6652,0.8382,2.332,,,,,,,,,,,,
,,,,,,,,,,dyl,1,2024-06-27_20h31.58.552,DCT_v1_online,2021.2.3,Win32,144.6131598,,,0.33,2.92,239,down,1,right,1,0,94,94,95,1,96,incongruent,up,down,incongruent,Stim/Aincon.png,down,0,0.1,180,6,1000,incongruent,right,right,congruent,Stim/Aincon.png,right,0.1,0,-90,8,2000,stimuli\\,0.8888,0.8766,2.17,,,,,,,,,,,,
,,,,,,,,,,dyl,1,2024-06-27_20h31.58.552,DCT_v1_online,2021.2.3,Win32,144.6131598,,,0.015,2.335,240,down,1,left,1,0,95,95,60,1,61,congruent,down,down,congruent,Stim/Acon.png,down,0,-0.1,180,4,100,incongruent,right,left,incongruent,Stim/Aincon.png,left,0.1,0,90,7,2000,stimuli\\,0.7989,1.014,2.485,,,,,,,,,,,,
,,,,,,,,,,dyl,1,2024-06-27_20h31.58.552,DCT_v1_online,2021.2.3,Win32,144.6131598,,,0.295,2.955,241,up,1,right,1,0,96,96,99,1,100,incongruent,down,up,incongruent,Stim/Aincon.png,up,0,-0.1,0,7,1000,congruent,left,right,incongruent,Stim/Acon.png,right,-0.1,0,-90,2,2000,stimuli\\,0.8128,0.6164,2.205,,,,,,,,,,,,
,,,,,,,,,,dyl,1,2024-06-27_20h31.58.552,DCT_v1_online,2021.2.3,Win32,144.6131598,,,0.429,2.821,242,up,1,right,1,0,97,97,15,1,16,congruent,up,up,congruent,Stim/Acon.png,up,0,0.1,0,1,1000,incongruent,right,right,congruent,Stim/Aincon.png,right,0.1,0,-90,8,2000,stimuli\\,0.614,0.8282,2.071,,,,,,,,,,,,
,,,,,,,,,,dyl,1,2024-06-27_20h31.58.552,DCT_v1_online,2021.2.3,Win32,144.6131598,,,0.352,2.898,243,down,1,left,1,0,98,98,85,1,86,incongruent,up,down,incongruent,Stim/Aincon.png,down,0,0.1,180,6,1000,congruent,right,left,incongruent,Stim/Acon.png,left,0.1,0,90,3,2000,stimuli\\,0.707,0.5218,2.148,,,,,,,,,,,,
,,,,,,,,,,dyl,1,2024-06-27_20h31.58.552,DCT_v1_online,2021.2.3,Win32,144.6131598,,,0.153,3.097,244,down,1,right,1,0,99,99,27,1,28,congruent,up,down,incongruent,Stim/Acon.png,down,0,0.1,180,2,1000,incongruent,left,right,incongruent,Stim/Aincon.png,right,-0.1,0,-90,6,2000,stimuli\\,0.6185,0.7409,2.347,,,,,,,,,,,,
,,,,,,,,,,dyl,1,2024-06-27_20h31.58.552,DCT_v1_online,2021.2.3,Win32,144.6131598,,,0.147,3.103,245,down,1,right,1,0,100,100,23,1,24,congruent,up,down,incongruent,Stim/Acon.png,down,0,0.1,180,2,1000,congruent,right,right,congruent,Stim/Acon.png,right,0.1,0,-90,4,2000,stimuli\\,0.6258,0.6739,2.353,,,,,,,,,,,,
,,,,,,,,,,dyl,1,2024-06-27_20h31.58.552,DCT_v1_online,2021.2.3,Win32,144.6131598,,,0.485,1.865,246,up,1,right,1,0,101,101,102,1,103,incongruent,down,up,incongruent,Stim/Aincon.png,up,0,-0.1,0,7,100,congruent,right,right,congruent,Stim/Acon.png,right,0.1,0,-90,4,2000,stimuli\\,0.8281,1.1076,2.015,,,,,,,,,,,,
,,,,,,,,,,dyl,1,2024-06-27_20h31.58.552,DCT_v1_online,2021.2.3,Win32,144.6131598,,,0.227,3.023,247,up,1,right,0,0,102,102,77,1,78,incongruent,up,up,congruent,Stim/Aincon.png,up,0,0.1,0,5,1000,incongruent,right,left,incongruent,Stim/Aincon.png,left,0.1,0,90,7,2000,stimuli\\,0.5835,0.4328,2.273,,,,,,,,,,,,
,,,,,,,,,,dyl,1,2024-06-27_20h31.58.552,DCT_v1_online,2021.2.3,Win32,144.6131598,,,0.485,2.765,248,down,1,left,1,0,103,103,57,1,58,congruent,down,down,congruent,Stim/Acon.png,down,0,-0.1,180,4,1000,incongruent,left,left,congruent,Stim/Aincon.png,left,-0.1,0,90,5,2000,stimuli\\,0.6908,0.7763,2.015,,,,,,,,,,,,
,,,,,,,,,,dyl,1,2024-06-27_20h31.58.552,DCT_v1_online,2021.2.3,Win32,144.6131598,,,0.484,2.766,249,up,1,right,1,0,104,104,111,1,112,incongruent,down,up,incongruent,Stim/Aincon.png,up,0,-0.1,0,7,1000,incongruent,right,right,congruent,Stim/Aincon.png,right,0.1,0,-90,8,2000,stimuli\\,0.7851,0.7717,2.016,,,,,,,,,,,,
,,,,,,,,,,dyl,1,2024-06-27_20h31.58.552,DCT_v1_online,2021.2.3,Win32,144.6131598,,,0.464,2.786,250,down,1,right,1,0,105,105,19,1,20,congruent,up,down,incongruent,Stim/Acon.png,down,0,0.1,180,2,1000,congruent,left,right,incongruent,Stim/Acon.png,right,-0.1,0,-90,2,2000,stimuli\\,0.6361,0.5852,2.036,,,,,,,,,,,,
,,,,,,,,,,dyl,1,2024-06-27_20h31.58.552,DCT_v1_online,2021.2.3,Win32,144.6131598,,,0.081,3.169,251,up,1,right,1,0,106,106,11,1,12,congruent,up,up,congruent,Stim/Acon.png,up,0,0.1,0,1,1000,incongruent,left,right,incongruent,Stim/Aincon.png,right,-0.1,0,-90,6,2000,stimuli\\,0.7877,0.6599,2.419,,,,,,,,,,,,
,,,,,,,,,,dyl,1,2024-06-27_20h31.58.552,DCT_v1_online,2021.2.3,Win32,144.6131598,,,0.45,1.9,252,down,1,right,1,0,107,107,30,1,31,congruent,up,down,incongruent,Stim/Acon.png,down,0,0.1,180,2,100,incongruent,right,right,congruent,Stim/Aincon.png,right,0.1,0,-90,8,2000,stimuli\\,0.7151,0.9223,2.05,,,,,,,,,,,,
,,,,,,,,,,dyl,1,2024-06-27_20h31.58.552,DCT_v1_online,2021.2.3,Win32,144.6131598,,,0.419,1.931,253,down,1,left,1,0,108,108,52,1,53,congruent,down,down,congruent,Stim/Acon.png,down,0,-0.1,180,4,100,congruent,right,left,incongruent,Stim/Acon.png,left,0.1,0,90,3,2000,stimuli\\,0.9401,1.1536,2.081,,,,,,,,,,,,
,,,,,,,,,,dyl,1,2024-06-27_20h31.58.552,DCT_v1_online,2021.2.3,Win32,144.6131598,,,0.474,1.876,254,up,1,left,1,0,109,109,76,1,77,incongruent,up,up,congruent,Stim/Aincon.png,up,0,0.1,0,5,100,incongruent,right,left,incongruent,Stim/Aincon.png,left,0.1,0,90,7,2000,stimuli\\,0.5984,0.8829,2.026,,,,,,,,,,,,
,,,,,,,,,,dyl,1,2024-06-27_20h31.58.552,DCT_v1_online,2021.2.3,Win32,144.6131598,,,0.2,3.05,255,down,1,right,1,0,110,110,83,1,84,incongruent,up,down,incongruent,Stim/Aincon.png,down,0,0.1,180,6,1000,congruent,left,right,incongruent,Stim/Acon.png,right,-0.1,0,-90,2,2000,stimuli\\,0.7109,0.5587,2.3,,,,,,,,,,,,
,,,,,,,,,,dyl,1,2024-06-27_20h31.58.552,DCT_v1_online,2021.2.3,Win32,144.6131598,,,0.38,2.87,256,down,1,left,1,0,111,111,89,1,90,incongruent,up,down,incongruent,Stim/Aincon.png,down,0,0.1,180,6,1000,incongruent,left,left,congruent,Stim/Aincon.png,left,-0.1,0,90,5,2000,stimuli\\,0.6669,0.6737,2.12,,,,,,,,,,,,
,,,,,,,,,,dyl,1,2024-06-27_20h31.58.552,DCT_v1_online,2021.2.3,Win32,144.6131598,,,0.323,2.927,257,up,1,right,1,0,112,112,3,1,4,congruent,up,up,congruent,Stim/Acon.png,up,0,0.1,0,1,1000,congruent,left,right,incongruent,Stim/Acon.png,right,-0.1,0,-90,2,2000,stimuli\\,0.5772,0.5866,2.177,,,,,,,,,,,,
,,,,,,,,,,dyl,1,2024-06-27_20h31.58.552,DCT_v1_online,2021.2.3,Win32,144.6131598,,,0.491,2.759,258,up,1,right,1,0,113,113,35,1,36,congruent,down,up,incongruent,Stim/Acon.png,up,0,-0.1,0,3,1000,congruent,left,right,incongruent,Stim/Acon.png,right,-0.1,0,-90,2,2000,stimuli\\,0.7099,0.5866,2.009,,,,,,,,,,,,
,,,,,,,,,,dyl,1,2024-06-27_20h31.58.552,DCT_v1_online,2021.2.3,Win32,144.6131598,,,0.281,2.069,259,up,1,right,1,0,114,114,14,1,15,congruent,up,up,congruent,Stim/Acon.png,up,0,0.1,0,1,100,incongruent,right,right,congruent,Stim/Aincon.png,right,0.1,0,-90,8,2000,stimuli\\,0.8113,1.0626,2.219,,,,,,,,,,,,
,,,,,,,,,,dyl,1,2024-06-27_20h31.58.552,DCT_v1_online,2021.2.3,Win32,144.6131598,,,0.11,2.24,260,down,1,left,1,0,115,115,28,1,29,congruent,up,down,incongruent,Stim/Acon.png,down,0,0.1,180,2,100,incongruent,right,left,incongruent,Stim/Aincon.png,left,0.1,0,90,7,2000,stimuli\\,0.794,1.0396,2.39,,,,,,,,,,,,
,,,,,,,,,,dyl,1,2024-06-27_20h31.58.552,DCT_v1_online,2021.2.3,Win32,144.6131598,,,0.291,2.959,261,down,1,left,1,0,116,116,125,1,126,incongruent,down,down,congruent,Stim/Aincon.png,down,0,-0.1,180,8,1000,incongruent,right,left,incongruent,Stim/Aincon.png,left,0.1,0,90,7,2000,stimuli\\,0.9886,0.7663,2.209,,,,,,,,,,,,
,,,,,,,,,,dyl,1,2024-06-27_20h31.58.552,DCT_v1_online,2021.2.3,Win32,144.6131598,,,0.028,2.322,262,down,1,right,1,0,117,117,118,1,119,incongruent,down,down,congruent,Stim/Aincon.png,down,0,-0.1,180,8,100,congruent,right,right,congruent,Stim/Acon.png,right,0.1,0,-90,4,2000,stimuli\\,0.8477,0.9762,2.472,,,,,,,,,,,,
,,,,,,,,,,dyl,1,2024-06-27_20h31.58.552,DCT_v1_online,2021.2.3,Win32,144.6131598,,,0.477,1.873,263,down,1,right,1,0,118,118,114,1,115,incongruent,down,down,congruent,Stim/Aincon.png,down,0,-0.1,180,8,100,congruent,left,right,incongruent,Stim/Acon.png,right,-0.1,0,-90,2,2000,stimuli\\,0.8912,1.0317,2.023,,,,,,,,,,,,
,,,,,,,,,,dyl,1,2024-06-27_20h31.58.552,DCT_v1_online,2021.2.3,Win32,144.6131598,,,0.494,2.756,264,down,1,left,1,0,119,119,117,1,118,incongruent,down,down,congruent,Stim/Aincon.png,down,0,-0.1,180,8,1000,congruent,right,left,incongruent,Stim/Acon.png,left,0.1,0,90,3,2000,stimuli\\,0.7572,0.5319,2.006,,,,,,,,,,,,
,,,,,,,,,,dyl,1,2024-06-27_20h31.58.552,DCT_v1_online,2021.2.3,Win32,144.6131598,,,0.26,2.09,265,up,1,right,1,0,120,120,70,1,71,incongruent,up,up,congruent,Stim/Aincon.png,up,0,0.1,0,5,100,congruent,right,right,congruent,Stim/Acon.png,right,0.1,0,-90,4,2000,stimuli\\,0.8614,1.118,2.24,,,,,,,,,,,,
,,,,,,,,,,dyl,1,2024-06-27_20h31.58.552,DCT_v1_online,2021.2.3,Win32,144.6131598,,,0.139,2.211,266,up,1,left,1,0,121,121,40,1,41,congruent,down,up,incongruent,Stim/Acon.png,up,0,-0.1,0,3,100,incongruent,left,left,congruent,Stim/Aincon.png,left,-0.1,0,90,5,2000,stimuli\\,0.7751,0.9637,2.361,,,,,,,,,,,,
,,,,,,,,,,dyl,1,2024-06-27_20h31.58.552,DCT_v1_online,2021.2.3,Win32,144.6131598,,,0.268,2.982,267,down,1,right,1,0,122,122,119,1,120,incongruent,down,down,congruent,Stim/Aincon.png,down,0,-0.1,180,8,1000,congruent,right,right,congruent,Stim/Acon.png,right,0.1,0,-90,4,2000,stimuli\\,0.9126,0.6306,2.232,,,,,,,,,,,,
,,,,,,,,,,dyl,1,2024-06-27_20h31.58.552,DCT_v1_online,2021.2.3,Win32,144.6131598,,,0.092,3.158,268,down,1,left,1,0,123,123,29,1,30,congruent,up,down,incongruent,Stim/Acon.png,down,0,0.1,180,2,1000,incongruent,right,left,incongruent,Stim/Aincon.png,left,0.1,0,90,7,2000,stimuli\\,0.713,0.691,2.408,,,,,,,,,,,,
,,,,,,,,,,dyl,1,2024-06-27_20h31.58.552,DCT_v1_online,2021.2.3,Win32,144.6131598,,,0.25,3,269,down,1,right,1,0,124,124,31,1,32,congruent,up,down,incongruent,Stim/Acon.png,down,0,0.1,180,2,1000,incongruent,right,right,congruent,Stim/Aincon.png,right,0.1,0,-90,8,2000,stimuli\\,0.664,0.8001,2.25,,,,,,,,,,,,
,,,,,,,,,,dyl,1,2024-06-27_20h31.58.552,DCT_v1_online,2021.2.3,Win32,144.6131598,,,0.383,2.867,270,down,1,left,1,0,125,125,49,1,50,congruent,down,down,congruent,Stim/Acon.png,down,0,-0.1,180,4,1000,congruent,left,left,congruent,Stim/Acon.png,left,-0.1,0,90,1,2000,stimuli\\,0.7761,0.4637,2.117,,,,,,,,,,,,
,,,,,,,,,,dyl,1,2024-06-27_20h31.58.552,DCT_v1_online,2021.2.3,Win32,144.6131598,,,0.149,2.201,271,down,1,right,1,0,126,126,122,1,123,incongruent,down,down,congruent,Stim/Aincon.png,down,0,-0.1,180,8,100,incongruent,left,right,incongruent,Stim/Aincon.png,right,-0.1,0,-90,6,2000,stimuli\\,0.7373,1.0422,2.351,,,,,,,,,,,,
,,,,,,,,,,dyl,1,2024-06-27_20h31.58.552,DCT_v1_online,2021.2.3,Win32,144.6131598,,,0.408,1.942,272,down,1,left,1,0,127,127,84,1,85,incongruent,up,down,incongruent,Stim/Aincon.png,down,0,0.1,180,6,100,congruent,right,left,incongruent,Stim/Acon.png,left,0.1,0,90,3,2000,stimuli\\,0.7772,0.9683,2.092,,,,,,,,,,,,
,,,,,,,,,,dyl,1,2024-06-27_20h31.58.552,DCT_v1_online,2021.2.3,Win32,144.6131598,,,,,,,,,,,,,,,,,,,,,,,,,,,,,,,,,,,,,,,,,,space,128.4038,0,2,2,2,1,Instructions/i6.png,test,conditions/block1.xlsx,1.2,0.5
,,,,,,,,,,dyl,1,2024-06-27_20h31.58.552,DCT_v1_online,2021.2.3,Win32,144.6131598,space,1.7585,0.474,2.776,273,down,1,left,1,0,0,0,89,1,90,incongruent,up,down,incongruent,Stim/Aincon.png,down,0,0.1,180,6,1000,incongruent,left,left,congruent,Stim/Aincon.png,left,-0.1,0,90,5,2000,stimuli\\,0.7567,0.6248,2.026,,,,,,,,,,,,
,,,,,,,,,,dyl,1,2024-06-27_20h31.58.552,DCT_v1_online,2021.2.3,Win32,144.6131598,,,0.297,2.953,274,up,1,right,1,0,1,1,3,1,4,congruent,up,up,congruent,Stim/Acon.png,up,0,0.1,0,1,1000,congruent,left,right,incongruent,Stim/Acon.png,right,-0.1,0,-90,2,2000,stimuli\\,0.6007,0.5248,2.203,,,,,,,,,,,,
,,,,,,,,,,dyl,1,2024-06-27_20h31.58.552,DCT_v1_online,2021.2.3,Win32,144.6131598,,,0.432,2.818,275,down,1,right,1,0,2,2,19,1,20,congruent,up,down,incongruent,Stim/Acon.png,down,0,0.1,180,2,1000,congruent,left,right,incongruent,Stim/Acon.png,right,-0.1,0,-90,2,2000,stimuli\\,0.6393,0.4985,2.068,,,,,,,,,,,,
,,,,,,,,,,dyl,1,2024-06-27_20h31.58.552,DCT_v1_online,2021.2.3,Win32,144.6131598,,,0.078,3.172,276,down,1,left,1,0,3,3,117,1,118,incongruent,down,down,congruent,Stim/Aincon.png,down,0,-0.1,180,8,1000,congruent,right,left,incongruent,Stim/Acon.png,left,0.1,0,90,3,2000,stimuli\\,0.9395,0.5083,2.422,,,,,,,,,,,,
,,,,,,,,,,dyl,1,2024-06-27_20h31.58.552,DCT_v1_online,2021.2.3,Win32,144.6131598,,,0.085,3.165,277,up,1,right,1,0,4,4,47,1,48,congruent,down,up,incongruent,Stim/Acon.png,up,0,-0.1,0,3,1000,incongruent,right,right,congruent,Stim/Aincon.png,right,0.1,0,-90,8,2000,stimuli\\,0.6049,0.7248,2.415,,,,,,,,,,,,
,,,,,,,,,,dyl,1,2024-06-27_20h31.58.552,DCT_v1_online,2021.2.3,Win32,144.6131598,,,0.449,2.801,278,down,1,right,1,0,5,5,119,1,120,incongruent,down,down,congruent,Stim/Aincon.png,down,0,-0.1,180,8,1000,congruent,right,right,congruent,Stim/Acon.png,right,0.1,0,-90,4,2000,stimuli\\,0.882,0.7179,2.051,,,,,,,,,,,,
,,,,,,,,,,dyl,1,2024-06-27_20h31.58.552,DCT_v1_online,2021.2.3,Win32,144.6131598,,,0.28,2.97,279,up,1,right,1,0,6,6,111,1,112,incongruent,down,up,incongruent,Stim/Aincon.png,up,0,-0.1,0,7,1000,incongruent,right,right,congruent,Stim/Aincon.png,right,0.1,0,-90,8,2000,stimuli\\,0.8506,0.6925,2.22,,,,,,,,,,,,
,,,,,,,,,,dyl,1,2024-06-27_20h31.58.552,DCT_v1_online,2021.2.3,Win32,144.6131598,,,0.181,2.169,280,up,1,left,1,0,7,7,4,1,5,congruent,up,up,congruent,Stim/Acon.png,up,0,0.1,0,1,100,congruent,right,left,incongruent,Stim/Acon.png,left,0.1,0,90,3,2000,stimuli\\,0.6139,0.7773,2.319,,,,,,,,,,,,
,,,,,,,,,,dyl,1,2024-06-27_20h31.58.552,DCT_v1_online,2021.2.3,Win32,144.6131598,,,0.023,3.227,281,up,1,left,1,0,8,8,101,1,102,incongruent,down,up,incongruent,Stim/Aincon.png,up,0,-0.1,0,7,1000,congruent,right,left,incongruent,Stim/Acon.png,left,0.1,0,90,3,2000,stimuli\\,0.7438,0.5512,2.477,,,,,,,,,,,,
,,,,,,,,,,dyl,1,2024-06-27_20h31.58.552,DCT_v1_online,2021.2.3,Win32,144.6131598,,,0.261,2.089,282,up,1,right,1,0,9,9,78,1,79,incongruent,up,up,congruent,Stim/Aincon.png,up,0,0.1,0,5,100,incongruent,right,right,congruent,Stim/Aincon.png,right,0.1,0,-90,8,2000,stimuli\\,0.6089,0.8802,2.239,,,,,,,,,,,,
,,,,,,,,,,dyl,1,2024-06-27_20h31.58.552,DCT_v1_online,2021.2.3,Win32,144.6131598,,,0.208,2.142,283,up,1,right,1,0,10,10,38,1,39,congruent,down,up,incongruent,Stim/Acon.png,up,0,-0.1,0,3,100,congruent,right,right,congruent,Stim/Acon.png,right,0.1,0,-90,4,2000,stimuli\\,0.7621,0.8978,2.292,,,,,,,,,,,,
,,,,,,,,,,dyl,1,2024-06-27_20h31.58.552,DCT_v1_online,2021.2.3,Win32,144.6131598,,,0.26,2.09,284,down,1,left,1,0,11,11,52,1,53,congruent,down,down,congruent,Stim/Acon.png,down,0,-0.1,180,4,100,congruent,right,left,incongruent,Stim/Acon.png,left,0.1,0,90,3,2000,stimuli\\,0.8376,1.0206,2.24,,,,,,,,,,,,
,,,,,,,,,,dyl,1,2024-06-27_20h31.58.552,DCT_v1_online,2021.2.3,Win32,144.6131598,,,0.424,1.926,285,up,1,right,1,0,12,12,14,1,15,congruent,up,up,congruent,Stim/Acon.png,up,0,0.1,0,1,100,incongruent,right,right,congruent,Stim/Aincon.png,right,0.1,0,-90,8,2000,stimuli\\,0.6855,0.8523,2.076,,,,,,,,,,,,
,,,,,,,,,,dyl,1,2024-06-27_20h31.58.552,DCT_v1_online,2021.2.3,Win32,144.6131598,,,0.221,2.129,286,up,1,right,1,0,13,13,46,1,47,congruent,down,up,incongruent,Stim/Acon.png,up,0,-0.1,0,3,100,incongruent,right,right,congruent,Stim/Aincon.png,right,0.1,0,-90,8,2000,stimuli\\,0.8573,1.3002,2.279,,,,,,,,,,,,
,,,,,,,,,,dyl,1,2024-06-27_20h31.58.552,DCT_v1_online,2021.2.3,Win32,144.6131598,,,0.417,2.833,287,up,1,left,1,0,14,14,77,1,78,incongruent,up,up,congruent,Stim/Aincon.png,up,0,0.1,0,5,1000,incongruent,right,left,incongruent,Stim/Aincon.png,left,0.1,0,90,7,2000,stimuli\\,0.6602,0.6323,2.083,,,,,,,,,,,,
,,,,,,,,,,dyl,1,2024-06-27_20h31.58.552,DCT_v1_online,2021.2.3,Win32,144.6131598,,,0.429,1.921,288,up,1,left,1,0,15,15,36,1,37,congruent,down,up,incongruent,Stim/Acon.png,up,0,-0.1,0,3,100,congruent,right,left,incongruent,Stim/Acon.png,left,0.1,0,90,3,2000,stimuli\\,0.709,0.8965,2.071,,,,,,,,,,,,
,,,,,,,,,,dyl,1,2024-06-27_20h31.58.552,DCT_v1_online,2021.2.3,Win32,144.6131598,,,0.048,2.302,289,up,1,right,1,0,16,16,42,1,43,congruent,down,up,incongruent,Stim/Acon.png,up,0,-0.1,0,3,100,incongruent,left,right,incongruent,Stim/Aincon.png,right,-0.1,0,-90,6,2000,stimuli\\,0.7895,0.9401,2.452,,,,,,,,,,,,
,,,,,,,,,,dyl,1,2024-06-27_20h31.58.552,DCT_v1_online,2021.2.3,Win32,144.6131598,,,0.262,2.088,290,up,1,right,1,0,17,17,2,1,3,congruent,up,up,congruent,Stim/Acon.png,up,0,0.1,0,1,100,congruent,left,right,incongruent,Stim/Acon.png,right,-0.1,0,-90,2,2000,stimuli\\,0.698,0.8567,2.238,,,,,,,,,,,,
,,,,,,,,,,dyl,1,2024-06-27_20h31.58.552,DCT_v1_online,2021.2.3,Win32,144.6131598,,,0.372,1.978,291,up,1,right,1,0,18,18,6,1,7,congruent,up,up,congruent,Stim/Acon.png,up,0,0.1,0,1,100,congruent,right,right,congruent,Stim/Acon.png,right,0.1,0,-90,4,2000,stimuli\\,0.6563,0.8203,2.128,,,,,,,,,,,,
,,,,,,,,,,dyl,1,2024-06-27_20h31.58.552,DCT_v1_online,2021.2.3,Win32,144.6131598,,,0.226,3.024,292,up,1,left,1,0,19,19,5,1,6,congruent,up,up,congruent,Stim/Acon.png,up,0,0.1,0,1,1000,congruent,right,left,incongruent,Stim/Acon.png,left,0.1,0,90,3,2000,stimuli\\,0.6132,0.5972,2.274,,,,,,,,,,,,
,,,,,,,,,,dyl,1,2024-06-27_20h31.58.552,DCT_v1_online,2021.2.3,Win32,144.6131598,,,0.105,3.145,293,down,1,right,1,0,20,20,31,1,32,congruent,up,down,incongruent,Stim/Acon.png,down,0,0.1,180,2,1000,incongruent,right,right,congruent,Stim/Aincon.png,right,0.1,0,-90,8,2000,stimuli\\,0.6888,0.6968,2.395,,,,,,,,,,,,
,,,,,,,,,,dyl,1,2024-06-27_20h31.58.552,DCT_v1_online,2021.2.3,Win32,144.6131598,,,0.333,2.017,294,down,1,right,1,0,21,21,122,1,123,incongruent,down,down,congruent,Stim/Aincon.png,down,0,-0.1,180,8,100,incongruent,left,right,incongruent,Stim/Aincon.png,right,-0.1,0,-90,6,2000,stimuli\\,0.903,1.1148,2.167,,,,,,,,,,,,
,,,,,,,,,,dyl,1,2024-06-27_20h31.58.552,DCT_v1_online,2021.2.3,Win32,144.6131598,,,0.03,2.32,295,up,1,left,1,0,22,22,68,1,69,incongruent,up,up,congruent,Stim/Aincon.png,up,0,0.1,0,5,100,congruent,right,left,incongruent,Stim/Acon.png,left,0.1,0,90,3,2000,stimuli\\,0.6605,0.8849,2.47,,,,,,,,,,,,
,,,,,,,,,,dyl,1,2024-06-27_20h31.58.552,DCT_v1_online,2021.2.3,Win32,144.6131598,,,0.157,2.193,296,up,1,right,1,0,23,23,74,1,75,incongruent,up,up,congruent,Stim/Aincon.png,up,0,0.1,0,5,100,incongruent,left,right,incongruent,Stim/Aincon.png,right,-0.1,0,-90,6,2000,stimuli\\,0.7084,0.8866,2.343,,,,,,,,,,,,
,,,,,,,,,,dyl,1,2024-06-27_20h31.58.552,DCT_v1_online,2021.2.3,Win32,144.6131598,,,0.342,2.008,297,down,1,left,1,0,24,24,16,1,17,congruent,up,down,incongruent,Stim/Acon.png,down,0,0.1,180,2,100,congruent,left,left,congruent,Stim/Acon.png,left,-0.1,0,90,1,2000,stimuli\\,0.6781,0.8271,2.158,,,,,,,,,,,,
,,,,,,,,,,dyl,1,2024-06-27_20h31.58.552,DCT_v1_online,2021.2.3,Win32,144.6131598,,,0.016,2.334,298,up,1,left,1,0,25,25,32,1,33,congruent,down,up,incongruent,Stim/Acon.png,up,0,-0.1,0,3,100,congruent,left,left,congruent,Stim/Acon.png,left,-0.1,0,90,1,2000,stimuli\\,0.7084,0.8663,2.484,,,,,,,,,,,,
,,,,,,,,,,dyl,1,2024-06-27_20h31.58.552,DCT_v1_online,2021.2.3,Win32,144.6131598,,,0.245,3.005,299,up,1,left,1,0,26,26,33,1,34,congruent,down,up,incongruent,Stim/Acon.png,up,0,-0.1,0,3,1000,congruent,left,left,congruent,Stim/Acon.png,left,-0.1,0,90,1,2000,stimuli\\,0.6575,0.4977,2.255,,,,,,,,,,,,
,,,,,,,,,,dyl,1,2024-06-27_20h31.58.552,DCT_v1_online,2021.2.3,Win32,144.6131598,,,0.028,3.222,300,up,1,left,1,0,27,27,97,1,98,incongruent,down,up,incongruent,Stim/Aincon.png,up,0,-0.1,0,7,1000,congruent,left,left,congruent,Stim/Acon.png,left,-0.1,0,90,1,2000,stimuli\\,0.7784,0.4602,2.472,,,,,,,,,,,,
,,,,,,,,,,dyl,1,2024-06-27_20h31.58.552,DCT_v1_online,2021.2.3,Win32,144.6131598,,,0.131,3.119,301,up,1,right,1,0,28,28,67,1,68,incongruent,up,up,congruent,Stim/Aincon.png,up,0,0.1,0,5,1000,congruent,left,right,incongruent,Stim/Acon.png,right,-0.1,0,-90,2,2000,stimuli\\,0.6051,0.5626,2.369,,,,,,,,,,,,
,,,,,,,,,,dyl,1,2024-06-27_20h31.58.552,DCT_v1_online,2021.2.3,Win32,144.6131598,,,0.092,3.158,302,up,1,left,1,0,29,29,105,1,106,incongruent,down,up,incongruent,Stim/Aincon.png,up,0,-0.1,0,7,1000,incongruent,left,left,congruent,Stim/Aincon.png,left,-0.1,0,90,5,2000,stimuli\\,0.7527,0.5108,2.408,,,,,,,,,,,,
,,,,,,,,,,dyl,1,2024-06-27_20h31.58.552,DCT_v1_online,2021.2.3,Win32,144.6131598,,,0.431,2.819,303,up,1,left,1,0,30,30,9,1,10,congruent,up,up,congruent,Stim/Acon.png,up,0,0.1,0,1,1000,incongruent,left,left,congruent,Stim/Aincon.png,left,-0.1,0,90,5,2000,stimuli\\,0.561,0.6257,2.069,,,,,,,,,,,,
,,,,,,,,,,dyl,1,2024-06-27_20h31.58.552,DCT_v1_online,2021.2.3,Win32,144.6131598,,,0.164,2.186,304,down,0,left,1,0,31,31,96,1,97,incongruent,down,up,incongruent,Stim/Aincon.png,up,0,-0.1,0,7,100,congruent,left,left,congruent,Stim/Acon.png,left,-0.1,0,90,1,2000,stimuli\\,0.8681,1.0328,2.336,,,,,,,,,,,,
,,,,,,,,,,dyl,1,2024-06-27_20h31.58.552,DCT_v1_online,2021.2.3,Win32,144.6131598,,,0.131,3.119,305,up,1,left,1,0,32,32,37,1,38,congruent,down,up,incongruent,Stim/Acon.png,up,0,-0.1,0,3,1000,congruent,right,left,incongruent,Stim/Acon.png,left,0.1,0,90,3,2000,stimuli\\,0.6494,0.5511,2.369,,,,,,,,,,,,
,,,,,,,,,,dyl,1,2024-06-27_20h31.58.552,DCT_v1_online,2021.2.3,Win32,144.6131598,,,0.175,2.175,306,up,1,right,1,0,33,33,98,1,99,incongruent,down,up,incongruent,Stim/Aincon.png,up,0,-0.1,0,7,100,congruent,left,right,incongruent,Stim/Acon.png,right,-0.1,0,-90,2,2000,stimuli\\,0.9052,1.0921,2.325,,,,,,,,,,,,
,,,,,,,,,,dyl,1,2024-06-27_20h31.58.552,DCT_v1_online,2021.2.3,Win32,144.6131598,,,0.024,2.326,307,down,1,right,1,0,34,34,26,1,27,congruent,up,down,incongruent,Stim/Acon.png,down,0,0.1,180,2,100,incongruent,left,right,incongruent,Stim/Aincon.png,right,-0.1,0,-90,6,2000,stimuli\\,0.7858,0.9782,2.476,,,,,,,,,,,,
,,,,,,,,,,dyl,1,2024-06-27_20h31.58.552,DCT_v1_online,2021.2.3,Win32,144.6131598,,,0.231,2.119,308,down,1,right,1,0,35,35,118,1,119,incongruent,down,down,congruent,Stim/Aincon.png,down,0,-0.1,180,8,100,congruent,right,right,congruent,Stim/Acon.png,right,0.1,0,-90,4,2000,stimuli\\,0.8908,1.0233,2.269,,,,,,,,,,,,
,,,,,,,,,,dyl,1,2024-06-27_20h31.58.552,DCT_v1_online,2021.2.3,Win32,144.6131598,,,0.071,2.279,309,up,1,left,1,0,36,36,72,1,73,incongruent,up,up,congruent,Stim/Aincon.png,up,0,0.1,0,5,100,incongruent,left,left,congruent,Stim/Aincon.png,left,-0.1,0,90,5,2000,stimuli\\,0.7262,0.9405,2.429,,,,,,,,,,,,
,,,,,,,,,,dyl,1,2024-06-27_20h31.58.552,DCT_v1_online,2021.2.3,Win32,144.6131598,,,0.036,2.314,310,down,1,right,1,0,37,37,82,1,83,incongruent,up,down,incongruent,Stim/Aincon.png,down,0,0.1,180,6,100,congruent,left,right,incongruent,Stim/Acon.png,right,-0.1,0,-90,2,2000,stimuli\\,0.7731,0.9451,2.464,,,,,,,,,,,,
,,,,,,,,,,dyl,1,2024-06-27_20h31.58.552,DCT_v1_online,2021.2.3,Win32,144.6131598,,,0.412,2.838,311,down,1,left,1,0,38,38,29,1,30,congruent,up,down,incongruent,Stim/Acon.png,down,0,0.1,180,2,1000,incongruent,right,left,incongruent,Stim/Aincon.png,left,0.1,0,90,7,2000,stimuli\\,0.7828,0.776,2.088,,,,,,,,,,,,
,,,,,,,,,,dyl,1,2024-06-27_20h31.58.552,DCT_v1_online,2021.2.3,Win32,144.6131598,,,0.284,2.066,312,up,1,left,1,0,39,39,8,1,9,congruent,up,up,congruent,Stim/Acon.png,up,0,0.1,0,1,100,incongruent,left,left,congruent,Stim/Aincon.png,left,-0.1,0,90,5,2000,stimuli\\,0.7128,0.9979,2.216,,,,,,,,,,,,
,,,,,,,,,,dyl,1,2024-06-27_20h31.58.552,DCT_v1_online,2021.2.3,Win32,144.6131598,,,0.161,3.089,313,down,1,right,1,0,40,40,83,1,84,incongruent,up,down,incongruent,Stim/Aincon.png,down,0,0.1,180,6,1000,congruent,left,right,incongruent,Stim/Acon.png,right,-0.1,0,-90,2,2000,stimuli\\,0.6104,0.5282,2.339,,,,,,,,,,,,
,,,,,,,,,,dyl,1,2024-06-27_20h31.58.552,DCT_v1_online,2021.2.3,Win32,144.6131598,,,0.298,2.052,314,up,1,left,1,0,41,41,108,1,109,incongruent,down,up,incongruent,Stim/Aincon.png,up,0,-0.1,0,7,100,incongruent,right,left,incongruent,Stim/Aincon.png,left,0.1,0,90,7,2000,stimuli\\,0.8775,1.0491,2.202,,,,,,,,,,,,
,,,,,,,,,,dyl,1,2024-06-27_20h31.58.552,DCT_v1_online,2021.2.3,Win32,144.6131598,,,0.238,2.112,315,up,1,right,1,0,42,42,34,1,35,congruent,down,up,incongruent,Stim/Acon.png,up,0,-0.1,0,3,100,congruent,left,right,incongruent,Stim/Acon.png,right,-0.1,0,-90,2,2000,stimuli\\,0.765,0.9296,2.262,,,,,,,,,,,,
,,,,,,,,,,dyl,1,2024-06-27_20h31.58.552,DCT_v1_online,2021.2.3,Win32,144.6131598,,,0.467,1.883,316,down,1,left,1,0,43,43,28,1,29,congruent,up,down,incongruent,Stim/Acon.png,down,0,0.1,180,2,100,incongruent,right,left,incongruent,Stim/Aincon.png,left,0.1,0,90,7,2000,stimuli\\,0.6863,0.9333,2.033,,,,,,,,,,,,
,,,,,,,,,,dyl,1,2024-06-27_20h31.58.552,DCT_v1_online,2021.2.3,Win32,144.6131598,,,0.145,3.105,317,up,1,right,1,0,44,44,15,1,16,congruent,up,up,congruent,Stim/Acon.png,up,0,0.1,0,1,1000,incongruent,right,right,congruent,Stim/Aincon.png,right,0.1,0,-90,8,2000,stimuli\\,0.6076,0.8014,2.355,,,,,,,,,,,,
,,,,,,,,,,dyl,1,2024-06-27_20h31.58.552,DCT_v1_online,2021.2.3,Win32,144.6131598,,,0.24,2.11,318,down,1,left,1,0,45,45,92,1,93,incongruent,up,down,incongruent,Stim/Aincon.png,down,0,0.1,180,6,100,incongruent,right,left,incongruent,Stim/Aincon.png,left,0.1,0,90,7,2000,stimuli\\,0.6751,0.9058,2.26,,,,,,,,,,,,
,,,,,,,,,,dyl,1,2024-06-27_20h31.58.552,DCT_v1_online,2021.2.3,Win32,144.6131598,,,0.018,2.332,319,up,1,left,1,0,46,46,44,1,45,congruent,down,up,incongruent,Stim/Acon.png,up,0,-0.1,0,3,100,incongruent,right,left,incongruent,Stim/Aincon.png,left,0.1,0,90,7,2000,stimuli\\,0.8816,1.0444,2.482,,,,,,,,,,,,
,,,,,,,,,,dyl,1,2024-06-27_20h31.58.552,DCT_v1_online,2021.2.3,Win32,144.6131598,,,0.186,3.064,320,up,1,left,1,0,47,47,69,1,70,incongruent,up,up,congruent,Stim/Aincon.png,up,0,0.1,0,5,1000,congruent,right,left,incongruent,Stim/Acon.png,left,0.1,0,90,3,2000,stimuli\\,0.5534,0.5216,2.314,,,,,,,,,,,,
