﻿key_resp.keys,key_resp.rt,trials_2.thisRepN,trials_2.thisTrialN,trials_2.thisN,trials_2.thisIndex,trials_2.ran,stim_ins,size_insrx,size_insry,name,session,date,expName,psychopyVersion,OS,frameRate,key_resp_2.keys,key_resp_2.rt,注视点1,试次呈现时间+注视点2,count,key_resp_T1.keys,key_resp_T1.corr,key_resp_T1.rt,key_resp_T2.keys,key_resp_T2.corr,key_resp_T2.rt,注视点2,trials.thisRepN,trials.thisTrialN,trials.thisN,trials.thisIndex,trials.ran,TrialNumber,FlankerConditionT1,LocationT1,DirectionT1,LocationConditionT1,ImageT1,CorrectAnswerT1,PositionT1x,PositionT1y,anglefilpT1,ConditionT1,IntervalT1toT2,FlankerConditionT2,LocationT2,DirectionT2,LocationConditionT2,ImageT2,CorrectAnswerT2,PositionT2x,PositionT2y,anglefilpT2,ConditionT2,DurationFixation,TargetFilePath,key_resp_3.keys,key_resp_3.rt,trials_3.thisRepN,trials_3.thisTrialN,trials_3.thisN,trials_3.thisIndex,trials_3.ran,instr_p_t,block_type,cond,size_p_tx,size_p_ty
space,4.2839,0,0,0,0,1,Instructions/i1.png,1,0.4,wmj,1,2024-06-28_19h00.57.935,DCT_v1_online,2021.2.3,Win32,59.57345407,,,,,,,,,,,,,,,,,,,,,,,,,,,,,,,,,,,,,,,,,,,,,,,,,,,,,
space,2.3496,0,1,1,1,1,Instructions/i2.png,1.4,0.85,wmj,1,2024-06-28_19h00.57.935,DCT_v1_online,2021.2.3,Win32,59.57345407,,,,,,,,,,,,,,,,,,,,,,,,,,,,,,,,,,,,,,,,,,,,,,,,,,,,,
space,1.3225,0,2,2,2,1,Instructions/i3.png,1.2,0.85,wmj,1,2024-06-28_19h00.57.935,DCT_v1_online,2021.2.3,Win32,59.57345407,,,,,,,,,,,,,,,,,,,,,,,,,,,,,,,,,,,,,,,,,,,,,,,,,,,,,
,,,,,,,,,,wmj,1,2024-06-28_19h00.57.935,DCT_v1_online,2021.2.3,Win32,59.57345407,space,3.1043,0.384,2.866,1,up,1,0.8955,right,1,0.6434,2.116,0,0,0,1,1,2,congruent,up,up,congruent,Stim/Acon.png,up,0,0.1,0,1,1000,congruent,left,right,congruent,Stim/Acon.png,right,-0.1,0,-90,1,2000,stimuli\\,,,,,,,,,,,,
,,,,,,,,,,wmj,1,2024-06-28_19h00.57.935,DCT_v1_online,2021.2.3,Win32,59.57345407,,,0.257,2.093,2,down,1,1.116,right,1,1.1934,2.243,0,1,1,10,1,81,incongruent,up,down,incongruent,Stim/Aincon.png,down,0,0.1,180,6,100,congruent,left,right,congruent,Stim/Acon.png,right,-0.1,0,-90,1,2000,stimuli\\,,,,,,,,,,,,
,,,,,,,,,,wmj,1,2024-06-28_19h00.57.935,DCT_v1_online,2021.2.3,Win32,59.57345407,,,0.457,1.893,3,down,1,0.8034,left,1,1.2344,2.043,0,2,2,6,1,49,congruent,down,down,congruent,Stim/Acon.png,down,0,-0.1,180,4,100,incongruent,left,left,congruent,Stim/Aincon.png,left,-0.1,0,90,1,2000,stimuli\\,,,,,,,,,,,,
,,,,,,,,,,wmj,1,2024-06-28_19h00.57.935,DCT_v1_online,2021.2.3,Win32,59.57345407,,,0.263,2.987,4,down,0,0.7189,left,1,0.7292,2.237,0,3,3,13,1,112,incongruent,down,up,incongruent,Stim/Aincon.png,up,0,-0.1,0,7,1000,incongruent,right,left,congruent,Stim/Aincon.png,left,0.1,0,90,8,2000,stimuli\\,,,,,,,,,,,,
,,,,,,,,,,wmj,1,2024-06-28_19h00.57.935,DCT_v1_online,2021.2.3,Win32,59.57345407,,,0.398,1.952,5,up,1,1.2127,right,0,1.316,2.102,0,4,4,4,1,33,congruent,down,up,incongruent,Stim/Acon.png,up,0,-0.1,0,3,100,incongruent,left,left,congruent,Stim/Aincon.png,left,-0.1,0,90,1,2000,stimuli\\,,,,,,,,,,,,
,,,,,,,,,,wmj,1,2024-06-28_19h00.57.935,DCT_v1_online,2021.2.3,Win32,59.57345407,,,0.207,2.143,6,down,1,1.0509,right,1,1.1521,2.293,0,5,5,14,1,113,incongruent,down,down,congruent,Stim/Aincon.png,down,0,-0.1,180,8,100,incongruent,left,right,congruent,Stim/Aincon.png,right,-0.1,0,-90,1,2000,stimuli\\,,,,,,,,,,,,
,,,,,,,,,,wmj,1,2024-06-28_19h00.57.935,DCT_v1_online,2021.2.3,Win32,59.57345407,,,0.392,1.958,7,up,1,0.949,right,1,0.9914,2.108,0,6,6,8,1,65,incongruent,up,up,congruent,Stim/Aincon.png,up,0,0.1,0,5,100,congruent,left,right,congruent,Stim/Acon.png,right,-0.1,0,-90,1,2000,stimuli\\,,,,,,,,,,,,
,,,,,,,,,,wmj,1,2024-06-28_19h00.57.935,DCT_v1_online,2021.2.3,Win32,59.57345407,,,0.015,2.335,8,up,1,1.1152,left,1,1.2001,2.485,0,7,7,12,1,111,incongruent,down,up,incongruent,Stim/Aincon.png,up,0,-0.1,0,7,100,incongruent,right,left,congruent,Stim/Aincon.png,left,0.1,0,90,8,2000,stimuli\\,,,,,,,,,,,,
,,,,,,,,,,wmj,1,2024-06-28_19h00.57.935,DCT_v1_online,2021.2.3,Win32,59.57345407,,,0.272,2.978,9,down,1,0.7229,right,0,0.4781,2.228,0,8,8,7,1,50,congruent,down,down,congruent,Stim/Acon.png,down,0,-0.1,180,4,1000,incongruent,left,left,congruent,Stim/Aincon.png,left,-0.1,0,90,1,2000,stimuli\\,,,,,,,,,,,,
,,,,,,,,,,wmj,1,2024-06-28_19h00.57.935,DCT_v1_online,2021.2.3,Win32,59.57345407,,,0.18,3.07,10,down,1,0.5549,right,1,0.5147,2.32,0,9,9,11,1,82,incongruent,up,down,incongruent,Stim/Aincon.png,down,0,0.1,180,6,1000,congruent,left,right,congruent,Stim/Acon.png,right,-0.1,0,-90,1,2000,stimuli\\,,,,,,,,,,,,
,,,,,,,,,,wmj,1,2024-06-28_19h00.57.935,DCT_v1_online,2021.2.3,Win32,59.57345407,,,0.322,2.028,11,up,1,0.5582,right,1,0.6883,2.178,0,10,10,0,1,1,congruent,up,up,congruent,Stim/Acon.png,up,0,0.1,0,1,100,congruent,left,right,congruent,Stim/Acon.png,right,-0.1,0,-90,1,2000,stimuli\\,,,,,,,,,,,,
,,,,,,,,,,wmj,1,2024-06-28_19h00.57.935,DCT_v1_online,2021.2.3,Win32,59.57345407,,,0.272,2.978,12,up,1,0.7241,right,1,0.4383,2.228,0,11,11,9,1,66,incongruent,up,up,congruent,Stim/Aincon.png,up,0,0.1,0,5,1000,congruent,left,right,congruent,Stim/Acon.png,right,-0.1,0,-90,1,2000,stimuli\\,,,,,,,,,,,,
,,,,,,,,,,wmj,1,2024-06-28_19h00.57.935,DCT_v1_online,2021.2.3,Win32,59.57345407,,,0.097,3.153,13,down,1,0.8038,right,1,0.6712,2.403,0,12,12,15,1,114,incongruent,down,down,congruent,Stim/Aincon.png,down,0,-0.1,180,8,1000,incongruent,left,right,congruent,Stim/Aincon.png,right,-0.1,0,-90,1,2000,stimuli\\,,,,,,,,,,,,
,,,,,,,,,,wmj,1,2024-06-28_19h00.57.935,DCT_v1_online,2021.2.3,Win32,59.57345407,,,0.496,1.854,14,down,1,0.5009,right,1,0.6751,2.004,0,13,13,2,1,17,congruent,up,down,incongruent,Stim/Acon.png,down,0,0.1,180,2,100,congruent,left,right,congruent,Stim/Acon.png,right,-0.1,0,-90,1,2000,stimuli\\,,,,,,,,,,,,
,,,,,,,,,,wmj,1,2024-06-28_19h00.57.935,DCT_v1_online,2021.2.3,Win32,59.57345407,,,0.305,2.945,15,down,1,0.5878,right,1,0.4484,2.195,0,14,14,3,1,18,congruent,up,down,incongruent,Stim/Acon.png,down,0,0.1,180,2,1000,congruent,left,right,congruent,Stim/Acon.png,right,-0.1,0,-90,1,2000,stimuli\\,,,,,,,,,,,,
,,,,,,,,,,wmj,1,2024-06-28_19h00.57.935,DCT_v1_online,2021.2.3,Win32,59.57345407,,,0.454,2.796,16,up,1,0.6033,right,0,0.3842,2.046,0,15,15,5,1,34,congruent,down,up,incongruent,Stim/Acon.png,up,0,-0.1,0,3,1000,incongruent,left,left,congruent,Stim/Aincon.png,left,-0.1,0,90,1,2000,stimuli\\,,,,,,,,,,,,
,,,,,,,,,,wmj,1,2024-06-28_19h00.57.935,DCT_v1_online,2021.2.3,Win32,59.57345407,,,,,,,,,,,,,,,,,,,,,,,,,,,,,,,,,,,,,,,,,,space,3.1975,0,0,0,0,1,Instructions/i4.png,pra,conditions/blockpra.xlsx,0.8,0.45
,,,,,,,,,,wmj,1,2024-06-28_19h00.57.935,DCT_v1_online,2021.2.3,Win32,59.57345407,space,7.5931,0.048,2.302,17,up,1,1.019,left,1,1.0838,2.452,0,0,0,32,1,33,congruent,down,up,incongruent,Stim/Acon.png,up,0,-0.1,0,3,100,congruent,left,left,congruent,Stim/Acon.png,left,-0.1,0,90,1,2000,stimuli\\,,,,,,,,,,,,
,,,,,,,,,,wmj,1,2024-06-28_19h00.57.935,DCT_v1_online,2021.2.3,Win32,59.57345407,,,0.105,3.145,18,up,1,0.6996,right,0,0.5557,2.395,0,1,1,77,1,78,incongruent,up,up,congruent,Stim/Aincon.png,up,0,0.1,0,5,1000,incongruent,right,left,incongruent,Stim/Aincon.png,left,0.1,0,90,7,2000,stimuli\\,,,,,,,,,,,,
,,,,,,,,,,wmj,1,2024-06-28_19h00.57.935,DCT_v1_online,2021.2.3,Win32,59.57345407,,,0.253,2.097,19,down,1,0.8767,left,1,0.9912,2.247,0,2,2,60,1,61,congruent,down,down,congruent,Stim/Acon.png,down,0,-0.1,180,4,100,incongruent,right,left,incongruent,Stim/Aincon.png,left,0.1,0,90,7,2000,stimuli\\,,,,,,,,,,,,
,,,,,,,,,,wmj,1,2024-06-28_19h00.57.935,DCT_v1_online,2021.2.3,Win32,59.57345407,,,0.265,2.985,20,down,1,0.6349,left,1,0.6175,2.235,0,3,3,121,1,122,incongruent,down,down,congruent,Stim/Aincon.png,down,0,-0.1,180,8,1000,incongruent,left,left,congruent,Stim/Aincon.png,left,-0.1,0,90,5,2000,stimuli\\,,,,,,,,,,,,
,,,,,,,,,,wmj,1,2024-06-28_19h00.57.935,DCT_v1_online,2021.2.3,Win32,59.57345407,,,0.062,3.188,21,down,1,0.5906,left,1,0.6614,2.438,0,4,4,125,1,126,incongruent,down,down,congruent,Stim/Aincon.png,down,0,-0.1,180,8,1000,incongruent,right,left,incongruent,Stim/Aincon.png,left,0.1,0,90,7,2000,stimuli\\,,,,,,,,,,,,
,,,,,,,,,,wmj,1,2024-06-28_19h00.57.935,DCT_v1_online,2021.2.3,Win32,59.57345407,,,0.113,2.237,22,up,1,0.6688,right,1,0.7735,2.387,0,5,5,6,1,7,congruent,up,up,congruent,Stim/Acon.png,up,0,0.1,0,1,100,congruent,right,right,congruent,Stim/Acon.png,right,0.1,0,-90,4,2000,stimuli\\,,,,,,,,,,,,
,,,,,,,,,,wmj,1,2024-06-28_19h00.57.935,DCT_v1_online,2021.2.3,Win32,59.57345407,,,0.383,1.967,23,down,1,0.8023,right,1,0.9842,2.117,0,6,6,58,1,59,congruent,down,down,congruent,Stim/Acon.png,down,0,-0.1,180,4,100,incongruent,left,right,incongruent,Stim/Aincon.png,right,-0.1,0,-90,6,2000,stimuli\\,,,,,,,,,,,,
,,,,,,,,,,wmj,1,2024-06-28_19h00.57.935,DCT_v1_online,2021.2.3,Win32,59.57345407,,,0.461,2.789,24,down,1,0.7015,left,1,0.6081,2.039,0,7,7,113,1,114,incongruent,down,down,congruent,Stim/Aincon.png,down,0,-0.1,180,8,1000,congruent,left,left,congruent,Stim/Acon.png,left,-0.1,0,90,1,2000,stimuli\\,,,,,,,,,,,,
,,,,,,,,,,wmj,1,2024-06-28_19h00.57.935,DCT_v1_online,2021.2.3,Win32,59.57345407,,,0.095,2.255,25,down,1,0.6737,left,1,0.9508,2.405,0,8,8,112,1,113,incongruent,down,down,congruent,Stim/Aincon.png,down,0,-0.1,180,8,100,congruent,left,left,congruent,Stim/Acon.png,left,-0.1,0,90,1,2000,stimuli\\,,,,,,,,,,,,
,,,,,,,,,,wmj,1,2024-06-28_19h00.57.935,DCT_v1_online,2021.2.3,Win32,59.57345407,,,0.395,1.955,26,down,1,0.6892,left,1,0.8016,2.105,0,9,9,16,1,17,congruent,up,down,incongruent,Stim/Acon.png,down,0,0.1,180,2,100,congruent,left,left,congruent,Stim/Acon.png,left,-0.1,0,90,1,2000,stimuli\\,,,,,,,,,,,,
,,,,,,,,,,wmj,1,2024-06-28_19h00.57.935,DCT_v1_online,2021.2.3,Win32,59.57345407,,,0.137,3.113,27,up,1,0.5755,left,1,0.4225,2.363,0,10,10,1,1,2,congruent,up,up,congruent,Stim/Acon.png,up,0,0.1,0,1,1000,congruent,left,left,congruent,Stim/Acon.png,left,-0.1,0,90,1,2000,stimuli\\,,,,,,,,,,,,
,,,,,,,,,,wmj,1,2024-06-28_19h00.57.935,DCT_v1_online,2021.2.3,Win32,59.57345407,,,0.01,2.34,28,up,1,1.0137,left,1,1.068,2.49,0,11,11,100,1,101,incongruent,down,up,incongruent,Stim/Aincon.png,up,0,-0.1,0,7,100,congruent,right,left,incongruent,Stim/Acon.png,left,0.1,0,90,3,2000,stimuli\\,,,,,,,,,,,,
,,,,,,,,,,wmj,1,2024-06-28_19h00.57.935,DCT_v1_online,2021.2.3,Win32,59.57345407,,,0.049,2.301,29,down,1,0.799,right,1,0.8506,2.451,0,12,12,50,1,51,congruent,down,down,congruent,Stim/Acon.png,down,0,-0.1,180,4,100,congruent,left,right,incongruent,Stim/Acon.png,right,-0.1,0,-90,2,2000,stimuli\\,,,,,,,,,,,,
,,,,,,,,,,wmj,1,2024-06-28_19h00.57.935,DCT_v1_online,2021.2.3,Win32,59.57345407,,,0.016,3.234,30,up,1,0.5306,left,1,0.4412,2.484,0,13,13,5,1,6,congruent,up,up,congruent,Stim/Acon.png,up,0,0.1,0,1,1000,congruent,right,left,incongruent,Stim/Acon.png,left,0.1,0,90,3,2000,stimuli\\,,,,,,,,,,,,
,,,,,,,,,,wmj,1,2024-06-28_19h00.57.935,DCT_v1_online,2021.2.3,Win32,59.57345407,,,0.363,2.887,31,up,1,0.9788,left,1,0.7512,2.137,0,14,14,45,1,46,congruent,down,up,incongruent,Stim/Acon.png,up,0,-0.1,0,3,1000,incongruent,right,left,incongruent,Stim/Aincon.png,left,0.1,0,90,7,2000,stimuli\\,,,,,,,,,,,,
,,,,,,,,,,wmj,1,2024-06-28_19h00.57.935,DCT_v1_online,2021.2.3,Win32,59.57345407,,,0.338,2.012,32,up,1,0.6675,left,0,0.7348,2.162,0,15,15,10,1,11,congruent,up,up,congruent,Stim/Acon.png,up,0,0.1,0,1,100,incongruent,left,right,incongruent,Stim/Aincon.png,right,-0.1,0,-90,6,2000,stimuli\\,,,,,,,,,,,,
,,,,,,,,,,wmj,1,2024-06-28_19h00.57.935,DCT_v1_online,2021.2.3,Win32,59.57345407,,,0.027,3.223,33,down,1,0.8821,left,1,0.4964,2.473,0,16,16,117,1,118,incongruent,down,down,congruent,Stim/Aincon.png,down,0,-0.1,180,8,1000,congruent,right,left,incongruent,Stim/Acon.png,left,0.1,0,90,3,2000,stimuli\\,,,,,,,,,,,,
,,,,,,,,,,wmj,1,2024-06-28_19h00.57.935,DCT_v1_online,2021.2.3,Win32,59.57345407,,,0.41,2.84,34,down,1,0.7559,right,1,0.5043,2.09,0,17,17,87,1,88,incongruent,up,down,incongruent,Stim/Aincon.png,down,0,0.1,180,6,1000,congruent,right,right,congruent,Stim/Acon.png,right,0.1,0,-90,4,2000,stimuli\\,,,,,,,,,,,,
,,,,,,,,,,wmj,1,2024-06-28_19h00.57.935,DCT_v1_online,2021.2.3,Win32,59.57345407,,,0.371,2.879,35,up,1,0.6927,left,1,0.4785,2.129,0,18,18,65,1,66,incongruent,up,up,congruent,Stim/Aincon.png,up,0,0.1,0,5,1000,congruent,left,left,congruent,Stim/Acon.png,left,-0.1,0,90,1,2000,stimuli\\,,,,,,,,,,,,
,,,,,,,,,,wmj,1,2024-06-28_19h00.57.935,DCT_v1_online,2021.2.3,Win32,59.57345407,,,0.499,2.751,36,up,1,0.8062,right,1,0.4559,2.001,0,19,19,103,1,104,incongruent,down,up,incongruent,Stim/Aincon.png,up,0,-0.1,0,7,1000,congruent,right,right,congruent,Stim/Acon.png,right,0.1,0,-90,4,2000,stimuli\\,,,,,,,,,,,,
,,,,,,,,,,wmj,1,2024-06-28_19h00.57.935,DCT_v1_online,2021.2.3,Win32,59.57345407,,,0.398,1.952,37,down,1,0.979,left,1,1.0199,2.102,0,20,20,84,1,85,incongruent,up,down,incongruent,Stim/Aincon.png,down,0,0.1,180,6,100,congruent,right,left,incongruent,Stim/Acon.png,left,0.1,0,90,3,2000,stimuli\\,,,,,,,,,,,,
,,,,,,,,,,wmj,1,2024-06-28_19h00.57.935,DCT_v1_online,2021.2.3,Win32,59.57345407,,,0.338,2.012,38,down,1,0.8192,right,1,0.8518,2.162,0,21,21,18,1,19,congruent,up,down,incongruent,Stim/Acon.png,down,0,0.1,180,2,100,congruent,left,right,incongruent,Stim/Acon.png,right,-0.1,0,-90,2,2000,stimuli\\,,,,,,,,,,,,
,,,,,,,,,,wmj,1,2024-06-28_19h00.57.935,DCT_v1_online,2021.2.3,Win32,59.57345407,,,0.461,1.889,39,up,1,0.8147,left,1,1.0278,2.039,0,22,22,44,1,45,congruent,down,up,incongruent,Stim/Acon.png,up,0,-0.1,0,3,100,incongruent,right,left,incongruent,Stim/Aincon.png,left,0.1,0,90,7,2000,stimuli\\,,,,,,,,,,,,
,,,,,,,,,,wmj,1,2024-06-28_19h00.57.935,DCT_v1_online,2021.2.3,Win32,59.57345407,,,0.013,2.337,40,up,1,0.9695,right,1,1.0182,2.487,0,23,23,70,1,71,incongruent,up,up,congruent,Stim/Aincon.png,up,0,0.1,0,5,100,congruent,right,right,congruent,Stim/Acon.png,right,0.1,0,-90,4,2000,stimuli\\,,,,,,,,,,,,
,,,,,,,,,,wmj,1,2024-06-28_19h00.57.935,DCT_v1_online,2021.2.3,Win32,59.57345407,,,0.306,2.944,41,up,1,0.837,left,1,0.6587,2.194,0,24,24,105,1,106,incongruent,down,up,incongruent,Stim/Aincon.png,up,0,-0.1,0,7,1000,incongruent,left,left,congruent,Stim/Aincon.png,left,-0.1,0,90,5,2000,stimuli\\,,,,,,,,,,,,
,,,,,,,,,,wmj,1,2024-06-28_19h00.57.935,DCT_v1_online,2021.2.3,Win32,59.57345407,,,0.374,2.876,42,down,1,0.684,left,1,0.7255,2.126,0,25,25,93,1,94,incongruent,up,down,incongruent,Stim/Aincon.png,down,0,0.1,180,6,1000,incongruent,right,left,incongruent,Stim/Aincon.png,left,0.1,0,90,7,2000,stimuli\\,,,,,,,,,,,,
,,,,,,,,,,wmj,1,2024-06-28_19h00.57.935,DCT_v1_online,2021.2.3,Win32,59.57345407,,,0.497,1.853,43,up,1,0.9627,right,1,1.0681,2.003,0,26,26,102,1,103,incongruent,down,up,incongruent,Stim/Aincon.png,up,0,-0.1,0,7,100,congruent,right,right,congruent,Stim/Acon.png,right,0.1,0,-90,4,2000,stimuli\\,,,,,,,,,,,,
,,,,,,,,,,wmj,1,2024-06-28_19h00.57.935,DCT_v1_online,2021.2.3,Win32,59.57345407,,,0.289,2.961,44,down,1,0.6653,left,1,0.6639,2.211,0,27,27,89,1,90,incongruent,up,down,incongruent,Stim/Aincon.png,down,0,0.1,180,6,1000,incongruent,left,left,congruent,Stim/Aincon.png,left,-0.1,0,90,5,2000,stimuli\\,,,,,,,,,,,,
,,,,,,,,,,wmj,1,2024-06-28_19h00.57.935,DCT_v1_online,2021.2.3,Win32,59.57345407,,,0.121,3.129,45,down,1,0.6296,right,1,0.5453,2.379,0,28,28,55,1,56,congruent,down,down,congruent,Stim/Acon.png,down,0,-0.1,180,4,1000,congruent,right,right,congruent,Stim/Acon.png,right,0.1,0,-90,4,2000,stimuli\\,,,,,,,,,,,,
,,,,,,,,,,wmj,1,2024-06-28_19h00.57.935,DCT_v1_online,2021.2.3,Win32,59.57345407,,,0.379,2.871,46,down,1,0.744,right,1,0.5336,2.121,0,29,29,115,1,116,incongruent,down,down,congruent,Stim/Aincon.png,down,0,-0.1,180,8,1000,congruent,left,right,incongruent,Stim/Acon.png,right,-0.1,0,-90,2,2000,stimuli\\,,,,,,,,,,,,
,,,,,,,,,,wmj,1,2024-06-28_19h00.57.935,DCT_v1_online,2021.2.3,Win32,59.57345407,,,0.022,2.328,47,down,1,0.7338,left,1,0.8731,2.478,0,30,30,20,1,21,congruent,up,down,incongruent,Stim/Acon.png,down,0,0.1,180,2,100,congruent,right,left,incongruent,Stim/Acon.png,left,0.1,0,90,3,2000,stimuli\\,,,,,,,,,,,,
,,,,,,,,,,wmj,1,2024-06-28_19h00.57.935,DCT_v1_online,2021.2.3,Win32,59.57345407,,,0.088,3.162,48,down,1,0.454,left,1,0.427,2.412,0,31,31,21,1,22,congruent,up,down,incongruent,Stim/Acon.png,down,0,0.1,180,2,1000,congruent,right,left,incongruent,Stim/Acon.png,left,0.1,0,90,3,2000,stimuli\\,,,,,,,,,,,,
,,,,,,,,,,wmj,1,2024-06-28_19h00.57.935,DCT_v1_online,2021.2.3,Win32,59.57345407,,,0.048,3.202,49,down,1,0.6572,right,1,0.7753,2.452,0,32,32,127,1,128,incongruent,down,down,congruent,Stim/Aincon.png,down,0,-0.1,180,8,1000,incongruent,right,right,congruent,Stim/Aincon.png,right,0.1,0,-90,8,2000,stimuli\\,,,,,,,,,,,,
,,,,,,,,,,wmj,1,2024-06-28_19h00.57.935,DCT_v1_online,2021.2.3,Win32,59.57345407,,,0.107,3.143,50,up,1,0.6167,left,0,0.5424,2.393,0,33,33,11,1,12,congruent,up,up,congruent,Stim/Acon.png,up,0,0.1,0,1,1000,incongruent,left,right,incongruent,Stim/Aincon.png,right,-0.1,0,-90,6,2000,stimuli\\,,,,,,,,,,,,
,,,,,,,,,,wmj,1,2024-06-28_19h00.57.935,DCT_v1_online,2021.2.3,Win32,59.57345407,,,0.369,1.981,51,down,1,1.0698,left,1,1.118,2.131,0,34,34,80,1,81,incongruent,up,down,incongruent,Stim/Aincon.png,down,0,0.1,180,6,100,congruent,left,left,congruent,Stim/Acon.png,left,-0.1,0,90,1,2000,stimuli\\,,,,,,,,,,,,
,,,,,,,,,,wmj,1,2024-06-28_19h00.57.935,DCT_v1_online,2021.2.3,Win32,59.57345407,,,0.128,3.122,52,up,1,0.819,left,1,0.8116,2.372,0,35,35,13,1,14,congruent,up,up,congruent,Stim/Acon.png,up,0,0.1,0,1,1000,incongruent,right,left,incongruent,Stim/Aincon.png,left,0.1,0,90,7,2000,stimuli\\,,,,,,,,,,,,
,,,,,,,,,,wmj,1,2024-06-28_19h00.57.935,DCT_v1_online,2021.2.3,Win32,59.57345407,,,0.299,2.951,53,up,1,0.723,right,1,0.5859,2.201,0,36,36,67,1,68,incongruent,up,up,congruent,Stim/Aincon.png,up,0,0.1,0,5,1000,congruent,left,right,incongruent,Stim/Acon.png,right,-0.1,0,-90,2,2000,stimuli\\,,,,,,,,,,,,
,,,,,,,,,,wmj,1,2024-06-28_19h00.57.935,DCT_v1_online,2021.2.3,Win32,59.57345407,,,0.149,3.101,54,down,1,0.602,left,1,0.6947,2.351,0,37,37,61,1,62,congruent,down,down,congruent,Stim/Acon.png,down,0,-0.1,180,4,1000,incongruent,right,left,incongruent,Stim/Aincon.png,left,0.1,0,90,7,2000,stimuli\\,,,,,,,,,,,,
,,,,,,,,,,wmj,1,2024-06-28_19h00.57.935,DCT_v1_online,2021.2.3,Win32,59.57345407,,,0.495,2.755,55,down,1,0.5367,left,1,0.5048,2.005,0,38,38,49,1,50,congruent,down,down,congruent,Stim/Acon.png,down,0,-0.1,180,4,1000,congruent,left,left,congruent,Stim/Acon.png,left,-0.1,0,90,1,2000,stimuli\\,,,,,,,,,,,,
,,,,,,,,,,wmj,1,2024-06-28_19h00.57.935,DCT_v1_online,2021.2.3,Win32,59.57345407,,,0.056,3.194,56,down,0,0.6329,left,1,0.6779,2.444,0,39,39,97,1,98,incongruent,down,up,incongruent,Stim/Aincon.png,up,0,-0.1,0,7,1000,congruent,left,left,congruent,Stim/Acon.png,left,-0.1,0,90,1,2000,stimuli\\,,,,,,,,,,,,
,,,,,,,,,,wmj,1,2024-06-28_19h00.57.935,DCT_v1_online,2021.2.3,Win32,59.57345407,,,0.486,2.764,57,up,1,1.0044,left,1,0.6522,2.014,0,40,40,69,1,70,incongruent,up,up,congruent,Stim/Aincon.png,up,0,0.1,0,5,1000,congruent,right,left,incongruent,Stim/Acon.png,left,0.1,0,90,3,2000,stimuli\\,,,,,,,,,,,,
,,,,,,,,,,wmj,1,2024-06-28_19h00.57.935,DCT_v1_online,2021.2.3,Win32,59.57345407,,,0.495,1.855,58,down,1,0.7845,left,1,1.0645,2.005,0,41,41,24,1,25,congruent,up,down,incongruent,Stim/Acon.png,down,0,0.1,180,2,100,incongruent,left,left,congruent,Stim/Aincon.png,left,-0.1,0,90,5,2000,stimuli\\,,,,,,,,,,,,
,,,,,,,,,,wmj,1,2024-06-28_19h00.57.935,DCT_v1_online,2021.2.3,Win32,59.57345407,,,0.327,2.023,59,up,1,0.8776,left,1,1.0887,2.173,0,42,42,12,1,13,congruent,up,up,congruent,Stim/Acon.png,up,0,0.1,0,1,100,incongruent,right,left,incongruent,Stim/Aincon.png,left,0.1,0,90,7,2000,stimuli\\,,,,,,,,,,,,
,,,,,,,,,,wmj,1,2024-06-28_19h00.57.935,DCT_v1_online,2021.2.3,Win32,59.57345407,,,0.037,3.213,60,up,1,0.7693,right,1,0.6103,2.463,0,43,43,71,1,72,incongruent,up,up,congruent,Stim/Aincon.png,up,0,0.1,0,5,1000,congruent,right,right,congruent,Stim/Acon.png,right,0.1,0,-90,4,2000,stimuli\\,,,,,,,,,,,,
,,,,,,,,,,wmj,1,2024-06-28_19h00.57.935,DCT_v1_online,2021.2.3,Win32,59.57345407,,,0.259,2.091,61,down,1,1.0989,right,1,1.1619,2.241,0,44,44,82,1,83,incongruent,up,down,incongruent,Stim/Aincon.png,down,0,0.1,180,6,100,congruent,left,right,incongruent,Stim/Acon.png,right,-0.1,0,-90,2,2000,stimuli\\,,,,,,,,,,,,
,,,,,,,,,,wmj,1,2024-06-28_19h00.57.935,DCT_v1_online,2021.2.3,Win32,59.57345407,,,0.417,1.933,62,down,1,0.8681,right,1,1.0824,2.083,0,45,45,90,1,91,incongruent,up,down,incongruent,Stim/Aincon.png,down,0,0.1,180,6,100,incongruent,left,right,incongruent,Stim/Aincon.png,right,-0.1,0,-90,6,2000,stimuli\\,,,,,,,,,,,,
,,,,,,,,,,wmj,1,2024-06-28_19h00.57.935,DCT_v1_online,2021.2.3,Win32,59.57345407,,,0.42,2.83,63,down,1,0.7126,right,1,0.764,2.08,0,46,46,95,1,96,incongruent,up,down,incongruent,Stim/Aincon.png,down,0,0.1,180,6,1000,incongruent,right,right,congruent,Stim/Aincon.png,right,0.1,0,-90,8,2000,stimuli\\,,,,,,,,,,,,
,,,,,,,,,,wmj,1,2024-06-28_19h00.57.935,DCT_v1_online,2021.2.3,Win32,59.57345407,,,0.398,1.952,64,down,1,1.1014,left,1,1.1903,2.102,0,47,47,116,1,117,incongruent,down,down,congruent,Stim/Aincon.png,down,0,-0.1,180,8,100,congruent,right,left,incongruent,Stim/Acon.png,left,0.1,0,90,3,2000,stimuli\\,,,,,,,,,,,,
,,,,,,,,,,wmj,1,2024-06-28_19h00.57.935,DCT_v1_online,2021.2.3,Win32,59.57345407,,,0.073,2.277,65,down,1,0.9903,left,1,1.0845,2.427,0,48,48,48,1,49,congruent,down,down,congruent,Stim/Acon.png,down,0,-0.1,180,4,100,congruent,left,left,congruent,Stim/Acon.png,left,-0.1,0,90,1,2000,stimuli\\,,,,,,,,,,,,
,,,,,,,,,,wmj,1,2024-06-28_19h00.57.935,DCT_v1_online,2021.2.3,Win32,59.57345407,,,0.456,1.894,66,down,1,0.9442,left,1,1.0513,2.044,0,49,49,52,1,53,congruent,down,down,congruent,Stim/Acon.png,down,0,-0.1,180,4,100,congruent,right,left,incongruent,Stim/Acon.png,left,0.1,0,90,3,2000,stimuli\\,,,,,,,,,,,,
,,,,,,,,,,wmj,1,2024-06-28_19h00.57.935,DCT_v1_online,2021.2.3,Win32,59.57345407,,,0.262,2.088,67,up,1,1.1588,right,1,1.2668,2.238,0,50,50,110,1,111,incongruent,down,up,incongruent,Stim/Aincon.png,up,0,-0.1,0,7,100,incongruent,right,right,congruent,Stim/Aincon.png,right,0.1,0,-90,8,2000,stimuli\\,,,,,,,,,,,,
,,,,,,,,,,wmj,1,2024-06-28_19h00.57.935,DCT_v1_online,2021.2.3,Win32,59.57345407,,,0.26,2.09,68,down,1,0.9245,left,1,1.0571,2.24,0,51,51,92,1,93,incongruent,up,down,incongruent,Stim/Aincon.png,down,0,0.1,180,6,100,incongruent,right,left,incongruent,Stim/Aincon.png,left,0.1,0,90,7,2000,stimuli\\,,,,,,,,,,,,
,,,,,,,,,,wmj,1,2024-06-28_19h00.57.935,DCT_v1_online,2021.2.3,Win32,59.57345407,,,0.15,3.1,69,down,1,0.6674,right,1,0.8568,2.35,0,52,52,31,1,32,congruent,up,down,incongruent,Stim/Acon.png,down,0,0.1,180,2,1000,incongruent,right,right,congruent,Stim/Aincon.png,right,0.1,0,-90,8,2000,stimuli\\,,,,,,,,,,,,
,,,,,,,,,,wmj,1,2024-06-28_19h00.57.935,DCT_v1_online,2021.2.3,Win32,59.57345407,,,0.466,1.884,70,down,1,0.7007,right,1,0.8474,2.034,0,53,53,22,1,23,congruent,up,down,incongruent,Stim/Acon.png,down,0,0.1,180,2,100,congruent,right,right,congruent,Stim/Acon.png,right,0.1,0,-90,4,2000,stimuli\\,,,,,,,,,,,,
,,,,,,,,,,wmj,1,2024-06-28_19h00.57.935,DCT_v1_online,2021.2.3,Win32,59.57345407,,,0.468,2.782,71,up,1,0.951,left,1,0.7074,2.032,0,54,54,9,1,10,congruent,up,up,congruent,Stim/Acon.png,up,0,0.1,0,1,1000,incongruent,left,left,congruent,Stim/Aincon.png,left,-0.1,0,90,5,2000,stimuli\\,,,,,,,,,,,,
,,,,,,,,,,wmj,1,2024-06-28_19h00.57.935,DCT_v1_online,2021.2.3,Win32,59.57345407,,,0.166,2.184,72,down,1,0.7672,right,1,0.9714,2.334,0,55,55,94,1,95,incongruent,up,down,incongruent,Stim/Aincon.png,down,0,0.1,180,6,100,incongruent,right,right,congruent,Stim/Aincon.png,right,0.1,0,-90,8,2000,stimuli\\,,,,,,,,,,,,
,,,,,,,,,,wmj,1,2024-06-28_19h00.57.935,DCT_v1_online,2021.2.3,Win32,59.57345407,,,0.434,1.916,73,down,1,0.8324,right,1,0.9591,2.066,0,56,56,118,1,119,incongruent,down,down,congruent,Stim/Aincon.png,down,0,-0.1,180,8,100,congruent,right,right,congruent,Stim/Acon.png,right,0.1,0,-90,4,2000,stimuli\\,,,,,,,,,,,,
,,,,,,,,,,wmj,1,2024-06-28_19h00.57.935,DCT_v1_online,2021.2.3,Win32,59.57345407,,,0.303,2.047,74,up,1,0.85,right,1,0.9826,2.197,0,57,57,34,1,35,congruent,down,up,incongruent,Stim/Acon.png,up,0,-0.1,0,3,100,congruent,left,right,incongruent,Stim/Acon.png,right,-0.1,0,-90,2,2000,stimuli\\,,,,,,,,,,,,
,,,,,,,,,,wmj,1,2024-06-28_19h00.57.935,DCT_v1_online,2021.2.3,Win32,59.57345407,,,0.294,2.956,75,up,1,0.9783,right,1,0.9481,2.206,0,58,58,111,1,112,incongruent,down,up,incongruent,Stim/Aincon.png,up,0,-0.1,0,7,1000,incongruent,right,right,congruent,Stim/Aincon.png,right,0.1,0,-90,8,2000,stimuli\\,,,,,,,,,,,,
,,,,,,,,,,wmj,1,2024-06-28_19h00.57.935,DCT_v1_online,2021.2.3,Win32,59.57345407,,,0.402,1.948,76,up,1,1.0912,left,1,1.2518,2.098,0,59,59,96,1,97,incongruent,down,up,incongruent,Stim/Aincon.png,up,0,-0.1,0,7,100,congruent,left,left,congruent,Stim/Acon.png,left,-0.1,0,90,1,2000,stimuli\\,,,,,,,,,,,,
,,,,,,,,,,wmj,1,2024-06-28_19h00.57.935,DCT_v1_online,2021.2.3,Win32,59.57345407,,,0.438,1.912,77,,0,,left,1,1.5145,,0,60,60,64,1,65,incongruent,up,up,congruent,Stim/Aincon.png,up,0,0.1,0,5,100,congruent,left,left,congruent,Stim/Acon.png,left,-0.1,0,90,1,2000,stimuli\\,,,,,,,,,,,,
,,,,,,,,,,wmj,1,2024-06-28_19h00.57.935,DCT_v1_online,2021.2.3,Win32,59.57345407,,,0.369,1.981,78,up,1,0.9293,right,1,1.085,2.131,0,61,61,46,1,47,congruent,down,up,incongruent,Stim/Acon.png,up,0,-0.1,0,3,100,incongruent,right,right,congruent,Stim/Aincon.png,right,0.1,0,-90,8,2000,stimuli\\,,,,,,,,,,,,
,,,,,,,,,,wmj,1,2024-06-28_19h00.57.935,DCT_v1_online,2021.2.3,Win32,59.57345407,,,0.106,3.144,79,up,1,0.8887,right,1,0.7482,2.394,0,62,62,107,1,108,incongruent,down,up,incongruent,Stim/Aincon.png,up,0,-0.1,0,7,1000,incongruent,left,right,incongruent,Stim/Aincon.png,right,-0.1,0,-90,6,2000,stimuli\\,,,,,,,,,,,,
,,,,,,,,,,wmj,1,2024-06-28_19h00.57.935,DCT_v1_online,2021.2.3,Win32,59.57345407,,,0.485,2.765,80,down,1,0.608,left,0,0.5235,2.015,0,63,63,27,1,28,congruent,up,down,incongruent,Stim/Acon.png,down,0,0.1,180,2,1000,incongruent,left,right,incongruent,Stim/Aincon.png,right,-0.1,0,-90,6,2000,stimuli\\,,,,,,,,,,,,
,,,,,,,,,,wmj,1,2024-06-28_19h00.57.935,DCT_v1_online,2021.2.3,Win32,59.57345407,,,0.412,1.938,81,down,1,0.9032,left,1,1.2481,2.088,0,64,64,120,1,121,incongruent,down,down,congruent,Stim/Aincon.png,down,0,-0.1,180,8,100,incongruent,left,left,congruent,Stim/Aincon.png,left,-0.1,0,90,5,2000,stimuli\\,,,,,,,,,,,,
,,,,,,,,,,wmj,1,2024-06-28_19h00.57.935,DCT_v1_online,2021.2.3,Win32,59.57345407,,,0.057,3.193,82,up,1,0.6847,left,1,0.8739,2.443,0,65,65,41,1,42,congruent,down,up,incongruent,Stim/Acon.png,up,0,-0.1,0,3,1000,incongruent,left,left,congruent,Stim/Aincon.png,left,-0.1,0,90,5,2000,stimuli\\,,,,,,,,,,,,
,,,,,,,,,,wmj,1,2024-06-28_19h00.57.935,DCT_v1_online,2021.2.3,Win32,59.57345407,,,0.424,1.926,83,down,1,0.8295,right,1,0.9961,2.076,0,66,66,62,1,63,congruent,down,down,congruent,Stim/Acon.png,down,0,-0.1,180,4,100,incongruent,right,right,congruent,Stim/Aincon.png,right,0.1,0,-90,8,2000,stimuli\\,,,,,,,,,,,,
,,,,,,,,,,wmj,1,2024-06-28_19h00.57.935,DCT_v1_online,2021.2.3,Win32,59.57345407,,,0.235,2.115,84,up,1,0.9461,left,1,1.0797,2.265,0,67,67,36,1,37,congruent,down,up,incongruent,Stim/Acon.png,up,0,-0.1,0,3,100,congruent,right,left,incongruent,Stim/Acon.png,left,0.1,0,90,3,2000,stimuli\\,,,,,,,,,,,,
,,,,,,,,,,wmj,1,2024-06-28_19h00.57.935,DCT_v1_online,2021.2.3,Win32,59.57345407,,,0.299,2.951,85,down,1,1.1937,left,1,0.6633,2.201,0,68,68,85,1,86,incongruent,up,down,incongruent,Stim/Aincon.png,down,0,0.1,180,6,1000,congruent,right,left,incongruent,Stim/Acon.png,left,0.1,0,90,3,2000,stimuli\\,,,,,,,,,,,,
,,,,,,,,,,wmj,1,2024-06-28_19h00.57.935,DCT_v1_online,2021.2.3,Win32,59.57345407,,,0.459,2.791,86,down,1,0.6518,right,0,0.4881,2.041,0,69,69,29,1,30,congruent,up,down,incongruent,Stim/Acon.png,down,0,0.1,180,2,1000,incongruent,right,left,incongruent,Stim/Aincon.png,left,0.1,0,90,7,2000,stimuli\\,,,,,,,,,,,,
,,,,,,,,,,wmj,1,2024-06-28_19h00.57.935,DCT_v1_online,2021.2.3,Win32,59.57345407,,,0.039,3.211,87,up,1,0.9604,left,1,0.5961,2.461,0,70,70,101,1,102,incongruent,down,up,incongruent,Stim/Aincon.png,up,0,-0.1,0,7,1000,congruent,right,left,incongruent,Stim/Acon.png,left,0.1,0,90,3,2000,stimuli\\,,,,,,,,,,,,
,,,,,,,,,,wmj,1,2024-06-28_19h00.57.935,DCT_v1_online,2021.2.3,Win32,59.57345407,,,0.14,3.11,88,down,1,0.5291,right,1,0.5508,2.36,0,71,71,23,1,24,congruent,up,down,incongruent,Stim/Acon.png,down,0,0.1,180,2,1000,congruent,right,right,congruent,Stim/Acon.png,right,0.1,0,-90,4,2000,stimuli\\,,,,,,,,,,,,
,,,,,,,,,,wmj,1,2024-06-28_19h00.57.935,DCT_v1_online,2021.2.3,Win32,59.57345407,,,0.138,3.112,89,up,1,0.8532,left,1,0.7062,2.362,0,72,72,73,1,74,incongruent,up,up,congruent,Stim/Aincon.png,up,0,0.1,0,5,1000,incongruent,left,left,congruent,Stim/Aincon.png,left,-0.1,0,90,5,2000,stimuli\\,,,,,,,,,,,,
,,,,,,,,,,wmj,1,2024-06-28_19h00.57.935,DCT_v1_online,2021.2.3,Win32,59.57345407,,,0.064,3.186,90,down,1,0.6189,right,1,0.5507,2.436,0,73,73,83,1,84,incongruent,up,down,incongruent,Stim/Aincon.png,down,0,0.1,180,6,1000,congruent,left,right,incongruent,Stim/Acon.png,right,-0.1,0,-90,2,2000,stimuli\\,,,,,,,,,,,,
,,,,,,,,,,wmj,1,2024-06-28_19h00.57.935,DCT_v1_online,2021.2.3,Win32,59.57345407,,,0.247,3.003,91,up,1,0.5676,left,1,0.5676,2.253,0,74,74,37,1,38,congruent,down,up,incongruent,Stim/Acon.png,up,0,-0.1,0,3,1000,congruent,right,left,incongruent,Stim/Acon.png,left,0.1,0,90,3,2000,stimuli\\,,,,,,,,,,,,
,,,,,,,,,,wmj,1,2024-06-28_19h00.57.935,DCT_v1_online,2021.2.3,Win32,59.57345407,,,0.127,3.123,92,up,1,0.5193,right,1,0.5064,2.373,0,75,75,3,1,4,congruent,up,up,congruent,Stim/Acon.png,up,0,0.1,0,1,1000,congruent,left,right,incongruent,Stim/Acon.png,right,-0.1,0,-90,2,2000,stimuli\\,,,,,,,,,,,,
,,,,,,,,,,wmj,1,2024-06-28_19h00.57.935,DCT_v1_online,2021.2.3,Win32,59.57345407,,,0.29,2.06,93,up,1,0.7971,right,0,0.8988,2.21,0,76,76,8,1,9,congruent,up,up,congruent,Stim/Acon.png,up,0,0.1,0,1,100,incongruent,left,left,congruent,Stim/Aincon.png,left,-0.1,0,90,5,2000,stimuli\\,,,,,,,,,,,,
,,,,,,,,,,wmj,1,2024-06-28_19h00.57.935,DCT_v1_online,2021.2.3,Win32,59.57345407,,,0.179,2.171,94,down,1,1.1122,left,1,1.5859,2.321,0,77,77,124,1,125,incongruent,down,down,congruent,Stim/Aincon.png,down,0,-0.1,180,8,100,incongruent,right,left,incongruent,Stim/Aincon.png,left,0.1,0,90,7,2000,stimuli\\,,,,,,,,,,,,
,,,,,,,,,,wmj,1,2024-06-28_19h00.57.935,DCT_v1_online,2021.2.3,Win32,59.57345407,,,0.214,3.036,95,down,1,0.6406,right,1,0.5668,2.286,0,78,78,51,1,52,congruent,down,down,congruent,Stim/Acon.png,down,0,-0.1,180,4,1000,congruent,left,right,incongruent,Stim/Acon.png,right,-0.1,0,-90,2,2000,stimuli\\,,,,,,,,,,,,
,,,,,,,,,,wmj,1,2024-06-28_19h00.57.935,DCT_v1_online,2021.2.3,Win32,59.57345407,,,0.176,3.074,96,down,1,0.6512,right,1,0.5063,2.324,0,79,79,19,1,20,congruent,up,down,incongruent,Stim/Acon.png,down,0,0.1,180,2,1000,congruent,left,right,incongruent,Stim/Acon.png,right,-0.1,0,-90,2,2000,stimuli\\,,,,,,,,,,,,
,,,,,,,,,,wmj,1,2024-06-28_19h00.57.935,DCT_v1_online,2021.2.3,Win32,59.57345407,,,0.475,1.875,97,up,1,0.962,left,1,1.085,2.025,0,80,80,68,1,69,incongruent,up,up,congruent,Stim/Aincon.png,up,0,0.1,0,5,100,congruent,right,left,incongruent,Stim/Acon.png,left,0.1,0,90,3,2000,stimuli\\,,,,,,,,,,,,
,,,,,,,,,,wmj,1,2024-06-28_19h00.57.935,DCT_v1_online,2021.2.3,Win32,59.57345407,,,0.013,2.337,98,up,0,1.4956,left,1,1.2052,2.487,0,81,81,88,1,89,incongruent,up,down,incongruent,Stim/Aincon.png,down,0,0.1,180,6,100,incongruent,left,left,congruent,Stim/Aincon.png,left,-0.1,0,90,5,2000,stimuli\\,,,,,,,,,,,,
,,,,,,,,,,wmj,1,2024-06-28_19h00.57.935,DCT_v1_online,2021.2.3,Win32,59.57345407,,,0.426,2.824,99,up,1,0.6763,right,1,0.8018,2.074,0,82,82,15,1,16,congruent,up,up,congruent,Stim/Acon.png,up,0,0.1,0,1,1000,incongruent,right,right,congruent,Stim/Aincon.png,right,0.1,0,-90,8,2000,stimuli\\,,,,,,,,,,,,
,,,,,,,,,,wmj,1,2024-06-28_19h00.57.935,DCT_v1_online,2021.2.3,Win32,59.57345407,,,0.428,2.822,100,down,1,0.6196,right,1,0.7503,2.072,0,83,83,63,1,64,congruent,down,down,congruent,Stim/Acon.png,down,0,-0.1,180,4,1000,incongruent,right,right,congruent,Stim/Aincon.png,right,0.1,0,-90,8,2000,stimuli\\,,,,,,,,,,,,
,,,,,,,,,,wmj,1,2024-06-28_19h00.57.935,DCT_v1_online,2021.2.3,Win32,59.57345407,,,0.46,1.89,101,up,1,1.185,left,1,1.3139,2.04,0,84,84,72,1,73,incongruent,up,up,congruent,Stim/Aincon.png,up,0,0.1,0,5,100,incongruent,left,left,congruent,Stim/Aincon.png,left,-0.1,0,90,5,2000,stimuli\\,,,,,,,,,,,,
,,,,,,,,,,wmj,1,2024-06-28_19h00.57.935,DCT_v1_online,2021.2.3,Win32,59.57345407,,,0.016,3.234,102,up,1,1.0742,right,1,0.5623,2.484,0,85,85,99,1,100,incongruent,down,up,incongruent,Stim/Aincon.png,up,0,-0.1,0,7,1000,congruent,left,right,incongruent,Stim/Acon.png,right,-0.1,0,-90,2,2000,stimuli\\,,,,,,,,,,,,
,,,,,,,,,,wmj,1,2024-06-28_19h00.57.935,DCT_v1_online,2021.2.3,Win32,59.57345407,,,0.081,2.269,103,up,1,1.2642,left,1,1.3657,2.419,0,86,86,0,1,1,congruent,up,up,congruent,Stim/Acon.png,up,0,0.1,0,1,100,congruent,left,left,congruent,Stim/Acon.png,left,-0.1,0,90,1,2000,stimuli\\,,,,,,,,,,,,
,,,,,,,,,,wmj,1,2024-06-28_19h00.57.935,DCT_v1_online,2021.2.3,Win32,59.57345407,,,0.158,2.192,104,down,1,1.1606,right,1,1.4251,2.342,0,87,87,122,1,123,incongruent,down,down,congruent,Stim/Aincon.png,down,0,-0.1,180,8,100,incongruent,left,right,incongruent,Stim/Aincon.png,right,-0.1,0,-90,6,2000,stimuli\\,,,,,,,,,,,,
,,,,,,,,,,wmj,1,2024-06-28_19h00.57.935,DCT_v1_online,2021.2.3,Win32,59.57345407,,,0.07,3.18,105,down,1,0.6614,left,1,0.7344,2.43,0,88,88,57,1,58,congruent,down,down,congruent,Stim/Acon.png,down,0,-0.1,180,4,1000,incongruent,left,left,congruent,Stim/Aincon.png,left,-0.1,0,90,5,2000,stimuli\\,,,,,,,,,,,,
,,,,,,,,,,wmj,1,2024-06-28_19h00.57.935,DCT_v1_online,2021.2.3,Win32,59.57345407,,,0.397,2.853,106,up,1,0.753,right,1,0.7843,2.103,0,89,89,75,1,76,incongruent,up,up,congruent,Stim/Aincon.png,up,0,0.1,0,5,1000,incongruent,left,right,incongruent,Stim/Aincon.png,right,-0.1,0,-90,6,2000,stimuli\\,,,,,,,,,,,,
,,,,,,,,,,wmj,1,2024-06-28_19h00.57.935,DCT_v1_online,2021.2.3,Win32,59.57345407,,,0.154,2.196,107,up,1,0.9171,left,1,1.0196,2.346,0,90,90,76,1,77,incongruent,up,up,congruent,Stim/Aincon.png,up,0,0.1,0,5,100,incongruent,right,left,incongruent,Stim/Aincon.png,left,0.1,0,90,7,2000,stimuli\\,,,,,,,,,,,,
,,,,,,,,,,wmj,1,2024-06-28_19h00.57.935,DCT_v1_online,2021.2.3,Win32,59.57345407,,,0.376,1.974,108,up,1,1.1418,right,1,1.4358,2.124,0,91,91,106,1,107,incongruent,down,up,incongruent,Stim/Aincon.png,up,0,-0.1,0,7,100,incongruent,left,right,incongruent,Stim/Aincon.png,right,-0.1,0,-90,6,2000,stimuli\\,,,,,,,,,,,,
,,,,,,,,,,wmj,1,2024-06-28_19h00.57.935,DCT_v1_online,2021.2.3,Win32,59.57345407,,,0.264,2.086,109,down,1,1.0597,right,1,1.3518,2.236,0,92,92,26,1,27,congruent,up,down,incongruent,Stim/Acon.png,down,0,0.1,180,2,100,incongruent,left,right,incongruent,Stim/Aincon.png,right,-0.1,0,-90,6,2000,stimuli\\,,,,,,,,,,,,
,,,,,,,,,,wmj,1,2024-06-28_19h00.57.935,DCT_v1_online,2021.2.3,Win32,59.57345407,,,0.085,3.165,110,up,1,0.7014,left,1,0.4676,2.415,0,93,93,33,1,34,congruent,down,up,incongruent,Stim/Acon.png,up,0,-0.1,0,3,1000,congruent,left,left,congruent,Stim/Acon.png,left,-0.1,0,90,1,2000,stimuli\\,,,,,,,,,,,,
,,,,,,,,,,wmj,1,2024-06-28_19h00.57.935,DCT_v1_online,2021.2.3,Win32,59.57345407,,,0.042,3.208,111,down,1,0.7343,right,1,0.7599,2.458,0,94,94,123,1,124,incongruent,down,down,congruent,Stim/Aincon.png,down,0,-0.1,180,8,1000,incongruent,left,right,incongruent,Stim/Aincon.png,right,-0.1,0,-90,6,2000,stimuli\\,,,,,,,,,,,,
,,,,,,,,,,wmj,1,2024-06-28_19h00.57.935,DCT_v1_online,2021.2.3,Win32,59.57345407,,,0.065,3.185,112,down,1,0.6394,right,1,0.6171,2.435,0,95,95,119,1,120,incongruent,down,down,congruent,Stim/Aincon.png,down,0,-0.1,180,8,1000,congruent,right,right,congruent,Stim/Acon.png,right,0.1,0,-90,4,2000,stimuli\\,,,,,,,,,,,,
,,,,,,,,,,wmj,1,2024-06-28_19h00.57.935,DCT_v1_online,2021.2.3,Win32,59.57345407,,,0.276,2.074,113,up,1,1.051,left,1,1.2041,2.224,0,96,96,108,1,109,incongruent,down,up,incongruent,Stim/Aincon.png,up,0,-0.1,0,7,100,incongruent,right,left,incongruent,Stim/Aincon.png,left,0.1,0,90,7,2000,stimuli\\,,,,,,,,,,,,
,,,,,,,,,,wmj,1,2024-06-28_19h00.57.935,DCT_v1_online,2021.2.3,Win32,59.57345407,,,0.464,1.886,114,down,1,0.7897,right,0,0.8984,2.036,0,97,97,56,1,57,congruent,down,down,congruent,Stim/Acon.png,down,0,-0.1,180,4,100,incongruent,left,left,congruent,Stim/Aincon.png,left,-0.1,0,90,5,2000,stimuli\\,,,,,,,,,,,,
,,,,,,,,,,wmj,1,2024-06-28_19h00.57.935,DCT_v1_online,2021.2.3,Win32,59.57345407,,,0.209,3.041,115,down,1,0.6344,right,1,0.7508,2.291,0,98,98,59,1,60,congruent,down,down,congruent,Stim/Acon.png,down,0,-0.1,180,4,1000,incongruent,left,right,incongruent,Stim/Aincon.png,right,-0.1,0,-90,6,2000,stimuli\\,,,,,,,,,,,,
,,,,,,,,,,wmj,1,2024-06-28_19h00.57.935,DCT_v1_online,2021.2.3,Win32,59.57345407,,,0.143,2.207,116,up,1,1.1129,right,1,1.1946,2.357,0,99,99,98,1,99,incongruent,down,up,incongruent,Stim/Aincon.png,up,0,-0.1,0,7,100,congruent,left,right,incongruent,Stim/Acon.png,right,-0.1,0,-90,2,2000,stimuli\\,,,,,,,,,,,,
,,,,,,,,,,wmj,1,2024-06-28_19h00.57.935,DCT_v1_online,2021.2.3,Win32,59.57345407,,,0.049,3.201,117,down,1,0.6901,left,1,0.762,2.451,0,100,100,25,1,26,congruent,up,down,incongruent,Stim/Acon.png,down,0,0.1,180,2,1000,incongruent,left,left,congruent,Stim/Aincon.png,left,-0.1,0,90,5,2000,stimuli\\,,,,,,,,,,,,
,,,,,,,,,,wmj,1,2024-06-28_19h00.57.935,DCT_v1_online,2021.2.3,Win32,59.57345407,,,0.425,1.925,118,,0,,,0,,,0,101,101,74,1,75,incongruent,up,up,congruent,Stim/Aincon.png,up,0,0.1,0,5,100,incongruent,left,right,incongruent,Stim/Aincon.png,right,-0.1,0,-90,6,2000,stimuli\\,,,,,,,,,,,,
,,,,,,,,,,wmj,1,2024-06-28_19h00.57.935,DCT_v1_online,2021.2.3,Win32,59.57345407,,,0.069,2.281,119,up,0,0.1406,right,1,1.1229,2.431,0,102,102,86,1,87,incongruent,up,down,incongruent,Stim/Aincon.png,down,0,0.1,180,6,100,congruent,right,right,congruent,Stim/Acon.png,right,0.1,0,-90,4,2000,stimuli\\,,,,,,,,,,,,
,,,,,,,,,,wmj,1,2024-06-28_19h00.57.935,DCT_v1_online,2021.2.3,Win32,59.57345407,,,0.258,2.092,120,,0,,,0,,,0,103,103,104,1,105,incongruent,down,up,incongruent,Stim/Aincon.png,up,0,-0.1,0,7,100,incongruent,left,left,congruent,Stim/Aincon.png,left,-0.1,0,90,5,2000,stimuli\\,,,,,,,,,,,,
,,,,,,,,,,wmj,1,2024-06-28_19h00.57.935,DCT_v1_online,2021.2.3,Win32,59.57345407,,,0.227,3.023,121,up,1,1.1564,left,1,0.8857,2.273,0,104,104,109,1,110,incongruent,down,up,incongruent,Stim/Aincon.png,up,0,-0.1,0,7,1000,incongruent,right,left,incongruent,Stim/Aincon.png,left,0.1,0,90,7,2000,stimuli\\,,,,,,,,,,,,
,,,,,,,,,,wmj,1,2024-06-28_19h00.57.935,DCT_v1_online,2021.2.3,Win32,59.57345407,,,0.194,2.156,122,up,1,0.7059,right,1,1.0346,2.306,0,105,105,14,1,15,congruent,up,up,congruent,Stim/Acon.png,up,0,0.1,0,1,100,incongruent,right,right,congruent,Stim/Aincon.png,right,0.1,0,-90,8,2000,stimuli\\,,,,,,,,,,,,
,,,,,,,,,,wmj,1,2024-06-28_19h00.57.935,DCT_v1_online,2021.2.3,Win32,59.57345407,,,0.377,1.973,123,up,1,1.4329,right,1,1.5227,2.123,0,106,106,2,1,3,congruent,up,up,congruent,Stim/Acon.png,up,0,0.1,0,1,100,congruent,left,right,incongruent,Stim/Acon.png,right,-0.1,0,-90,2,2000,stimuli\\,,,,,,,,,,,,
,,,,,,,,,,wmj,1,2024-06-28_19h00.57.935,DCT_v1_online,2021.2.3,Win32,59.57345407,,,0.223,2.127,124,up,1,0.8416,left,1,0.9561,2.277,0,107,107,4,1,5,congruent,up,up,congruent,Stim/Acon.png,up,0,0.1,0,1,100,congruent,right,left,incongruent,Stim/Acon.png,left,0.1,0,90,3,2000,stimuli\\,,,,,,,,,,,,
,,,,,,,,,,wmj,1,2024-06-28_19h00.57.935,DCT_v1_online,2021.2.3,Win32,59.57345407,,,0.192,2.158,125,down,1,1.3203,left,0,1.5359,2.308,0,108,108,126,1,127,incongruent,down,down,congruent,Stim/Aincon.png,down,0,-0.1,180,8,100,incongruent,right,right,congruent,Stim/Aincon.png,right,0.1,0,-90,8,2000,stimuli\\,,,,,,,,,,,,
,,,,,,,,,,wmj,1,2024-06-28_19h00.57.935,DCT_v1_online,2021.2.3,Win32,59.57345407,,,0.144,2.206,126,up,1,0.8972,right,1,1.031,2.356,0,109,109,78,1,79,incongruent,up,up,congruent,Stim/Aincon.png,up,0,0.1,0,5,100,incongruent,right,right,congruent,Stim/Aincon.png,right,0.1,0,-90,8,2000,stimuli\\,,,,,,,,,,,,
,,,,,,,,,,wmj,1,2024-06-28_19h00.57.935,DCT_v1_online,2021.2.3,Win32,59.57345407,,,0.223,2.127,127,up,1,0.9158,right,1,1.005,2.277,0,110,110,38,1,39,congruent,down,up,incongruent,Stim/Acon.png,up,0,-0.1,0,3,100,congruent,right,right,congruent,Stim/Acon.png,right,0.1,0,-90,4,2000,stimuli\\,,,,,,,,,,,,
,,,,,,,,,,wmj,1,2024-06-28_19h00.57.935,DCT_v1_online,2021.2.3,Win32,59.57345407,,,0.027,2.323,128,,0,,,0,,,0,111,111,114,1,115,incongruent,down,down,congruent,Stim/Aincon.png,down,0,-0.1,180,8,100,congruent,left,right,incongruent,Stim/Acon.png,right,-0.1,0,-90,2,2000,stimuli\\,,,,,,,,,,,,
,,,,,,,,,,wmj,1,2024-06-28_19h00.57.935,DCT_v1_online,2021.2.3,Win32,59.57345407,,,0.457,2.793,129,up,1,0.7876,right,1,0.8093,2.043,0,112,112,79,1,80,incongruent,up,up,congruent,Stim/Aincon.png,up,0,0.1,0,5,1000,incongruent,right,right,congruent,Stim/Aincon.png,right,0.1,0,-90,8,2000,stimuli\\,,,,,,,,,,,,
,,,,,,,,,,wmj,1,2024-06-28_19h00.57.935,DCT_v1_online,2021.2.3,Win32,59.57345407,,,0.261,2.089,130,down,1,0.8032,right,1,0.9003,2.239,0,113,113,54,1,55,congruent,down,down,congruent,Stim/Acon.png,down,0,-0.1,180,4,100,congruent,right,right,congruent,Stim/Acon.png,right,0.1,0,-90,4,2000,stimuli\\,,,,,,,,,,,,
,,,,,,,,,,wmj,1,2024-06-28_19h00.57.935,DCT_v1_online,2021.2.3,Win32,59.57345407,,,0.173,2.177,131,down,1,0.9014,left,1,1.149,2.327,0,114,114,28,1,29,congruent,up,down,incongruent,Stim/Acon.png,down,0,0.1,180,2,100,incongruent,right,left,incongruent,Stim/Aincon.png,left,0.1,0,90,7,2000,stimuli\\,,,,,,,,,,,,
,,,,,,,,,,wmj,1,2024-06-28_19h00.57.935,DCT_v1_online,2021.2.3,Win32,59.57345407,,,0.498,2.752,132,up,1,0.7029,right,1,0.4762,2.002,0,115,115,39,1,40,congruent,down,up,incongruent,Stim/Acon.png,up,0,-0.1,0,3,1000,congruent,right,right,congruent,Stim/Acon.png,right,0.1,0,-90,4,2000,stimuli\\,,,,,,,,,,,,
,,,,,,,,,,wmj,1,2024-06-28_19h00.57.935,DCT_v1_online,2021.2.3,Win32,59.57345407,,,0.245,2.105,133,up,1,0.8832,left,1,1.0921,2.255,0,116,116,40,1,41,congruent,down,up,incongruent,Stim/Acon.png,up,0,-0.1,0,3,100,incongruent,left,left,congruent,Stim/Aincon.png,left,-0.1,0,90,5,2000,stimuli\\,,,,,,,,,,,,
,,,,,,,,,,wmj,1,2024-06-28_19h00.57.935,DCT_v1_online,2021.2.3,Win32,59.57345407,,,0.368,2.882,134,up,1,0.6813,right,1,0.7509,2.132,0,117,117,47,1,48,congruent,down,up,incongruent,Stim/Acon.png,up,0,-0.1,0,3,1000,incongruent,right,right,congruent,Stim/Aincon.png,right,0.1,0,-90,8,2000,stimuli\\,,,,,,,,,,,,
,,,,,,,,,,wmj,1,2024-06-28_19h00.57.935,DCT_v1_online,2021.2.3,Win32,59.57345407,,,0.037,3.213,135,up,1,0.571,right,1,0.5099,2.463,0,118,118,35,1,36,congruent,down,up,incongruent,Stim/Acon.png,up,0,-0.1,0,3,1000,congruent,left,right,incongruent,Stim/Acon.png,right,-0.1,0,-90,2,2000,stimuli\\,,,,,,,,,,,,
,,,,,,,,,,wmj,1,2024-06-28_19h00.57.935,DCT_v1_online,2021.2.3,Win32,59.57345407,,,0.347,2.903,136,up,1,0.5912,right,1,0.7911,2.153,0,119,119,43,1,44,congruent,down,up,incongruent,Stim/Acon.png,up,0,-0.1,0,3,1000,incongruent,left,right,incongruent,Stim/Aincon.png,right,-0.1,0,-90,6,2000,stimuli\\,,,,,,,,,,,,
,,,,,,,,,,wmj,1,2024-06-28_19h00.57.935,DCT_v1_online,2021.2.3,Win32,59.57345407,,,0.195,3.055,137,up,1,0.6678,right,1,0.5166,2.305,0,120,120,7,1,8,congruent,up,up,congruent,Stim/Acon.png,up,0,0.1,0,1,1000,congruent,right,right,congruent,Stim/Acon.png,right,0.1,0,-90,4,2000,stimuli\\,,,,,,,,,,,,
,,,,,,,,,,wmj,1,2024-06-28_19h00.57.935,DCT_v1_online,2021.2.3,Win32,59.57345407,,,0.419,1.931,138,down,1,1.0193,right,1,1.1124,2.081,0,121,121,30,1,31,congruent,up,down,incongruent,Stim/Acon.png,down,0,0.1,180,2,100,incongruent,right,right,congruent,Stim/Aincon.png,right,0.1,0,-90,8,2000,stimuli\\,,,,,,,,,,,,
,,,,,,,,,,wmj,1,2024-06-28_19h00.57.935,DCT_v1_online,2021.2.3,Win32,59.57345407,,,0.157,3.093,139,down,1,0.8112,left,1,0.5577,2.343,0,122,122,81,1,82,incongruent,up,down,incongruent,Stim/Aincon.png,down,0,0.1,180,6,1000,congruent,left,left,congruent,Stim/Acon.png,left,-0.1,0,90,1,2000,stimuli\\,,,,,,,,,,,,
,,,,,,,,,,wmj,1,2024-06-28_19h00.57.935,DCT_v1_online,2021.2.3,Win32,59.57345407,,,0.478,1.872,140,up,1,0.9806,right,1,1.0961,2.022,0,123,123,66,1,67,incongruent,up,up,congruent,Stim/Aincon.png,up,0,0.1,0,5,100,congruent,left,right,incongruent,Stim/Acon.png,right,-0.1,0,-90,2,2000,stimuli\\,,,,,,,,,,,,
,,,,,,,,,,wmj,1,2024-06-28_19h00.57.935,DCT_v1_online,2021.2.3,Win32,59.57345407,,,0.299,2.051,141,up,1,1.1184,right,1,1.2731,2.201,0,124,124,42,1,43,congruent,down,up,incongruent,Stim/Acon.png,up,0,-0.1,0,3,100,incongruent,left,right,incongruent,Stim/Aincon.png,right,-0.1,0,-90,6,2000,stimuli\\,,,,,,,,,,,,
,,,,,,,,,,wmj,1,2024-06-28_19h00.57.935,DCT_v1_online,2021.2.3,Win32,59.57345407,,,0.115,3.135,142,down,1,0.7724,right,1,0.8175,2.385,0,125,125,91,1,92,incongruent,up,down,incongruent,Stim/Aincon.png,down,0,0.1,180,6,1000,incongruent,left,right,incongruent,Stim/Aincon.png,right,-0.1,0,-90,6,2000,stimuli\\,,,,,,,,,,,,
,,,,,,,,,,wmj,1,2024-06-28_19h00.57.935,DCT_v1_online,2021.2.3,Win32,59.57345407,,,0.186,3.064,143,down,1,0.5509,left,1,0.4911,2.314,0,126,126,17,1,18,congruent,up,down,incongruent,Stim/Acon.png,down,0,0.1,180,2,1000,congruent,left,left,congruent,Stim/Acon.png,left,-0.1,0,90,1,2000,stimuli\\,,,,,,,,,,,,
,,,,,,,,,,wmj,1,2024-06-28_19h00.57.935,DCT_v1_online,2021.2.3,Win32,59.57345407,,,0.007,3.243,144,down,1,0.5895,left,1,0.5467,2.493,0,127,127,53,1,54,congruent,down,down,congruent,Stim/Acon.png,down,0,-0.1,180,4,1000,congruent,right,left,incongruent,Stim/Acon.png,left,0.1,0,90,3,2000,stimuli\\,,,,,,,,,,,,
,,,,,,,,,,wmj,1,2024-06-28_19h00.57.935,DCT_v1_online,2021.2.3,Win32,59.57345407,,,,,,,,,,,,,,,,,,,,,,,,,,,,,,,,,,,,,,,,,,space,42.1548,0,1,1,1,1,Instructions/i5.png,test,conditions/block1.xlsx,1.2,0.8
,,,,,,,,,,wmj,1,2024-06-28_19h00.57.935,DCT_v1_online,2021.2.3,Win32,59.57345407,space,2.7921,0.386,2.864,145,down,1,0.8652,left,1,0.6716,2.114,0,0,0,121,1,122,incongruent,down,down,congruent,Stim/Aincon.png,down,0,-0.1,180,8,1000,incongruent,left,left,congruent,Stim/Aincon.png,left,-0.1,0,90,5,2000,stimuli\\,,,,,,,,,,,,
,,,,,,,,,,wmj,1,2024-06-28_19h00.57.935,DCT_v1_online,2021.2.3,Win32,59.57345407,,,0.021,2.329,146,down,1,0.8854,left,1,1.0226,2.479,0,1,1,116,1,117,incongruent,down,down,congruent,Stim/Aincon.png,down,0,-0.1,180,8,100,congruent,right,left,incongruent,Stim/Acon.png,left,0.1,0,90,3,2000,stimuli\\,,,,,,,,,,,,
,,,,,,,,,,wmj,1,2024-06-28_19h00.57.935,DCT_v1_online,2021.2.3,Win32,59.57345407,,,0.156,2.194,147,down,1,0.9572,left,1,1.0368,2.344,0,2,2,84,1,85,incongruent,up,down,incongruent,Stim/Aincon.png,down,0,0.1,180,6,100,congruent,right,left,incongruent,Stim/Acon.png,left,0.1,0,90,3,2000,stimuli\\,,,,,,,,,,,,
,,,,,,,,,,wmj,1,2024-06-28_19h00.57.935,DCT_v1_online,2021.2.3,Win32,59.57345407,,,0.383,2.867,148,down,1,0.6419,left,1,0.6287,2.117,0,3,3,61,1,62,congruent,down,down,congruent,Stim/Acon.png,down,0,-0.1,180,4,1000,incongruent,right,left,incongruent,Stim/Aincon.png,left,0.1,0,90,7,2000,stimuli\\,,,,,,,,,,,,
,,,,,,,,,,wmj,1,2024-06-28_19h00.57.935,DCT_v1_online,2021.2.3,Win32,59.57345407,,,0.058,2.292,149,up,1,0.8679,left,1,0.9744,2.442,0,4,4,32,1,33,congruent,down,up,incongruent,Stim/Acon.png,up,0,-0.1,0,3,100,congruent,left,left,congruent,Stim/Acon.png,left,-0.1,0,90,1,2000,stimuli\\,,,,,,,,,,,,
,,,,,,,,,,wmj,1,2024-06-28_19h00.57.935,DCT_v1_online,2021.2.3,Win32,59.57345407,,,0.337,2.013,150,down,1,0.687,right,1,1.0418,2.163,0,5,5,58,1,59,congruent,down,down,congruent,Stim/Acon.png,down,0,-0.1,180,4,100,incongruent,left,right,incongruent,Stim/Aincon.png,right,-0.1,0,-90,6,2000,stimuli\\,,,,,,,,,,,,
,,,,,,,,,,wmj,1,2024-06-28_19h00.57.935,DCT_v1_online,2021.2.3,Win32,59.57345407,,,0.048,2.302,151,down,1,0.8793,left,1,0.9605,2.452,0,6,6,112,1,113,incongruent,down,down,congruent,Stim/Aincon.png,down,0,-0.1,180,8,100,congruent,left,left,congruent,Stim/Acon.png,left,-0.1,0,90,1,2000,stimuli\\,,,,,,,,,,,,
,,,,,,,,,,wmj,1,2024-06-28_19h00.57.935,DCT_v1_online,2021.2.3,Win32,59.57345407,,,0.075,2.275,152,up,1,0.8287,right,1,0.9593,2.425,0,7,7,38,1,39,congruent,down,up,incongruent,Stim/Acon.png,up,0,-0.1,0,3,100,congruent,right,right,congruent,Stim/Acon.png,right,0.1,0,-90,4,2000,stimuli\\,,,,,,,,,,,,
,,,,,,,,,,wmj,1,2024-06-28_19h00.57.935,DCT_v1_online,2021.2.3,Win32,59.57345407,,,0.26,2.99,153,down,0,0.5929,right,1,0.6615,2.24,0,8,8,111,1,112,incongruent,down,up,incongruent,Stim/Aincon.png,up,0,-0.1,0,7,1000,incongruent,right,right,congruent,Stim/Aincon.png,right,0.1,0,-90,8,2000,stimuli\\,,,,,,,,,,,,
,,,,,,,,,,wmj,1,2024-06-28_19h00.57.935,DCT_v1_online,2021.2.3,Win32,59.57345407,,,0.298,2.052,154,up,1,1.0568,right,1,1.1533,2.202,0,9,9,74,1,75,incongruent,up,up,congruent,Stim/Aincon.png,up,0,0.1,0,5,100,incongruent,left,right,incongruent,Stim/Aincon.png,right,-0.1,0,-90,6,2000,stimuli\\,,,,,,,,,,,,
,,,,,,,,,,wmj,1,2024-06-28_19h00.57.935,DCT_v1_online,2021.2.3,Win32,59.57345407,,,0.406,2.844,155,up,1,1.4297,left,1,0.6209,2.094,0,10,10,101,1,102,incongruent,down,up,incongruent,Stim/Aincon.png,up,0,-0.1,0,7,1000,congruent,right,left,incongruent,Stim/Acon.png,left,0.1,0,90,3,2000,stimuli\\,,,,,,,,,,,,
,,,,,,,,,,wmj,1,2024-06-28_19h00.57.935,DCT_v1_online,2021.2.3,Win32,59.57345407,,,0.046,2.304,156,up,1,0.739,right,1,0.8069,2.454,0,11,11,6,1,7,congruent,up,up,congruent,Stim/Acon.png,up,0,0.1,0,1,100,congruent,right,right,congruent,Stim/Acon.png,right,0.1,0,-90,4,2000,stimuli\\,,,,,,,,,,,,
,,,,,,,,,,wmj,1,2024-06-28_19h00.57.935,DCT_v1_online,2021.2.3,Win32,59.57345407,,,0.284,2.066,157,up,1,0.8461,right,1,1.1069,2.216,0,12,12,46,1,47,congruent,down,up,incongruent,Stim/Acon.png,up,0,-0.1,0,3,100,incongruent,right,right,congruent,Stim/Aincon.png,right,0.1,0,-90,8,2000,stimuli\\,,,,,,,,,,,,
,,,,,,,,,,wmj,1,2024-06-28_19h00.57.935,DCT_v1_online,2021.2.3,Win32,59.57345407,,,0.203,2.147,158,up,1,1.1679,right,1,1.2942,2.297,0,13,13,110,1,111,incongruent,down,up,incongruent,Stim/Aincon.png,up,0,-0.1,0,7,100,incongruent,right,right,congruent,Stim/Aincon.png,right,0.1,0,-90,8,2000,stimuli\\,,,,,,,,,,,,
,,,,,,,,,,wmj,1,2024-06-28_19h00.57.935,DCT_v1_online,2021.2.3,Win32,59.57345407,,,0.475,1.875,159,down,1,1.1421,right,1,1.2348,2.025,0,14,14,126,1,127,incongruent,down,down,congruent,Stim/Aincon.png,down,0,-0.1,180,8,100,incongruent,right,right,congruent,Stim/Aincon.png,right,0.1,0,-90,8,2000,stimuli\\,,,,,,,,,,,,
,,,,,,,,,,wmj,1,2024-06-28_19h00.57.935,DCT_v1_online,2021.2.3,Win32,59.57345407,,,0.236,2.114,160,down,1,1.025,left,1,1.1523,2.264,0,15,15,120,1,121,incongruent,down,down,congruent,Stim/Aincon.png,down,0,-0.1,180,8,100,incongruent,left,left,congruent,Stim/Aincon.png,left,-0.1,0,90,5,2000,stimuli\\,,,,,,,,,,,,
,,,,,,,,,,wmj,1,2024-06-28_19h00.57.935,DCT_v1_online,2021.2.3,Win32,59.57345407,,,0.404,2.846,161,up,1,0.9417,right,1,0.6864,2.096,0,16,16,47,1,48,congruent,down,up,incongruent,Stim/Acon.png,up,0,-0.1,0,3,1000,incongruent,right,right,congruent,Stim/Aincon.png,right,0.1,0,-90,8,2000,stimuli\\,,,,,,,,,,,,
,,,,,,,,,,wmj,1,2024-06-28_19h00.57.935,DCT_v1_online,2021.2.3,Win32,59.57345407,,,0.093,3.157,162,up,1,0.9132,right,1,0.5422,2.407,0,17,17,67,1,68,incongruent,up,up,congruent,Stim/Aincon.png,up,0,0.1,0,5,1000,congruent,left,right,incongruent,Stim/Acon.png,right,-0.1,0,-90,2,2000,stimuli\\,,,,,,,,,,,,
,,,,,,,,,,wmj,1,2024-06-28_19h00.57.935,DCT_v1_online,2021.2.3,Win32,59.57345407,,,0.392,1.958,163,up,1,0.7298,left,1,0.9064,2.108,0,18,18,100,1,101,incongruent,down,up,incongruent,Stim/Aincon.png,up,0,-0.1,0,7,100,congruent,right,left,incongruent,Stim/Acon.png,left,0.1,0,90,3,2000,stimuli\\,,,,,,,,,,,,
,,,,,,,,,,wmj,1,2024-06-28_19h00.57.935,DCT_v1_online,2021.2.3,Win32,59.57345407,,,0.244,3.006,164,up,1,0.6941,right,1,0.7113,2.256,0,19,19,43,1,44,congruent,down,up,incongruent,Stim/Acon.png,up,0,-0.1,0,3,1000,incongruent,left,right,incongruent,Stim/Aincon.png,right,-0.1,0,-90,6,2000,stimuli\\,,,,,,,,,,,,
,,,,,,,,,,wmj,1,2024-06-28_19h00.57.935,DCT_v1_online,2021.2.3,Win32,59.57345407,,,0.375,2.875,165,up,1,0.5718,right,1,0.4448,2.125,0,20,20,35,1,36,congruent,down,up,incongruent,Stim/Acon.png,up,0,-0.1,0,3,1000,congruent,left,right,incongruent,Stim/Acon.png,right,-0.1,0,-90,2,2000,stimuli\\,,,,,,,,,,,,
,,,,,,,,,,wmj,1,2024-06-28_19h00.57.935,DCT_v1_online,2021.2.3,Win32,59.57345407,,,0.097,3.153,166,up,1,0.5695,left,1,0.751,2.403,0,21,21,41,1,42,congruent,down,up,incongruent,Stim/Acon.png,up,0,-0.1,0,3,1000,incongruent,left,left,congruent,Stim/Aincon.png,left,-0.1,0,90,5,2000,stimuli\\,,,,,,,,,,,,
,,,,,,,,,,wmj,1,2024-06-28_19h00.57.935,DCT_v1_online,2021.2.3,Win32,59.57345407,,,0.491,2.759,167,up,1,0.6719,left,1,0.7367,2.009,0,22,22,73,1,74,incongruent,up,up,congruent,Stim/Aincon.png,up,0,0.1,0,5,1000,incongruent,left,left,congruent,Stim/Aincon.png,left,-0.1,0,90,5,2000,stimuli\\,,,,,,,,,,,,
,,,,,,,,,,wmj,1,2024-06-28_19h00.57.935,DCT_v1_online,2021.2.3,Win32,59.57345407,,,0.172,3.078,168,down,1,0.7339,right,1,0.6405,2.328,0,23,23,23,1,24,congruent,up,down,incongruent,Stim/Acon.png,down,0,0.1,180,2,1000,congruent,right,right,congruent,Stim/Acon.png,right,0.1,0,-90,4,2000,stimuli\\,,,,,,,,,,,,
,,,,,,,,,,wmj,1,2024-06-28_19h00.57.935,DCT_v1_online,2021.2.3,Win32,59.57345407,,,0.002,3.248,169,up,1,1.002,right,1,0.7221,2.498,0,24,24,79,1,80,incongruent,up,up,congruent,Stim/Aincon.png,up,0,0.1,0,5,1000,incongruent,right,right,congruent,Stim/Aincon.png,right,0.1,0,-90,8,2000,stimuli\\,,,,,,,,,,,,
,,,,,,,,,,wmj,1,2024-06-28_19h00.57.935,DCT_v1_online,2021.2.3,Win32,59.57345407,,,0.11,2.24,170,up,1,1.1016,left,1,1.5671,2.39,0,25,25,40,1,41,congruent,down,up,incongruent,Stim/Acon.png,up,0,-0.1,0,3,100,incongruent,left,left,congruent,Stim/Aincon.png,left,-0.1,0,90,5,2000,stimuli\\,,,,,,,,,,,,
,,,,,,,,,,wmj,1,2024-06-28_19h00.57.935,DCT_v1_online,2021.2.3,Win32,59.57345407,,,0.224,2.126,171,up,1,1.1682,left,1,1.318,2.276,0,26,26,96,1,97,incongruent,down,up,incongruent,Stim/Aincon.png,up,0,-0.1,0,7,100,congruent,left,left,congruent,Stim/Acon.png,left,-0.1,0,90,1,2000,stimuli\\,,,,,,,,,,,,
,,,,,,,,,,wmj,1,2024-06-28_19h00.57.935,DCT_v1_online,2021.2.3,Win32,59.57345407,,,0.359,1.991,172,down,1,0.888,right,1,1.029,2.141,0,27,27,82,1,83,incongruent,up,down,incongruent,Stim/Aincon.png,down,0,0.1,180,6,100,congruent,left,right,incongruent,Stim/Acon.png,right,-0.1,0,-90,2,2000,stimuli\\,,,,,,,,,,,,
,,,,,,,,,,wmj,1,2024-06-28_19h00.57.935,DCT_v1_online,2021.2.3,Win32,59.57345407,,,0.345,2.005,173,down,1,1.0538,left,1,1.2113,2.155,0,28,28,88,1,89,incongruent,up,down,incongruent,Stim/Aincon.png,down,0,0.1,180,6,100,incongruent,left,left,congruent,Stim/Aincon.png,left,-0.1,0,90,5,2000,stimuli\\,,,,,,,,,,,,
,,,,,,,,,,wmj,1,2024-06-28_19h00.57.935,DCT_v1_online,2021.2.3,Win32,59.57345407,,,0.113,3.137,174,up,1,0.716,right,1,0.5268,2.387,0,29,29,71,1,72,incongruent,up,up,congruent,Stim/Aincon.png,up,0,0.1,0,5,1000,congruent,right,right,congruent,Stim/Acon.png,right,0.1,0,-90,4,2000,stimuli\\,,,,,,,,,,,,
,,,,,,,,,,wmj,1,2024-06-28_19h00.57.935,DCT_v1_online,2021.2.3,Win32,59.57345407,,,0.499,2.751,175,up,1,0.918,left,1,0.5144,2.001,0,30,30,97,1,98,incongruent,down,up,incongruent,Stim/Aincon.png,up,0,-0.1,0,7,1000,congruent,left,left,congruent,Stim/Acon.png,left,-0.1,0,90,1,2000,stimuli\\,,,,,,,,,,,,
,,,,,,,,,,wmj,1,2024-06-28_19h00.57.935,DCT_v1_online,2021.2.3,Win32,59.57345407,,,0.439,2.811,176,down,1,0.846,right,1,0.5493,2.061,0,31,31,115,1,116,incongruent,down,down,congruent,Stim/Aincon.png,down,0,-0.1,180,8,1000,congruent,left,right,incongruent,Stim/Acon.png,right,-0.1,0,-90,2,2000,stimuli\\,,,,,,,,,,,,
,,,,,,,,,,wmj,1,2024-06-28_19h00.57.935,DCT_v1_online,2021.2.3,Win32,59.57345407,,,0.026,3.224,177,up,1,0.5704,left,1,0.6339,2.474,0,32,32,9,1,10,congruent,up,up,congruent,Stim/Acon.png,up,0,0.1,0,1,1000,incongruent,left,left,congruent,Stim/Aincon.png,left,-0.1,0,90,5,2000,stimuli\\,,,,,,,,,,,,
,,,,,,,,,,wmj,1,2024-06-28_19h00.57.935,DCT_v1_online,2021.2.3,Win32,59.57345407,,,0.311,2.039,178,up,1,0.8626,right,1,0.9406,2.189,0,33,33,98,1,99,incongruent,down,up,incongruent,Stim/Aincon.png,up,0,-0.1,0,7,100,congruent,left,right,incongruent,Stim/Acon.png,right,-0.1,0,-90,2,2000,stimuli\\,,,,,,,,,,,,
,,,,,,,,,,wmj,1,2024-06-28_19h00.57.935,DCT_v1_online,2021.2.3,Win32,59.57345407,,,0.309,2.941,179,up,1,0.8848,left,1,0.7338,2.191,0,34,34,109,1,110,incongruent,down,up,incongruent,Stim/Aincon.png,up,0,-0.1,0,7,1000,incongruent,right,left,incongruent,Stim/Aincon.png,left,0.1,0,90,7,2000,stimuli\\,,,,,,,,,,,,
,,,,,,,,,,wmj,1,2024-06-28_19h00.57.935,DCT_v1_online,2021.2.3,Win32,59.57345407,,,0.266,2.084,180,up,1,0.7118,left,1,1.0184,2.234,0,35,35,12,1,13,congruent,up,up,congruent,Stim/Acon.png,up,0,0.1,0,1,100,incongruent,right,left,incongruent,Stim/Aincon.png,left,0.1,0,90,7,2000,stimuli\\,,,,,,,,,,,,
,,,,,,,,,,wmj,1,2024-06-28_19h00.57.935,DCT_v1_online,2021.2.3,Win32,59.57345407,,,0.251,2.999,181,down,1,0.7102,left,1,0.5383,2.249,0,36,36,17,1,18,congruent,up,down,incongruent,Stim/Acon.png,down,0,0.1,180,2,1000,congruent,left,left,congruent,Stim/Acon.png,left,-0.1,0,90,1,2000,stimuli\\,,,,,,,,,,,,
,,,,,,,,,,wmj,1,2024-06-28_19h00.57.935,DCT_v1_online,2021.2.3,Win32,59.57345407,,,0.496,1.854,182,up,1,1.0357,left,1,1.2046,2.004,0,37,37,108,1,109,incongruent,down,up,incongruent,Stim/Aincon.png,up,0,-0.1,0,7,100,incongruent,right,left,incongruent,Stim/Aincon.png,left,0.1,0,90,7,2000,stimuli\\,,,,,,,,,,,,
,,,,,,,,,,wmj,1,2024-06-28_19h00.57.935,DCT_v1_online,2021.2.3,Win32,59.57345407,,,0.29,2.96,183,down,1,0.828,left,1,0.6922,2.21,0,38,38,125,1,126,incongruent,down,down,congruent,Stim/Aincon.png,down,0,-0.1,180,8,1000,incongruent,right,left,incongruent,Stim/Aincon.png,left,0.1,0,90,7,2000,stimuli\\,,,,,,,,,,,,
,,,,,,,,,,wmj,1,2024-06-28_19h00.57.935,DCT_v1_online,2021.2.3,Win32,59.57345407,,,0.044,2.306,184,up,1,0.9077,left,1,1.0251,2.456,0,39,39,76,1,77,incongruent,up,up,congruent,Stim/Aincon.png,up,0,0.1,0,5,100,incongruent,right,left,incongruent,Stim/Aincon.png,left,0.1,0,90,7,2000,stimuli\\,,,,,,,,,,,,
,,,,,,,,,,wmj,1,2024-06-28_19h00.57.935,DCT_v1_online,2021.2.3,Win32,59.57345407,,,0.367,1.983,185,up,1,0.9172,right,1,1.1239,2.133,0,40,40,42,1,43,congruent,down,up,incongruent,Stim/Acon.png,up,0,-0.1,0,3,100,incongruent,left,right,incongruent,Stim/Aincon.png,right,-0.1,0,-90,6,2000,stimuli\\,,,,,,,,,,,,
,,,,,,,,,,wmj,1,2024-06-28_19h00.57.935,DCT_v1_online,2021.2.3,Win32,59.57345407,,,0.3,2.05,186,down,1,1.1289,left,1,1.2045,2.2,0,41,41,28,1,29,congruent,up,down,incongruent,Stim/Acon.png,down,0,0.1,180,2,100,incongruent,right,left,incongruent,Stim/Aincon.png,left,0.1,0,90,7,2000,stimuli\\,,,,,,,,,,,,
,,,,,,,,,,wmj,1,2024-06-28_19h00.57.935,DCT_v1_online,2021.2.3,Win32,59.57345407,,,0.095,3.155,187,down,1,0.901,left,1,0.6173,2.405,0,42,42,81,1,82,incongruent,up,down,incongruent,Stim/Aincon.png,down,0,0.1,180,6,1000,congruent,left,left,congruent,Stim/Acon.png,left,-0.1,0,90,1,2000,stimuli\\,,,,,,,,,,,,
,,,,,,,,,,wmj,1,2024-06-28_19h00.57.935,DCT_v1_online,2021.2.3,Win32,59.57345407,,,0.442,1.908,188,up,1,1.0585,left,1,1.1704,2.058,0,43,43,8,1,9,congruent,up,up,congruent,Stim/Acon.png,up,0,0.1,0,1,100,incongruent,left,left,congruent,Stim/Aincon.png,left,-0.1,0,90,5,2000,stimuli\\,,,,,,,,,,,,
,,,,,,,,,,wmj,1,2024-06-28_19h00.57.935,DCT_v1_online,2021.2.3,Win32,59.57345407,,,0.015,3.235,189,up,1,0.666,right,1,0.7179,2.485,0,44,44,15,1,16,congruent,up,up,congruent,Stim/Acon.png,up,0,0.1,0,1,1000,incongruent,right,right,congruent,Stim/Aincon.png,right,0.1,0,-90,8,2000,stimuli\\,,,,,,,,,,,,
,,,,,,,,,,wmj,1,2024-06-28_19h00.57.935,DCT_v1_online,2021.2.3,Win32,59.57345407,,,0.285,2.965,190,down,1,0.5478,right,1,0.5295,2.215,0,45,45,51,1,52,congruent,down,down,congruent,Stim/Acon.png,down,0,-0.1,180,4,1000,congruent,left,right,incongruent,Stim/Acon.png,right,-0.1,0,-90,2,2000,stimuli\\,,,,,,,,,,,,
,,,,,,,,,,wmj,1,2024-06-28_19h00.57.935,DCT_v1_online,2021.2.3,Win32,59.57345407,,,0.045,2.305,191,up,1,0.9474,right,1,1.0323,2.455,0,46,46,34,1,35,congruent,down,up,incongruent,Stim/Acon.png,up,0,-0.1,0,3,100,congruent,left,right,incongruent,Stim/Acon.png,right,-0.1,0,-90,2,2000,stimuli\\,,,,,,,,,,,,
,,,,,,,,,,wmj,1,2024-06-28_19h00.57.935,DCT_v1_online,2021.2.3,Win32,59.57345407,,,0.431,2.819,192,up,1,0.5689,left,1,0.6602,2.069,0,47,47,1,1,2,congruent,up,up,congruent,Stim/Acon.png,up,0,0.1,0,1,1000,congruent,left,left,congruent,Stim/Acon.png,left,-0.1,0,90,1,2000,stimuli\\,,,,,,,,,,,,
,,,,,,,,,,wmj,1,2024-06-28_19h00.57.935,DCT_v1_online,2021.2.3,Win32,59.57345407,,,0.138,3.112,193,up,1,0.7964,left,1,0.7075,2.362,0,48,48,77,1,78,incongruent,up,up,congruent,Stim/Aincon.png,up,0,0.1,0,5,1000,incongruent,right,left,incongruent,Stim/Aincon.png,left,0.1,0,90,7,2000,stimuli\\,,,,,,,,,,,,
,,,,,,,,,,wmj,1,2024-06-28_19h00.57.935,DCT_v1_online,2021.2.3,Win32,59.57345407,,,0.067,2.283,194,down,1,0.8965,right,1,0.9769,2.433,0,49,49,54,1,55,congruent,down,down,congruent,Stim/Acon.png,down,0,-0.1,180,4,100,congruent,right,right,congruent,Stim/Acon.png,right,0.1,0,-90,4,2000,stimuli\\,,,,,,,,,,,,
,,,,,,,,,,wmj,1,2024-06-28_19h00.57.935,DCT_v1_online,2021.2.3,Win32,59.57345407,,,0.019,3.231,195,down,1,0.6461,left,1,0.4707,2.481,0,50,50,53,1,54,congruent,down,down,congruent,Stim/Acon.png,down,0,-0.1,180,4,1000,congruent,right,left,incongruent,Stim/Acon.png,left,0.1,0,90,3,2000,stimuli\\,,,,,,,,,,,,
,,,,,,,,,,wmj,1,2024-06-28_19h00.57.935,DCT_v1_online,2021.2.3,Win32,59.57345407,,,0.28,2.07,196,up,1,0.7976,left,1,0.9184,2.22,0,51,51,4,1,5,congruent,up,up,congruent,Stim/Acon.png,up,0,0.1,0,1,100,congruent,right,left,incongruent,Stim/Acon.png,left,0.1,0,90,3,2000,stimuli\\,,,,,,,,,,,,
,,,,,,,,,,wmj,1,2024-06-28_19h00.57.935,DCT_v1_online,2021.2.3,Win32,59.57345407,,,0.305,2.945,197,down,1,0.8897,left,1,0.6162,2.195,0,52,52,93,1,94,incongruent,up,down,incongruent,Stim/Aincon.png,down,0,0.1,180,6,1000,incongruent,right,left,incongruent,Stim/Aincon.png,left,0.1,0,90,7,2000,stimuli\\,,,,,,,,,,,,
,,,,,,,,,,wmj,1,2024-06-28_19h00.57.935,DCT_v1_online,2021.2.3,Win32,59.57345407,,,0.012,2.338,198,down,1,0.6703,right,1,0.7556,2.488,0,53,53,22,1,23,congruent,up,down,incongruent,Stim/Acon.png,down,0,0.1,180,2,100,congruent,right,right,congruent,Stim/Acon.png,right,0.1,0,-90,4,2000,stimuli\\,,,,,,,,,,,,
,,,,,,,,,,wmj,1,2024-06-28_19h00.57.935,DCT_v1_online,2021.2.3,Win32,59.57345407,,,0.176,3.074,199,up,1,0.7186,left,1,0.4175,2.324,0,54,54,5,1,6,congruent,up,up,congruent,Stim/Acon.png,up,0,0.1,0,1,1000,congruent,right,left,incongruent,Stim/Acon.png,left,0.1,0,90,3,2000,stimuli\\,,,,,,,,,,,,
,,,,,,,,,,wmj,1,2024-06-28_19h00.57.935,DCT_v1_online,2021.2.3,Win32,59.57345407,,,0.072,2.278,200,up,1,0.7425,right,1,0.8378,2.428,0,55,55,2,1,3,congruent,up,up,congruent,Stim/Acon.png,up,0,0.1,0,1,100,congruent,left,right,incongruent,Stim/Acon.png,right,-0.1,0,-90,2,2000,stimuli\\,,,,,,,,,,,,
,,,,,,,,,,wmj,1,2024-06-28_19h00.57.935,DCT_v1_online,2021.2.3,Win32,59.57345407,,,0.042,2.308,201,down,1,0.9765,right,1,1.0998,2.458,0,56,56,94,1,95,incongruent,up,down,incongruent,Stim/Aincon.png,down,0,0.1,180,6,100,incongruent,right,right,congruent,Stim/Aincon.png,right,0.1,0,-90,8,2000,stimuli\\,,,,,,,,,,,,
,,,,,,,,,,wmj,1,2024-06-28_19h00.57.935,DCT_v1_online,2021.2.3,Win32,59.57345407,,,0.026,2.324,202,down,1,0.7635,left,1,0.9452,2.474,0,57,57,124,1,125,incongruent,down,down,congruent,Stim/Aincon.png,down,0,-0.1,180,8,100,incongruent,right,left,incongruent,Stim/Aincon.png,left,0.1,0,90,7,2000,stimuli\\,,,,,,,,,,,,
,,,,,,,,,,wmj,1,2024-06-28_19h00.57.935,DCT_v1_online,2021.2.3,Win32,59.57345407,,,0.218,3.032,203,down,1,0.5748,right,1,0.7168,2.282,0,58,58,63,1,64,congruent,down,down,congruent,Stim/Acon.png,down,0,-0.1,180,4,1000,incongruent,right,right,congruent,Stim/Aincon.png,right,0.1,0,-90,8,2000,stimuli\\,,,,,,,,,,,,
,,,,,,,,,,wmj,1,2024-06-28_19h00.57.935,DCT_v1_online,2021.2.3,Win32,59.57345407,,,0.346,2.904,204,down,1,0.4995,right,1,0.76,2.154,0,59,59,59,1,60,congruent,down,down,congruent,Stim/Acon.png,down,0,-0.1,180,4,1000,incongruent,left,right,incongruent,Stim/Aincon.png,right,-0.1,0,-90,6,2000,stimuli\\,,,,,,,,,,,,
,,,,,,,,,,wmj,1,2024-06-28_19h00.57.935,DCT_v1_online,2021.2.3,Win32,59.57345407,,,0.304,2.946,205,up,1,0.8435,right,1,0.6012,2.196,0,60,60,103,1,104,incongruent,down,up,incongruent,Stim/Aincon.png,up,0,-0.1,0,7,1000,congruent,right,right,congruent,Stim/Acon.png,right,0.1,0,-90,4,2000,stimuli\\,,,,,,,,,,,,
,,,,,,,,,,wmj,1,2024-06-28_19h00.57.935,DCT_v1_online,2021.2.3,Win32,59.57345407,,,0.241,3.009,206,down,1,0.7226,right,1,0.5753,2.259,0,61,61,83,1,84,incongruent,up,down,incongruent,Stim/Aincon.png,down,0,0.1,180,6,1000,congruent,left,right,incongruent,Stim/Acon.png,right,-0.1,0,-90,2,2000,stimuli\\,,,,,,,,,,,,
,,,,,,,,,,wmj,1,2024-06-28_19h00.57.935,DCT_v1_online,2021.2.3,Win32,59.57345407,,,0.126,2.224,207,down,1,0.8378,left,1,0.9809,2.374,0,62,62,52,1,53,congruent,down,down,congruent,Stim/Acon.png,down,0,-0.1,180,4,100,congruent,right,left,incongruent,Stim/Acon.png,left,0.1,0,90,3,2000,stimuli\\,,,,,,,,,,,,
,,,,,,,,,,wmj,1,2024-06-28_19h00.57.935,DCT_v1_online,2021.2.3,Win32,59.57345407,,,0.168,3.082,208,up,1,1.0382,left,1,0.5304,2.332,0,63,63,69,1,70,incongruent,up,up,congruent,Stim/Aincon.png,up,0,0.1,0,5,1000,congruent,right,left,incongruent,Stim/Acon.png,left,0.1,0,90,3,2000,stimuli\\,,,,,,,,,,,,
,,,,,,,,,,wmj,1,2024-06-28_19h00.57.935,DCT_v1_online,2021.2.3,Win32,59.57345407,,,0.432,2.818,209,up,1,0.7265,left,1,0.5002,2.068,0,64,64,65,1,66,incongruent,up,up,congruent,Stim/Aincon.png,up,0,0.1,0,5,1000,congruent,left,left,congruent,Stim/Acon.png,left,-0.1,0,90,1,2000,stimuli\\,,,,,,,,,,,,
,,,,,,,,,,wmj,1,2024-06-28_19h00.57.935,DCT_v1_online,2021.2.3,Win32,59.57345407,,,0.441,1.909,210,down,1,0.6274,left,1,0.757,2.059,0,65,65,48,1,49,congruent,down,down,congruent,Stim/Acon.png,down,0,-0.1,180,4,100,congruent,left,left,congruent,Stim/Acon.png,left,-0.1,0,90,1,2000,stimuli\\,,,,,,,,,,,,
,,,,,,,,,,wmj,1,2024-06-28_19h00.57.935,DCT_v1_online,2021.2.3,Win32,59.57345407,,,0.451,2.799,211,up,1,0.5431,right,1,0.4513,2.049,0,66,66,7,1,8,congruent,up,up,congruent,Stim/Acon.png,up,0,0.1,0,1,1000,congruent,right,right,congruent,Stim/Acon.png,right,0.1,0,-90,4,2000,stimuli\\,,,,,,,,,,,,
,,,,,,,,,,wmj,1,2024-06-28_19h00.57.935,DCT_v1_online,2021.2.3,Win32,59.57345407,,,0.141,3.109,212,down,0,0.4378,right,1,0.5009,2.359,0,67,67,99,1,100,incongruent,down,up,incongruent,Stim/Aincon.png,up,0,-0.1,0,7,1000,congruent,left,right,incongruent,Stim/Acon.png,right,-0.1,0,-90,2,2000,stimuli\\,,,,,,,,,,,,
,,,,,,,,,,wmj,1,2024-06-28_19h00.57.935,DCT_v1_online,2021.2.3,Win32,59.57345407,,,0.255,2.095,213,up,1,0.7861,left,1,0.8965,2.245,0,68,68,36,1,37,congruent,down,up,incongruent,Stim/Acon.png,up,0,-0.1,0,3,100,congruent,right,left,incongruent,Stim/Acon.png,left,0.1,0,90,3,2000,stimuli\\,,,,,,,,,,,,
,,,,,,,,,,wmj,1,2024-06-28_19h00.57.935,DCT_v1_online,2021.2.3,Win32,59.57345407,,,0.03,2.32,214,down,1,0.8836,right,1,0.9847,2.47,0,69,69,114,1,115,incongruent,down,down,congruent,Stim/Aincon.png,down,0,-0.1,180,8,100,congruent,left,right,incongruent,Stim/Acon.png,right,-0.1,0,-90,2,2000,stimuli\\,,,,,,,,,,,,
,,,,,,,,,,wmj,1,2024-06-28_19h00.57.935,DCT_v1_online,2021.2.3,Win32,59.57345407,,,0.459,2.791,215,up,1,0.636,right,1,0.4978,2.041,0,70,70,39,1,40,congruent,down,up,incongruent,Stim/Acon.png,up,0,-0.1,0,3,1000,congruent,right,right,congruent,Stim/Acon.png,right,0.1,0,-90,4,2000,stimuli\\,,,,,,,,,,,,
,,,,,,,,,,wmj,1,2024-06-28_19h00.57.935,DCT_v1_online,2021.2.3,Win32,59.57345407,,,0.419,2.831,216,up,1,0.6083,left,1,0.4173,2.081,0,71,71,33,1,34,congruent,down,up,incongruent,Stim/Acon.png,up,0,-0.1,0,3,1000,congruent,left,left,congruent,Stim/Acon.png,left,-0.1,0,90,1,2000,stimuli\\,,,,,,,,,,,,
,,,,,,,,,,wmj,1,2024-06-28_19h00.57.935,DCT_v1_online,2021.2.3,Win32,59.57345407,,,0.212,2.138,217,down,1,0.9173,right,1,1.0014,2.288,0,72,72,118,1,119,incongruent,down,down,congruent,Stim/Aincon.png,down,0,-0.1,180,8,100,congruent,right,right,congruent,Stim/Acon.png,right,0.1,0,-90,4,2000,stimuli\\,,,,,,,,,,,,
,,,,,,,,,,wmj,1,2024-06-28_19h00.57.935,DCT_v1_online,2021.2.3,Win32,59.57345407,,,0.468,1.882,218,down,1,0.639,left,0,0.7624,2.032,0,73,73,26,1,27,congruent,up,down,incongruent,Stim/Acon.png,down,0,0.1,180,2,100,incongruent,left,right,incongruent,Stim/Aincon.png,right,-0.1,0,-90,6,2000,stimuli\\,,,,,,,,,,,,
,,,,,,,,,,wmj,1,2024-06-28_19h00.57.935,DCT_v1_online,2021.2.3,Win32,59.57345407,,,0.285,2.065,219,up,1,0.9338,left,1,1.0134,2.215,0,74,74,0,1,1,congruent,up,up,congruent,Stim/Acon.png,up,0,0.1,0,1,100,congruent,left,left,congruent,Stim/Acon.png,left,-0.1,0,90,1,2000,stimuli\\,,,,,,,,,,,,
,,,,,,,,,,wmj,1,2024-06-28_19h00.57.935,DCT_v1_online,2021.2.3,Win32,59.57345407,,,0.404,1.946,220,up,1,1.0025,right,1,1.0708,2.096,0,75,75,102,1,103,incongruent,down,up,incongruent,Stim/Aincon.png,up,0,-0.1,0,7,100,congruent,right,right,congruent,Stim/Acon.png,right,0.1,0,-90,4,2000,stimuli\\,,,,,,,,,,,,
,,,,,,,,,,wmj,1,2024-06-28_19h00.57.935,DCT_v1_online,2021.2.3,Win32,59.57345407,,,0.32,2.93,221,down,1,0.6709,right,1,0.6762,2.18,0,76,76,95,1,96,incongruent,up,down,incongruent,Stim/Aincon.png,down,0,0.1,180,6,1000,incongruent,right,right,congruent,Stim/Aincon.png,right,0.1,0,-90,8,2000,stimuli\\,,,,,,,,,,,,
,,,,,,,,,,wmj,1,2024-06-28_19h00.57.935,DCT_v1_online,2021.2.3,Win32,59.57345407,,,0.107,3.143,222,down,1,0.7124,right,1,0.4785,2.393,0,77,77,87,1,88,incongruent,up,down,incongruent,Stim/Aincon.png,down,0,0.1,180,6,1000,congruent,right,right,congruent,Stim/Acon.png,right,0.1,0,-90,4,2000,stimuli\\,,,,,,,,,,,,
,,,,,,,,,,wmj,1,2024-06-28_19h00.57.935,DCT_v1_online,2021.2.3,Win32,59.57345407,,,0.3,2.95,223,up,1,0.6949,left,1,0.5279,2.2,0,78,78,37,1,38,congruent,down,up,incongruent,Stim/Acon.png,up,0,-0.1,0,3,1000,congruent,right,left,incongruent,Stim/Acon.png,left,0.1,0,90,3,2000,stimuli\\,,,,,,,,,,,,
,,,,,,,,,,wmj,1,2024-06-28_19h00.57.935,DCT_v1_online,2021.2.3,Win32,59.57345407,,,0.267,2.083,224,down,1,0.7758,left,1,1.0124,2.233,0,79,79,24,1,25,congruent,up,down,incongruent,Stim/Acon.png,down,0,0.1,180,2,100,incongruent,left,left,congruent,Stim/Aincon.png,left,-0.1,0,90,5,2000,stimuli\\,,,,,,,,,,,,
,,,,,,,,,,wmj,1,2024-06-28_19h00.57.935,DCT_v1_online,2021.2.3,Win32,59.57345407,,,0.224,2.126,225,down,1,1.2876,left,1,1.3877,2.276,0,80,80,56,1,57,congruent,down,down,congruent,Stim/Acon.png,down,0,-0.1,180,4,100,incongruent,left,left,congruent,Stim/Aincon.png,left,-0.1,0,90,5,2000,stimuli\\,,,,,,,,,,,,
,,,,,,,,,,wmj,1,2024-06-28_19h00.57.935,DCT_v1_online,2021.2.3,Win32,59.57345407,,,0.122,2.228,226,up,1,0.9728,left,1,1.1792,2.378,0,81,81,44,1,45,congruent,down,up,incongruent,Stim/Acon.png,up,0,-0.1,0,3,100,incongruent,right,left,incongruent,Stim/Aincon.png,left,0.1,0,90,7,2000,stimuli\\,,,,,,,,,,,,
,,,,,,,,,,wmj,1,2024-06-28_19h00.57.935,DCT_v1_online,2021.2.3,Win32,59.57345407,,,0.216,2.134,227,down,1,0.7353,left,1,0.8461,2.284,0,82,82,20,1,21,congruent,up,down,incongruent,Stim/Acon.png,down,0,0.1,180,2,100,congruent,right,left,incongruent,Stim/Acon.png,left,0.1,0,90,3,2000,stimuli\\,,,,,,,,,,,,
,,,,,,,,,,wmj,1,2024-06-28_19h00.57.935,DCT_v1_online,2021.2.3,Win32,59.57345407,,,0.13,3.12,228,down,1,0.6896,right,1,0.7792,2.37,0,83,83,123,1,124,incongruent,down,down,congruent,Stim/Aincon.png,down,0,-0.1,180,8,1000,incongruent,left,right,incongruent,Stim/Aincon.png,right,-0.1,0,-90,6,2000,stimuli\\,,,,,,,,,,,,
,,,,,,,,,,wmj,1,2024-06-28_19h00.57.935,DCT_v1_online,2021.2.3,Win32,59.57345407,,,0.207,3.043,229,down,1,0.6227,right,1,0.7605,2.293,0,84,84,91,1,92,incongruent,up,down,incongruent,Stim/Aincon.png,down,0,0.1,180,6,1000,incongruent,left,right,incongruent,Stim/Aincon.png,right,-0.1,0,-90,6,2000,stimuli\\,,,,,,,,,,,,
,,,,,,,,,,wmj,1,2024-06-28_19h00.57.935,DCT_v1_online,2021.2.3,Win32,59.57345407,,,0.173,2.177,230,down,1,0.8513,right,1,0.9882,2.327,0,85,85,86,1,87,incongruent,up,down,incongruent,Stim/Aincon.png,down,0,0.1,180,6,100,congruent,right,right,congruent,Stim/Acon.png,right,0.1,0,-90,4,2000,stimuli\\,,,,,,,,,,,,
,,,,,,,,,,wmj,1,2024-06-28_19h00.57.935,DCT_v1_online,2021.2.3,Win32,59.57345407,,,0.497,2.753,231,up,1,0.6045,right,1,0.7599,2.003,0,86,86,11,1,12,congruent,up,up,congruent,Stim/Acon.png,up,0,0.1,0,1,1000,incongruent,left,right,incongruent,Stim/Aincon.png,right,-0.1,0,-90,6,2000,stimuli\\,,,,,,,,,,,,
,,,,,,,,,,wmj,1,2024-06-28_19h00.57.935,DCT_v1_online,2021.2.3,Win32,59.57345407,,,0.307,2.943,232,down,1,0.6422,right,1,0.5582,2.193,0,87,87,55,1,56,congruent,down,down,congruent,Stim/Acon.png,down,0,-0.1,180,4,1000,congruent,right,right,congruent,Stim/Acon.png,right,0.1,0,-90,4,2000,stimuli\\,,,,,,,,,,,,
,,,,,,,,,,wmj,1,2024-06-28_19h00.57.935,DCT_v1_online,2021.2.3,Win32,59.57345407,,,0.174,2.176,233,up,1,0.9726,left,1,1.0859,2.326,0,88,88,72,1,73,incongruent,up,up,congruent,Stim/Aincon.png,up,0,0.1,0,5,100,incongruent,left,left,congruent,Stim/Aincon.png,left,-0.1,0,90,5,2000,stimuli\\,,,,,,,,,,,,
,,,,,,,,,,wmj,1,2024-06-28_19h00.57.935,DCT_v1_online,2021.2.3,Win32,59.57345407,,,0.368,1.982,234,down,1,1.0744,left,1,1.1823,2.132,0,89,89,80,1,81,incongruent,up,down,incongruent,Stim/Aincon.png,down,0,0.1,180,6,100,congruent,left,left,congruent,Stim/Acon.png,left,-0.1,0,90,1,2000,stimuli\\,,,,,,,,,,,,
,,,,,,,,,,wmj,1,2024-06-28_19h00.57.935,DCT_v1_online,2021.2.3,Win32,59.57345407,,,0.322,2.028,235,down,1,0.8025,right,1,1.027,2.178,0,90,90,62,1,63,congruent,down,down,congruent,Stim/Acon.png,down,0,-0.1,180,4,100,incongruent,right,right,congruent,Stim/Aincon.png,right,0.1,0,-90,8,2000,stimuli\\,,,,,,,,,,,,
,,,,,,,,,,wmj,1,2024-06-28_19h00.57.935,DCT_v1_online,2021.2.3,Win32,59.57345407,,,0.221,3.029,236,down,1,0.6173,left,1,0.7176,2.279,0,91,91,89,1,90,incongruent,up,down,incongruent,Stim/Aincon.png,down,0,0.1,180,6,1000,incongruent,left,left,congruent,Stim/Aincon.png,left,-0.1,0,90,5,2000,stimuli\\,,,,,,,,,,,,
,,,,,,,,,,wmj,1,2024-06-28_19h00.57.935,DCT_v1_online,2021.2.3,Win32,59.57345407,,,0.323,2.927,237,down,1,0.6096,right,1,0.7294,2.177,0,92,92,31,1,32,congruent,up,down,incongruent,Stim/Acon.png,down,0,0.1,180,2,1000,incongruent,right,right,congruent,Stim/Aincon.png,right,0.1,0,-90,8,2000,stimuli\\,,,,,,,,,,,,
,,,,,,,,,,wmj,1,2024-06-28_19h00.57.935,DCT_v1_online,2021.2.3,Win32,59.57345407,,,0.308,2.042,238,up,1,1.3735,right,1,1.432,2.192,0,93,93,78,1,79,incongruent,up,up,congruent,Stim/Aincon.png,up,0,0.1,0,5,100,incongruent,right,right,congruent,Stim/Aincon.png,right,0.1,0,-90,8,2000,stimuli\\,,,,,,,,,,,,
,,,,,,,,,,wmj,1,2024-06-28_19h00.57.935,DCT_v1_online,2021.2.3,Win32,59.57345407,,,0.461,2.789,239,down,1,0.9201,left,1,0.5345,2.039,0,94,94,117,1,118,incongruent,down,down,congruent,Stim/Aincon.png,down,0,-0.1,180,8,1000,congruent,right,left,incongruent,Stim/Acon.png,left,0.1,0,90,3,2000,stimuli\\,,,,,,,,,,,,
,,,,,,,,,,wmj,1,2024-06-28_19h00.57.935,DCT_v1_online,2021.2.3,Win32,59.57345407,,,0.064,2.286,240,down,1,0.835,right,1,0.9235,2.436,0,95,95,18,1,19,congruent,up,down,incongruent,Stim/Acon.png,down,0,0.1,180,2,100,congruent,left,right,incongruent,Stim/Acon.png,right,-0.1,0,-90,2,2000,stimuli\\,,,,,,,,,,,,
,,,,,,,,,,wmj,1,2024-06-28_19h00.57.935,DCT_v1_online,2021.2.3,Win32,59.57345407,,,0.403,1.947,241,up,1,1.3682,right,1,1.4677,2.097,0,96,96,106,1,107,incongruent,down,up,incongruent,Stim/Aincon.png,up,0,-0.1,0,7,100,incongruent,left,right,incongruent,Stim/Aincon.png,right,-0.1,0,-90,6,2000,stimuli\\,,,,,,,,,,,,
,,,,,,,,,,wmj,1,2024-06-28_19h00.57.935,DCT_v1_online,2021.2.3,Win32,59.57345407,,,0.208,3.042,242,up,1,0.906,left,1,0.933,2.292,0,97,97,45,1,46,congruent,down,up,incongruent,Stim/Acon.png,up,0,-0.1,0,3,1000,incongruent,right,left,incongruent,Stim/Aincon.png,left,0.1,0,90,7,2000,stimuli\\,,,,,,,,,,,,
,,,,,,,,,,wmj,1,2024-06-28_19h00.57.935,DCT_v1_online,2021.2.3,Win32,59.57345407,,,0.468,2.782,243,down,1,0.7165,left,1,0.722,2.032,0,98,98,85,1,86,incongruent,up,down,incongruent,Stim/Aincon.png,down,0,0.1,180,6,1000,congruent,right,left,incongruent,Stim/Acon.png,left,0.1,0,90,3,2000,stimuli\\,,,,,,,,,,,,
,,,,,,,,,,wmj,1,2024-06-28_19h00.57.935,DCT_v1_online,2021.2.3,Win32,59.57345407,,,0.217,3.033,244,up,1,1.0529,left,1,0.9288,2.283,0,99,99,105,1,106,incongruent,down,up,incongruent,Stim/Aincon.png,up,0,-0.1,0,7,1000,incongruent,left,left,congruent,Stim/Aincon.png,left,-0.1,0,90,5,2000,stimuli\\,,,,,,,,,,,,
,,,,,,,,,,wmj,1,2024-06-28_19h00.57.935,DCT_v1_online,2021.2.3,Win32,59.57345407,,,0.386,2.864,245,up,1,0.8524,right,1,0.7595,2.114,0,100,100,75,1,76,incongruent,up,up,congruent,Stim/Aincon.png,up,0,0.1,0,5,1000,incongruent,left,right,incongruent,Stim/Aincon.png,right,-0.1,0,-90,6,2000,stimuli\\,,,,,,,,,,,,
,,,,,,,,,,wmj,1,2024-06-28_19h00.57.935,DCT_v1_online,2021.2.3,Win32,59.57345407,,,0.057,2.293,246,down,1,1.1636,left,0,1.2796,2.443,0,101,101,90,1,91,incongruent,up,down,incongruent,Stim/Aincon.png,down,0,0.1,180,6,100,incongruent,left,right,incongruent,Stim/Aincon.png,right,-0.1,0,-90,6,2000,stimuli\\,,,,,,,,,,,,
,,,,,,,,,,wmj,1,2024-06-28_19h00.57.935,DCT_v1_online,2021.2.3,Win32,59.57345407,,,0.446,1.904,247,down,1,0.7673,right,1,0.9591,2.054,0,102,102,50,1,51,congruent,down,down,congruent,Stim/Acon.png,down,0,-0.1,180,4,100,congruent,left,right,incongruent,Stim/Acon.png,right,-0.1,0,-90,2,2000,stimuli\\,,,,,,,,,,,,
,,,,,,,,,,wmj,1,2024-06-28_19h00.57.935,DCT_v1_online,2021.2.3,Win32,59.57345407,,,0.465,2.785,248,down,1,0.6934,right,1,0.7222,2.035,0,103,103,27,1,28,congruent,up,down,incongruent,Stim/Acon.png,down,0,0.1,180,2,1000,incongruent,left,right,incongruent,Stim/Aincon.png,right,-0.1,0,-90,6,2000,stimuli\\,,,,,,,,,,,,
,,,,,,,,,,wmj,1,2024-06-28_19h00.57.935,DCT_v1_online,2021.2.3,Win32,59.57345407,,,0.393,2.857,249,down,1,0.5533,left,1,0.7345,2.107,0,104,104,25,1,26,congruent,up,down,incongruent,Stim/Acon.png,down,0,0.1,180,2,1000,incongruent,left,left,congruent,Stim/Aincon.png,left,-0.1,0,90,5,2000,stimuli\\,,,,,,,,,,,,
,,,,,,,,,,wmj,1,2024-06-28_19h00.57.935,DCT_v1_online,2021.2.3,Win32,59.57345407,,,0.312,2.938,250,down,1,0.5704,right,1,0.5027,2.188,0,105,105,19,1,20,congruent,up,down,incongruent,Stim/Acon.png,down,0,0.1,180,2,1000,congruent,left,right,incongruent,Stim/Acon.png,right,-0.1,0,-90,2,2000,stimuli\\,,,,,,,,,,,,
,,,,,,,,,,wmj,1,2024-06-28_19h00.57.935,DCT_v1_online,2021.2.3,Win32,59.57345407,,,0.22,3.03,251,down,1,0.7376,left,1,0.5512,2.28,0,106,106,113,1,114,incongruent,down,down,congruent,Stim/Aincon.png,down,0,-0.1,180,8,1000,congruent,left,left,congruent,Stim/Acon.png,left,-0.1,0,90,1,2000,stimuli\\,,,,,,,,,,,,
,,,,,,,,,,wmj,1,2024-06-28_19h00.57.935,DCT_v1_online,2021.2.3,Win32,59.57345407,,,0.457,1.893,252,,0,,,0,,,0,107,107,10,1,11,congruent,up,up,congruent,Stim/Acon.png,up,0,0.1,0,1,100,incongruent,left,right,incongruent,Stim/Aincon.png,right,-0.1,0,-90,6,2000,stimuli\\,,,,,,,,,,,,
,,,,,,,,,,wmj,1,2024-06-28_19h00.57.935,DCT_v1_online,2021.2.3,Win32,59.57345407,,,0.216,2.134,253,up,1,1.4197,left,1,1.1244,2.284,0,108,108,64,1,65,incongruent,up,up,congruent,Stim/Aincon.png,up,0,0.1,0,5,100,congruent,left,left,congruent,Stim/Acon.png,left,-0.1,0,90,1,2000,stimuli\\,,,,,,,,,,,,
,,,,,,,,,,wmj,1,2024-06-28_19h00.57.935,DCT_v1_online,2021.2.3,Win32,59.57345407,,,0.422,1.928,254,up,1,0.9508,right,1,0.9912,2.078,0,109,109,66,1,67,incongruent,up,up,congruent,Stim/Aincon.png,up,0,0.1,0,5,100,congruent,left,right,incongruent,Stim/Acon.png,right,-0.1,0,-90,2,2000,stimuli\\,,,,,,,,,,,,
,,,,,,,,,,wmj,1,2024-06-28_19h00.57.935,DCT_v1_online,2021.2.3,Win32,59.57345407,,,0.067,3.183,255,down,1,0.6695,left,1,0.5401,2.433,0,110,110,21,1,22,congruent,up,down,incongruent,Stim/Acon.png,down,0,0.1,180,2,1000,congruent,right,left,incongruent,Stim/Acon.png,left,0.1,0,90,3,2000,stimuli\\,,,,,,,,,,,,
,,,,,,,,,,wmj,1,2024-06-28_19h00.57.935,DCT_v1_online,2021.2.3,Win32,59.57345407,,,0.056,2.294,256,up,1,1.0293,left,1,1.1258,2.444,0,111,111,104,1,105,incongruent,down,up,incongruent,Stim/Aincon.png,up,0,-0.1,0,7,100,incongruent,left,left,congruent,Stim/Aincon.png,left,-0.1,0,90,5,2000,stimuli\\,,,,,,,,,,,,
,,,,,,,,,,wmj,1,2024-06-28_19h00.57.935,DCT_v1_online,2021.2.3,Win32,59.57345407,,,0.149,2.201,257,down,1,1.1848,left,1,1.264,2.351,0,112,112,16,1,17,congruent,up,down,incongruent,Stim/Acon.png,down,0,0.1,180,2,100,congruent,left,left,congruent,Stim/Acon.png,left,-0.1,0,90,1,2000,stimuli\\,,,,,,,,,,,,
,,,,,,,,,,wmj,1,2024-06-28_19h00.57.935,DCT_v1_online,2021.2.3,Win32,59.57345407,,,0.312,2.938,258,down,1,0.5761,left,1,0.779,2.188,0,113,113,57,1,58,congruent,down,down,congruent,Stim/Acon.png,down,0,-0.1,180,4,1000,incongruent,left,left,congruent,Stim/Aincon.png,left,-0.1,0,90,5,2000,stimuli\\,,,,,,,,,,,,
,,,,,,,,,,wmj,1,2024-06-28_19h00.57.935,DCT_v1_online,2021.2.3,Win32,59.57345407,,,0.209,3.041,259,up,1,0.8411,left,1,0.7526,2.291,0,114,114,13,1,14,congruent,up,up,congruent,Stim/Acon.png,up,0,0.1,0,1,1000,incongruent,right,left,incongruent,Stim/Aincon.png,left,0.1,0,90,7,2000,stimuli\\,,,,,,,,,,,,
,,,,,,,,,,wmj,1,2024-06-28_19h00.57.935,DCT_v1_online,2021.2.3,Win32,59.57345407,,,0.008,2.342,260,down,1,0.9228,left,1,1.0725,2.492,0,115,115,92,1,93,incongruent,up,down,incongruent,Stim/Aincon.png,down,0,0.1,180,6,100,incongruent,right,left,incongruent,Stim/Aincon.png,left,0.1,0,90,7,2000,stimuli\\,,,,,,,,,,,,
,,,,,,,,,,wmj,1,2024-06-28_19h00.57.935,DCT_v1_online,2021.2.3,Win32,59.57345407,,,0.109,2.241,261,down,1,0.8902,left,1,1.053,2.391,0,116,116,60,1,61,congruent,down,down,congruent,Stim/Acon.png,down,0,-0.1,180,4,100,incongruent,right,left,incongruent,Stim/Aincon.png,left,0.1,0,90,7,2000,stimuli\\,,,,,,,,,,,,
,,,,,,,,,,wmj,1,2024-06-28_19h00.57.935,DCT_v1_online,2021.2.3,Win32,59.57345407,,,0.039,3.211,262,up,1,1.1336,right,1,0.6907,2.461,0,117,117,3,1,4,congruent,up,up,congruent,Stim/Acon.png,up,0,0.1,0,1,1000,congruent,left,right,incongruent,Stim/Acon.png,right,-0.1,0,-90,2,2000,stimuli\\,,,,,,,,,,,,
,,,,,,,,,,wmj,1,2024-06-28_19h00.57.935,DCT_v1_online,2021.2.3,Win32,59.57345407,,,0.48,2.77,263,down,1,0.5411,left,1,0.4833,2.02,0,118,118,49,1,50,congruent,down,down,congruent,Stim/Acon.png,down,0,-0.1,180,4,1000,congruent,left,left,congruent,Stim/Acon.png,left,-0.1,0,90,1,2000,stimuli\\,,,,,,,,,,,,
,,,,,,,,,,wmj,1,2024-06-28_19h00.57.935,DCT_v1_online,2021.2.3,Win32,59.57345407,,,0.24,3.01,264,up,1,1.0032,right,1,0.6672,2.26,0,119,119,107,1,108,incongruent,down,up,incongruent,Stim/Aincon.png,up,0,-0.1,0,7,1000,incongruent,left,right,incongruent,Stim/Aincon.png,right,-0.1,0,-90,6,2000,stimuli\\,,,,,,,,,,,,
,,,,,,,,,,wmj,1,2024-06-28_19h00.57.935,DCT_v1_online,2021.2.3,Win32,59.57345407,,,0.053,2.297,265,down,1,0.814,right,1,1.0447,2.447,0,120,120,30,1,31,congruent,up,down,incongruent,Stim/Acon.png,down,0,0.1,180,2,100,incongruent,right,right,congruent,Stim/Aincon.png,right,0.1,0,-90,8,2000,stimuli\\,,,,,,,,,,,,
,,,,,,,,,,wmj,1,2024-06-28_19h00.57.935,DCT_v1_online,2021.2.3,Win32,59.57345407,,,0.188,3.062,266,down,1,0.7898,right,1,0.5997,2.312,0,121,121,119,1,120,incongruent,down,down,congruent,Stim/Aincon.png,down,0,-0.1,180,8,1000,congruent,right,right,congruent,Stim/Acon.png,right,0.1,0,-90,4,2000,stimuli\\,,,,,,,,,,,,
,,,,,,,,,,wmj,1,2024-06-28_19h00.57.935,DCT_v1_online,2021.2.3,Win32,59.57345407,,,0.329,2.021,267,down,1,0.8962,left,0,0.9566,2.171,0,122,122,122,1,123,incongruent,down,down,congruent,Stim/Aincon.png,down,0,-0.1,180,8,100,incongruent,left,right,incongruent,Stim/Aincon.png,right,-0.1,0,-90,6,2000,stimuli\\,,,,,,,,,,,,
,,,,,,,,,,wmj,1,2024-06-28_19h00.57.935,DCT_v1_online,2021.2.3,Win32,59.57345407,,,0.164,2.186,268,up,1,1.1295,left,1,1.2008,2.336,0,123,123,68,1,69,incongruent,up,up,congruent,Stim/Aincon.png,up,0,0.1,0,5,100,congruent,right,left,incongruent,Stim/Acon.png,left,0.1,0,90,3,2000,stimuli\\,,,,,,,,,,,,
,,,,,,,,,,wmj,1,2024-06-28_19h00.57.935,DCT_v1_online,2021.2.3,Win32,59.57345407,,,0.274,2.076,269,up,1,1.2,right,1,1.3172,2.226,0,124,124,14,1,15,congruent,up,up,congruent,Stim/Acon.png,up,0,0.1,0,1,100,incongruent,right,right,congruent,Stim/Aincon.png,right,0.1,0,-90,8,2000,stimuli\\,,,,,,,,,,,,
,,,,,,,,,,wmj,1,2024-06-28_19h00.57.935,DCT_v1_online,2021.2.3,Win32,59.57345407,,,0.098,2.252,270,up,1,1.0391,right,1,1.1124,2.402,0,125,125,70,1,71,incongruent,up,up,congruent,Stim/Aincon.png,up,0,0.1,0,5,100,congruent,right,right,congruent,Stim/Acon.png,right,0.1,0,-90,4,2000,stimuli\\,,,,,,,,,,,,
,,,,,,,,,,wmj,1,2024-06-28_19h00.57.935,DCT_v1_online,2021.2.3,Win32,59.57345407,,,0.39,2.86,271,down,1,0.7514,left,1,0.6242,2.11,0,126,126,29,1,30,congruent,up,down,incongruent,Stim/Acon.png,down,0,0.1,180,2,1000,incongruent,right,left,incongruent,Stim/Aincon.png,left,0.1,0,90,7,2000,stimuli\\,,,,,,,,,,,,
,,,,,,,,,,wmj,1,2024-06-28_19h00.57.935,DCT_v1_online,2021.2.3,Win32,59.57345407,,,0.488,2.762,272,down,1,0.6506,right,1,0.7039,2.012,0,127,127,127,1,128,incongruent,down,down,congruent,Stim/Aincon.png,down,0,-0.1,180,8,1000,incongruent,right,right,congruent,Stim/Aincon.png,right,0.1,0,-90,8,2000,stimuli\\,,,,,,,,,,,,
,,,,,,,,,,wmj,1,2024-06-28_19h00.57.935,DCT_v1_online,2021.2.3,Win32,59.57345407,,,,,,,,,,,,,,,,,,,,,,,,,,,,,,,,,,,,,,,,,,space,6.8555,0,2,2,2,1,Instructions/i6.png,test,conditions/block1.xlsx,1.2,0.5
,,,,,,,,,,wmj,1,2024-06-28_19h00.57.935,DCT_v1_online,2021.2.3,Win32,59.57345407,space,1.2736,0.306,2.944,273,up,1,0.8902,right,1,0.6968,2.194,0,0,0,107,1,108,incongruent,down,up,incongruent,Stim/Aincon.png,up,0,-0.1,0,7,1000,incongruent,left,right,incongruent,Stim/Aincon.png,right,-0.1,0,-90,6,2000,stimuli\\,,,,,,,,,,,,
,,,,,,,,,,wmj,1,2024-06-28_19h00.57.935,DCT_v1_online,2021.2.3,Win32,59.57345407,,,0.394,2.856,274,down,1,0.5597,left,1,0.7128,2.106,0,1,1,25,1,26,congruent,up,down,incongruent,Stim/Acon.png,down,0,0.1,180,2,1000,incongruent,left,left,congruent,Stim/Aincon.png,left,-0.1,0,90,5,2000,stimuli\\,,,,,,,,,,,,
,,,,,,,,,,wmj,1,2024-06-28_19h00.57.935,DCT_v1_online,2021.2.3,Win32,59.57345407,,,0.322,2.928,275,up,1,0.7347,left,1,0.5178,2.178,0,2,2,101,1,102,incongruent,down,up,incongruent,Stim/Aincon.png,up,0,-0.1,0,7,1000,congruent,right,left,incongruent,Stim/Acon.png,left,0.1,0,90,3,2000,stimuli\\,,,,,,,,,,,,
,,,,,,,,,,wmj,1,2024-06-28_19h00.57.935,DCT_v1_online,2021.2.3,Win32,59.57345407,,,0.156,2.194,276,down,1,0.7558,left,1,0.8802,2.344,0,3,3,20,1,21,congruent,up,down,incongruent,Stim/Acon.png,down,0,0.1,180,2,100,congruent,right,left,incongruent,Stim/Acon.png,left,0.1,0,90,3,2000,stimuli\\,,,,,,,,,,,,
,,,,,,,,,,wmj,1,2024-06-28_19h00.57.935,DCT_v1_online,2021.2.3,Win32,59.57345407,,,0.465,1.885,277,down,1,0.9226,right,1,1.0313,2.035,0,4,4,50,1,51,congruent,down,down,congruent,Stim/Acon.png,down,0,-0.1,180,4,100,congruent,left,right,incongruent,Stim/Acon.png,right,-0.1,0,-90,2,2000,stimuli\\,,,,,,,,,,,,
,,,,,,,,,,wmj,1,2024-06-28_19h00.57.935,DCT_v1_online,2021.2.3,Win32,59.57345407,,,0.223,2.127,278,up,1,1.2898,right,1,1.4184,2.277,0,5,5,6,1,7,congruent,up,up,congruent,Stim/Acon.png,up,0,0.1,0,1,100,congruent,right,right,congruent,Stim/Acon.png,right,0.1,0,-90,4,2000,stimuli\\,,,,,,,,,,,,
,,,,,,,,,,wmj,1,2024-06-28_19h00.57.935,DCT_v1_online,2021.2.3,Win32,59.57345407,,,0.331,2.919,279,up,1,0.9853,left,1,0.62,2.169,0,6,6,77,1,78,incongruent,up,up,congruent,Stim/Aincon.png,up,0,0.1,0,5,1000,incongruent,right,left,incongruent,Stim/Aincon.png,left,0.1,0,90,7,2000,stimuli\\,,,,,,,,,,,,
,,,,,,,,,,wmj,1,2024-06-28_19h00.57.935,DCT_v1_online,2021.2.3,Win32,59.57345407,,,0.337,2.913,280,,0,,left,0,0.5299,,0,7,7,11,1,12,congruent,up,up,congruent,Stim/Acon.png,up,0,0.1,0,1,1000,incongruent,left,right,incongruent,Stim/Aincon.png,right,-0.1,0,-90,6,2000,stimuli\\,,,,,,,,,,,,
,,,,,,,,,,wmj,1,2024-06-28_19h00.57.935,DCT_v1_online,2021.2.3,Win32,59.57345407,,,0.346,2.904,281,up,1,0.8851,right,1,0.5685,2.154,0,8,8,67,1,68,incongruent,up,up,congruent,Stim/Aincon.png,up,0,0.1,0,5,1000,congruent,left,right,incongruent,Stim/Acon.png,right,-0.1,0,-90,2,2000,stimuli\\,,,,,,,,,,,,
,,,,,,,,,,wmj,1,2024-06-28_19h00.57.935,DCT_v1_online,2021.2.3,Win32,59.57345407,,,0.225,3.025,282,down,1,0.7772,right,1,0.523,2.275,0,9,9,83,1,84,incongruent,up,down,incongruent,Stim/Aincon.png,down,0,0.1,180,6,1000,congruent,left,right,incongruent,Stim/Acon.png,right,-0.1,0,-90,2,2000,stimuli\\,,,,,,,,,,,,
,,,,,,,,,,wmj,1,2024-06-28_19h00.57.935,DCT_v1_online,2021.2.3,Win32,59.57345407,,,0.342,2.908,283,up,1,0.9,right,1,0.6189,2.158,0,10,10,103,1,104,incongruent,down,up,incongruent,Stim/Aincon.png,up,0,-0.1,0,7,1000,congruent,right,right,congruent,Stim/Acon.png,right,0.1,0,-90,4,2000,stimuli\\,,,,,,,,,,,,
,,,,,,,,,,wmj,1,2024-06-28_19h00.57.935,DCT_v1_online,2021.2.3,Win32,59.57345407,,,0.24,3.01,284,up,1,0.7243,right,1,0.7456,2.26,0,11,11,79,1,80,incongruent,up,up,congruent,Stim/Aincon.png,up,0,0.1,0,5,1000,incongruent,right,right,congruent,Stim/Aincon.png,right,0.1,0,-90,8,2000,stimuli\\,,,,,,,,,,,,
,,,,,,,,,,wmj,1,2024-06-28_19h00.57.935,DCT_v1_online,2021.2.3,Win32,59.57345407,,,0.116,3.134,285,down,1,0.7016,left,1,0.7412,2.384,0,12,12,61,1,62,congruent,down,down,congruent,Stim/Acon.png,down,0,-0.1,180,4,1000,incongruent,right,left,incongruent,Stim/Aincon.png,left,0.1,0,90,7,2000,stimuli\\,,,,,,,,,,,,
,,,,,,,,,,wmj,1,2024-06-28_19h00.57.935,DCT_v1_online,2021.2.3,Win32,59.57345407,,,0.101,2.249,286,down,1,0.8215,left,1,1.2157,2.399,0,13,13,124,1,125,incongruent,down,down,congruent,Stim/Aincon.png,down,0,-0.1,180,8,100,incongruent,right,left,incongruent,Stim/Aincon.png,left,0.1,0,90,7,2000,stimuli\\,,,,,,,,,,,,
,,,,,,,,,,wmj,1,2024-06-28_19h00.57.935,DCT_v1_online,2021.2.3,Win32,59.57345407,,,0.28,2.07,287,down,0,1.0683,right,1,1.4635,2.22,0,14,14,66,1,67,incongruent,up,up,congruent,Stim/Aincon.png,up,0,0.1,0,5,100,congruent,left,right,incongruent,Stim/Acon.png,right,-0.1,0,-90,2,2000,stimuli\\,,,,,,,,,,,,
,,,,,,,,,,wmj,1,2024-06-28_19h00.57.935,DCT_v1_online,2021.2.3,Win32,59.57345407,,,0.43,1.92,288,down,1,1.606,right,1,1.6688,2.07,0,15,15,114,1,115,incongruent,down,down,congruent,Stim/Aincon.png,down,0,-0.1,180,8,100,congruent,left,right,incongruent,Stim/Acon.png,right,-0.1,0,-90,2,2000,stimuli\\,,,,,,,,,,,,
,,,,,,,,,,wmj,1,2024-06-28_19h00.57.935,DCT_v1_online,2021.2.3,Win32,59.57345407,,,0.315,2.935,289,up,1,0.7361,right,1,0.9861,2.185,0,16,16,47,1,48,congruent,down,up,incongruent,Stim/Acon.png,up,0,-0.1,0,3,1000,incongruent,right,right,congruent,Stim/Aincon.png,right,0.1,0,-90,8,2000,stimuli\\,,,,,,,,,,,,
,,,,,,,,,,wmj,1,2024-06-28_19h00.57.935,DCT_v1_online,2021.2.3,Win32,59.57345407,,,0.458,1.892,290,down,1,0.5292,left,1,0.8736,2.042,0,17,17,28,1,29,congruent,up,down,incongruent,Stim/Acon.png,down,0,0.1,180,2,100,incongruent,right,left,incongruent,Stim/Aincon.png,left,0.1,0,90,7,2000,stimuli\\,,,,,,,,,,,,
,,,,,,,,,,wmj,1,2024-06-28_19h00.57.935,DCT_v1_online,2021.2.3,Win32,59.57345407,,,0.155,3.095,291,down,1,0.6895,left,1,0.9084,2.345,0,18,18,89,1,90,incongruent,up,down,incongruent,Stim/Aincon.png,down,0,0.1,180,6,1000,incongruent,left,left,congruent,Stim/Aincon.png,left,-0.1,0,90,5,2000,stimuli\\,,,,,,,,,,,,
,,,,,,,,,,wmj,1,2024-06-28_19h00.57.935,DCT_v1_online,2021.2.3,Win32,59.57345407,,,0.337,2.013,292,up,1,1.6729,left,1,1.7043,2.163,0,19,19,100,1,101,incongruent,down,up,incongruent,Stim/Aincon.png,up,0,-0.1,0,7,100,congruent,right,left,incongruent,Stim/Acon.png,left,0.1,0,90,3,2000,stimuli\\,,,,,,,,,,,,
,,,,,,,,,,wmj,1,2024-06-28_19h00.57.935,DCT_v1_online,2021.2.3,Win32,59.57345407,,,0.389,1.961,293,up,1,1.1471,right,1,1.1999,2.111,0,20,20,102,1,103,incongruent,down,up,incongruent,Stim/Aincon.png,up,0,-0.1,0,7,100,congruent,right,right,congruent,Stim/Acon.png,right,0.1,0,-90,4,2000,stimuli\\,,,,,,,,,,,,
,,,,,,,,,,wmj,1,2024-06-28_19h00.57.935,DCT_v1_online,2021.2.3,Win32,59.57345407,,,0.444,2.806,294,up,1,0.8346,left,1,0.709,2.056,0,21,21,105,1,106,incongruent,down,up,incongruent,Stim/Aincon.png,up,0,-0.1,0,7,1000,incongruent,left,left,congruent,Stim/Aincon.png,left,-0.1,0,90,5,2000,stimuli\\,,,,,,,,,,,,
,,,,,,,,,,wmj,1,2024-06-28_19h00.57.935,DCT_v1_online,2021.2.3,Win32,59.57345407,,,0.409,1.941,295,down,1,0.6763,right,1,0.7593,2.091,0,22,22,54,1,55,congruent,down,down,congruent,Stim/Acon.png,down,0,-0.1,180,4,100,congruent,right,right,congruent,Stim/Acon.png,right,0.1,0,-90,4,2000,stimuli\\,,,,,,,,,,,,
,,,,,,,,,,wmj,1,2024-06-28_19h00.57.935,DCT_v1_online,2021.2.3,Win32,59.57345407,,,0.484,2.766,296,down,1,0.5968,left,1,0.5401,2.016,0,23,23,21,1,22,congruent,up,down,incongruent,Stim/Acon.png,down,0,0.1,180,2,1000,congruent,right,left,incongruent,Stim/Acon.png,left,0.1,0,90,3,2000,stimuli\\,,,,,,,,,,,,
,,,,,,,,,,wmj,1,2024-06-28_19h00.57.935,DCT_v1_online,2021.2.3,Win32,59.57345407,,,0.026,2.324,297,up,1,0.7962,right,1,1.1438,2.474,0,24,24,46,1,47,congruent,down,up,incongruent,Stim/Acon.png,up,0,-0.1,0,3,100,incongruent,right,right,congruent,Stim/Aincon.png,right,0.1,0,-90,8,2000,stimuli\\,,,,,,,,,,,,
,,,,,,,,,,wmj,1,2024-06-28_19h00.57.935,DCT_v1_online,2021.2.3,Win32,59.57345407,,,0.209,2.141,298,down,1,1.0454,right,1,1.1533,2.291,0,25,25,82,1,83,incongruent,up,down,incongruent,Stim/Aincon.png,down,0,0.1,180,6,100,congruent,left,right,incongruent,Stim/Acon.png,right,-0.1,0,-90,2,2000,stimuli\\,,,,,,,,,,,,
,,,,,,,,,,wmj,1,2024-06-28_19h00.57.935,DCT_v1_online,2021.2.3,Win32,59.57345407,,,0.026,2.324,299,up,1,0.9011,left,1,1.0556,2.474,0,26,26,12,1,13,congruent,up,up,congruent,Stim/Acon.png,up,0,0.1,0,1,100,incongruent,right,left,incongruent,Stim/Aincon.png,left,0.1,0,90,7,2000,stimuli\\,,,,,,,,,,,,
,,,,,,,,,,wmj,1,2024-06-28_19h00.57.935,DCT_v1_online,2021.2.3,Win32,59.57345407,,,0.375,1.975,300,down,1,0.8681,right,1,1.062,2.125,0,27,27,118,1,119,incongruent,down,down,congruent,Stim/Aincon.png,down,0,-0.1,180,8,100,congruent,right,right,congruent,Stim/Acon.png,right,0.1,0,-90,4,2000,stimuli\\,,,,,,,,,,,,
,,,,,,,,,,wmj,1,2024-06-28_19h00.57.935,DCT_v1_online,2021.2.3,Win32,59.57345407,,,0.475,1.875,301,down,1,0.7727,left,0,0.9851,2.025,0,28,28,94,1,95,incongruent,up,down,incongruent,Stim/Aincon.png,down,0,0.1,180,6,100,incongruent,right,right,congruent,Stim/Aincon.png,right,0.1,0,-90,8,2000,stimuli\\,,,,,,,,,,,,
,,,,,,,,,,wmj,1,2024-06-28_19h00.57.935,DCT_v1_online,2021.2.3,Win32,59.57345407,,,0.445,2.805,302,up,1,0.7638,left,1,0.5759,2.055,0,29,29,65,1,66,incongruent,up,up,congruent,Stim/Aincon.png,up,0,0.1,0,5,1000,congruent,left,left,congruent,Stim/Acon.png,left,-0.1,0,90,1,2000,stimuli\\,,,,,,,,,,,,
,,,,,,,,,,wmj,1,2024-06-28_19h00.57.935,DCT_v1_online,2021.2.3,Win32,59.57345407,,,0.454,2.796,303,down,1,0.6587,right,1,0.6459,2.046,0,30,30,95,1,96,incongruent,up,down,incongruent,Stim/Aincon.png,down,0,0.1,180,6,1000,incongruent,right,right,congruent,Stim/Aincon.png,right,0.1,0,-90,8,2000,stimuli\\,,,,,,,,,,,,
,,,,,,,,,,wmj,1,2024-06-28_19h00.57.935,DCT_v1_online,2021.2.3,Win32,59.57345407,,,0.194,2.156,304,up,1,1.0845,left,0,1.1619,2.306,0,31,31,10,1,11,congruent,up,up,congruent,Stim/Acon.png,up,0,0.1,0,1,100,incongruent,left,right,incongruent,Stim/Aincon.png,right,-0.1,0,-90,6,2000,stimuli\\,,,,,,,,,,,,
,,,,,,,,,,wmj,1,2024-06-28_19h00.57.935,DCT_v1_online,2021.2.3,Win32,59.57345407,,,0.454,2.796,305,up,1,0.751,right,1,0.7118,2.046,0,32,32,43,1,44,congruent,down,up,incongruent,Stim/Acon.png,up,0,-0.1,0,3,1000,incongruent,left,right,incongruent,Stim/Aincon.png,right,-0.1,0,-90,6,2000,stimuli\\,,,,,,,,,,,,
,,,,,,,,,,wmj,1,2024-06-28_19h00.57.935,DCT_v1_online,2021.2.3,Win32,59.57345407,,,0.088,3.162,306,up,1,0.6302,right,1,0.5053,2.412,0,33,33,3,1,4,congruent,up,up,congruent,Stim/Acon.png,up,0,0.1,0,1,1000,congruent,left,right,incongruent,Stim/Acon.png,right,-0.1,0,-90,2,2000,stimuli\\,,,,,,,,,,,,
,,,,,,,,,,wmj,1,2024-06-28_19h00.57.935,DCT_v1_online,2021.2.3,Win32,59.57345407,,,0.48,1.87,307,up,1,0.9773,left,1,1.0707,2.02,0,34,34,32,1,33,congruent,down,up,incongruent,Stim/Acon.png,up,0,-0.1,0,3,100,congruent,left,left,congruent,Stim/Acon.png,left,-0.1,0,90,1,2000,stimuli\\,,,,,,,,,,,,
,,,,,,,,,,wmj,1,2024-06-28_19h00.57.935,DCT_v1_online,2021.2.3,Win32,59.57345407,,,0.156,3.094,308,up,1,0.729,left,1,0.5635,2.344,0,35,35,37,1,38,congruent,down,up,incongruent,Stim/Acon.png,up,0,-0.1,0,3,1000,congruent,right,left,incongruent,Stim/Acon.png,left,0.1,0,90,3,2000,stimuli\\,,,,,,,,,,,,
,,,,,,,,,,wmj,1,2024-06-28_19h00.57.935,DCT_v1_online,2021.2.3,Win32,59.57345407,,,0.276,2.074,309,down,1,0.8528,right,1,1.2367,2.224,0,36,36,122,1,123,incongruent,down,down,congruent,Stim/Aincon.png,down,0,-0.1,180,8,100,incongruent,left,right,incongruent,Stim/Aincon.png,right,-0.1,0,-90,6,2000,stimuli\\,,,,,,,,,,,,
,,,,,,,,,,wmj,1,2024-06-28_19h00.57.935,DCT_v1_online,2021.2.3,Win32,59.57345407,,,0.352,2.898,310,up,1,0.615,left,1,0.5162,2.148,0,37,37,5,1,6,congruent,up,up,congruent,Stim/Acon.png,up,0,0.1,0,1,1000,congruent,right,left,incongruent,Stim/Acon.png,left,0.1,0,90,3,2000,stimuli\\,,,,,,,,,,,,
,,,,,,,,,,wmj,1,2024-06-28_19h00.57.935,DCT_v1_online,2021.2.3,Win32,59.57345407,,,0.207,2.143,311,up,1,0.8022,left,1,0.9166,2.293,0,38,38,36,1,37,congruent,down,up,incongruent,Stim/Acon.png,up,0,-0.1,0,3,100,congruent,right,left,incongruent,Stim/Acon.png,left,0.1,0,90,3,2000,stimuli\\,,,,,,,,,,,,
,,,,,,,,,,wmj,1,2024-06-28_19h00.57.935,DCT_v1_online,2021.2.3,Win32,59.57345407,,,0.011,2.339,312,down,1,0.9494,left,1,1.193,2.489,0,39,39,56,1,57,congruent,down,down,congruent,Stim/Acon.png,down,0,-0.1,180,4,100,incongruent,left,left,congruent,Stim/Aincon.png,left,-0.1,0,90,5,2000,stimuli\\,,,,,,,,,,,,
,,,,,,,,,,wmj,1,2024-06-28_19h00.57.935,DCT_v1_online,2021.2.3,Win32,59.57345407,,,0.358,1.992,313,up,1,1.0607,right,1,1.139,2.142,0,40,40,70,1,71,incongruent,up,up,congruent,Stim/Aincon.png,up,0,0.1,0,5,100,congruent,right,right,congruent,Stim/Acon.png,right,0.1,0,-90,4,2000,stimuli\\,,,,,,,,,,,,
,,,,,,,,,,wmj,1,2024-06-28_19h00.57.935,DCT_v1_online,2021.2.3,Win32,59.57345407,,,0.461,2.789,314,down,1,0.7932,right,1,0.4733,2.039,0,41,41,87,1,88,incongruent,up,down,incongruent,Stim/Aincon.png,down,0,0.1,180,6,1000,congruent,right,right,congruent,Stim/Acon.png,right,0.1,0,-90,4,2000,stimuli\\,,,,,,,,,,,,
,,,,,,,,,,wmj,1,2024-06-28_19h00.57.935,DCT_v1_online,2021.2.3,Win32,59.57345407,,,0.376,1.974,315,down,1,0.7897,right,1,0.8877,2.124,0,42,42,22,1,23,congruent,up,down,incongruent,Stim/Acon.png,down,0,0.1,180,2,100,congruent,right,right,congruent,Stim/Acon.png,right,0.1,0,-90,4,2000,stimuli\\,,,,,,,,,,,,
,,,,,,,,,,wmj,1,2024-06-28_19h00.57.935,DCT_v1_online,2021.2.3,Win32,59.57345407,,,0.116,3.134,316,down,1,0.634,right,1,0.736,2.384,0,43,43,63,1,64,congruent,down,down,congruent,Stim/Acon.png,down,0,-0.1,180,4,1000,incongruent,right,right,congruent,Stim/Aincon.png,right,0.1,0,-90,8,2000,stimuli\\,,,,,,,,,,,,
,,,,,,,,,,wmj,1,2024-06-28_19h00.57.935,DCT_v1_online,2021.2.3,Win32,59.57345407,,,0.409,2.841,317,down,1,0.757,right,1,0.7512,2.091,0,44,44,91,1,92,incongruent,up,down,incongruent,Stim/Aincon.png,down,0,0.1,180,6,1000,incongruent,left,right,incongruent,Stim/Aincon.png,right,-0.1,0,-90,6,2000,stimuli\\,,,,,,,,,,,,
,,,,,,,,,,wmj,1,2024-06-28_19h00.57.935,DCT_v1_online,2021.2.3,Win32,59.57345407,,,0.143,2.207,318,up,1,0.8571,left,1,0.9692,2.357,0,45,45,4,1,5,congruent,up,up,congruent,Stim/Acon.png,up,0,0.1,0,1,100,congruent,right,left,incongruent,Stim/Acon.png,left,0.1,0,90,3,2000,stimuli\\,,,,,,,,,,,,
,,,,,,,,,,wmj,1,2024-06-28_19h00.57.935,DCT_v1_online,2021.2.3,Win32,59.57345407,,,0.422,1.928,319,down,1,0.8135,left,1,1.1334,2.078,0,46,46,60,1,61,congruent,down,down,congruent,Stim/Acon.png,down,0,-0.1,180,4,100,incongruent,right,left,incongruent,Stim/Aincon.png,left,0.1,0,90,7,2000,stimuli\\,,,,,,,,,,,,
,,,,,,,,,,wmj,1,2024-06-28_19h00.57.935,DCT_v1_online,2021.2.3,Win32,59.57345407,,,0.444,1.906,320,,0,,,0,,,0,47,47,80,1,81,incongruent,up,down,incongruent,Stim/Aincon.png,down,0,0.1,180,6,100,congruent,left,left,congruent,Stim/Acon.png,left,-0.1,0,90,1,2000,stimuli\\,,,,,,,,,,,,
