arrwidth1,arrwidth2,arrwidth3,arrwidth4,arrwidth5,keyb,type,orientation,instruction_image,block_filename,block_type,arrow11,arrow22,arrow33,arrow44,arrow55,keyb_3,orientation3,trials.thisRepN,trials.thisTrialN,trials.thisN,trials.thisIndex,trials_3.thisRepN,trials_3.thisTrialN,trials_3.thisN,trials_3.thisIndex,trials_2.thisRepN,trials_2.thisTrialN,trials_2.thisN,trials_2.thisIndex,welcome.started,welcome.stopped,key_resp.keys,key_resp.rt,key_resp.started,key_resp.stopped,instruction_example.started,instruction_example.stopped,key_resp_3.keys,key_resp_3.rt,key_resp_3.started,key_resp_3.stopped,instruction_task.started,instruction_task.stopped,key_resp_2.keys,key_resp_2.rt,key_resp_2.started,key_resp_2.stopped,text_2.started,text_2.stopped,A1.started,A1.stopped,A2.started,A2.stopped,A3.started,A3.stopped,A4.started,A4.stopped,A5.started,A5.stopped,key_resp_4.keys,key_resp_4.corr,key_resp_4.rt,key_resp_4.started,key_resp_4.stopped,fb.started,fb.stopped,instruction_block.started,instruction_block.stopped,key_resp_8.keys,key_resp_8.rt,key_resp_8.started,key_resp_8.stopped,text_8.started,text_8.stopped,key_resp_9.keys,key_resp_9.corr,key_resp_9.rt,text_5.started,text_5.stopped,A11_3.started,A11_3.stopped,A22_2.started,A22_2.stopped,A33_2.started,A33_2.stopped,A44_2.started,A44_2.stopped,A55_2.started,A55_2.stopped,M1_3.started,M1_3.stopped,M2_2.started,M2_2.stopped,M3_2.started,M3_2.stopped,M4_2.started,M4_2.stopped,M5_2.started,M5_2.stopped,M6_2.started,M6_2.stopped,M7_2.started,M7_2.stopped,M8_2.started,M8_2.stopped,key_resp_9.started,key_resp_9.stopped,fixation.started,fixation.stopped,ET,fb_3.started,fb_3.stopped,text_9.started,text_9.stopped,fb_4.started,fb_4.stopped,text_7.started,text_7.stopped,endtext.started,endtext.stopped,fixation_ITI,CCC,Acc,participant,session,date,expName,psychopyVersion,frameRate,
,,,,,,,,,,,,,,,,,,,,,,,,,,,,,,10.946230300003663,None,space,1.6867498999927193,10.946230300003663,None,,,,,,,,,,,,,,,,,,,,,,,,,,,,,,,,,,,,,,,,,,,,,,,,,,,,,,,,,,,,,,,,,,,,,,,,,,,,,,,,,,,,,,,,,11006,001,2024_Jan_01_1003,MFTM_A_new1021,2021.2.3,60.027036180308464,
,,,,,,,,,,,,,,,,,,,,,,,,,,,,,,,,,,,,12.648592000012286,None,right,42.48783820000244,12.648592000012286,None,,,,,,,,,,,,,,,,,,,,,,,,,,,,,,,,,,,,,,,,,,,,,,,,,,,,,,,,,,,,,,,,,,,,,,,,,,,,,,,,,,,11006,001,2024_Jan_01_1003,MFTM_A_new1021,2021.2.3,60.027036180308464,
,,,,,,,,,,,,,,,,,,,,,,,,,,,,,,,,,,,,,,,,,,55.16244500002358,None,space,11.350726299977396,55.16244500002358,None,,,,,,,,,,,,,,,,,,,,,,,,,,,,,,,,,,,,,,,,,,,,,,,,,,,,,,,,,,,,,,,,,,,,,,,,,,,,,11006,001,2024_Jan_01_1003,MFTM_A_new1021,2021.2.3,60.027036180308464,
0.6,0.6,0.6,-0.6,-0.6,right,3:2,R,,,,,,,,,,,0,0,0,0,,,,,,,,,,,,,,,,,,,,,,,,,,,66.54669109999668,None,66.54669109999668,None,66.54669109999668,None,66.54669109999668,None,66.54669109999668,None,66.54669109999668,None,right,1,4.078186200000346,66.54669109999668,None,70.66820840002038,None,,,,,,,,,,,,,,,,,,,,,,,,,,,,,,,,,,,,,,,,,,,,,,,,,,,,,,,,,,11006,001,2024_Jan_01_1003,MFTM_A_new1021,2021.2.3,60.027036180308464,
-0.6,-0.6,-0.6,0.6,0.6,left,3:2,L,,,,,,,,,,,0,1,1,1,,,,,,,,,,,,,,,,,,,,,,,,,,,71.41967050003586,None,71.41967050003586,None,71.41967050003586,None,71.41967050003586,None,71.41967050003586,None,71.41967050003586,None,left,1,1.3248511999845505,71.41967050003586,None,72.77130670001497,None,,,,,,,,,,,,,,,,,,,,,,,,,,,,,,,,,,,,,,,,,,,,,,,,,,,,,,,,,,11006,001,2024_Jan_01_1003,MFTM_A_new1021,2021.2.3,60.027036180308464,
-0.6,-0.6,-0.6,0.6,0.6,left,3:2,L,,,,,,,,,,,1,0,2,1,,,,,,,,,,,,,,,,,,,,,,,,,,,73.52306490001502,None,73.52306490001502,None,73.52306490001502,None,73.52306490001502,None,73.52306490001502,None,73.52306490001502,None,left,1,1.1819676000159234,73.52306490001502,None,74.72405530000106,None,,,,,,,,,,,,,,,,,,,,,,,,,,,,,,,,,,,,,,,,,,,,,,,,,,,,,,,,,,11006,001,2024_Jan_01_1003,MFTM_A_new1021,2021.2.3,60.027036180308464,
0.6,0.6,0.6,-0.6,-0.6,right,3:2,R,,,,,,,,,,,1,1,3,0,,,,,,,,,,,,,,,,,,,,,,,,,,,75.47503700002562,None,75.47503700002562,None,75.47503700002562,None,75.47503700002562,None,75.47503700002562,None,75.47503700002562,None,right,1,4.477508099982515,75.47503700002562,None,79.98171860002913,None,,,,,,,,,,,,,,,,,,,,,,,,,,,,,,,,,,,,,,,,,,,,,,,,,,,,,,,,,,11006,001,2024_Jan_01_1003,MFTM_A_new1021,2021.2.3,60.027036180308464,
,,,,,,,,stim/Instruction_mask.png,conditions/adaptive.xlsx,practice,-0.6,-0.6,-0.6,0.6,0.6,left,L,,,,,0,0,0,0,0,0,0,89,,,,,,,,,,,,,,,,,,,,,,,,,,,,,,,,,,,,,,80.94981580000604,None,space,43.4428250999772,80.94981580000604,None,124.48040940001374,None,left,1,1.5810911000007764,124.93193190003512,None,124.93193190003512,127.93673050001962,124.93193190003512,127.93673050001962,124.93193190003512,127.93673050001962,124.93193190003512,127.93673050001962,124.93193190003512,127.93673050001962,127.9201074000448,128.42041180003434,127.9201074000448,128.42041180003434,127.9201074000448,128.42041180003434,127.9201074000448,128.42041180003434,127.9201074000448,128.42041180003434,127.9201074000448,128.42041180003434,127.9201074000448,128.42041180003434,127.9201074000448,128.42041180003434,124.93193190003512,None,128.42041180003434,128.42041180003434,3,128.4373655000236,None,129.18868670001393,None,,,,,,,,,,11006,001,2024_Jan_01_1003,MFTM_A_new1021,2021.2.3,60.027036180308464,
,,,,,,,,stim/Instruction_mask.png,conditions/adaptive.xlsx,practice,0.6,0.6,0.6,-0.6,-0.6,right,R,,,,,0,0,0,0,0,1,1,90,,,,,,,,,,,,,,,,,,,,,,,,,,,,,,,,,,,,,,,,,,,,129.68891950004036,None,right,1,1.4982995000318624,130.1903600000078,132.19313620001776,130.1903600000078,131.6917786000413,130.1903600000078,131.6917786000413,130.1903600000078,131.6917786000413,130.1903600000078,131.6917786000413,130.1903600000078,131.6917786000413,131.67607919999864,132.17651920003118,131.67607919999864,132.17651920003118,131.67607919999864,132.17651920003118,131.67607919999864,132.17651920003118,131.67607919999864,132.17651920003118,131.67607919999864,132.17651920003118,131.67607919999864,132.17651920003118,131.67607919999864,132.17651920003118,130.1903600000078,None,132.17651920003118,133.6786482000025,1.5,133.6946622999967,None,134.44650950003415,None,,,,,,,,,,11006,001,2024_Jan_01_1003,MFTM_A_new1021,2021.2.3,60.027036180308464,
,,,,,,,,stim/Instruction_mask.png,conditions/adaptive.xlsx,practice,0.6,0.6,0.6,-0.6,-0.6,right,R,,,,,0,0,0,0,0,2,2,14,,,,,,,,,,,,,,,,,,,,,,,,,,,,,,,,,,,,,,,,,,,,134.94768909999402,None,left,0,1.5050908999983221,135.44736849999754,136.74962620000588,135.44736849999754,136.24906140001258,135.44736849999754,136.24906140001258,135.44736849999754,136.24906140001258,135.44736849999754,136.24906140001258,135.44736849999754,136.24906140001258,136.23174940003082,136.73333419999108,136.23174940003082,136.73333419999108,136.23174940003082,136.73333419999108,136.23174940003082,136.73333419999108,136.23174940003082,136.73333419999108,136.23174940003082,136.73333419999108,136.23174940003082,136.73333419999108,136.23174940003082,136.73333419999108,135.44736849999754,None,136.73333419999108,138.93627890001517,0.8,138.95255430001998,None,139.70462370000314,None,,,,,,,,,,11006,001,2024_Jan_01_1003,MFTM_A_new1021,2021.2.3,60.027036180308464,
,,,,,,,,stim/Instruction_mask.png,conditions/adaptive.xlsx,practice,-0.6,-0.6,-0.6,0.6,0.6,left,L,,,,,0,0,0,0,0,3,3,73,,,,,,,,,,,,,,,,,,,,,,,,,,,,,,,,,,,,,,,,,,,,140.20477090001805,None,right,0,1.856246400042437,140.70503730000928,141.45682830002625,140.70503730000928,140.956584700034,140.70503730000928,140.956584700034,140.70503730000928,140.956584700034,140.70503730000928,140.956584700034,140.70503730000928,140.956584700034,140.93941059999634,141.44009720004397,140.93941059999634,141.44009720004397,140.93941059999634,141.44009720004397,140.93941059999634,141.44009720004397,140.93941059999634,141.44009720004397,140.93941059999634,141.44009720004397,140.93941059999634,141.44009720004397,140.93941059999634,141.44009720004397,140.70503730000928,None,141.44009720004397,144.19454970001243,3,144.21088359999703,None,144.9633385000052,None,,,,,,,,,,11006,001,2024_Jan_01_1003,MFTM_A_new1021,2021.2.3,60.027036180308464,
,,,,,,,,stim/Instruction_mask.png,conditions/adaptive.xlsx,practice,,,,,,,,,,,,0,0,0,0,,,,,,,,,,,,,,,,,,,,,,,,,,,,,,,,,,,,,,,,,,,,,,,,,,,,,,,,,,,,,,,,,,,,,,,,,,,,,,,,,,,,,,,,,,145.4802234999952,146.48261450004065,146.4645814000396,146.4645814000396,146.4645814000396,None,,,,11006,001,2024_Jan_01_1003,MFTM_A_new1021,2021.2.3,60.027036180308464,
,,,,,,,,stim/Instruction_adaptive.png,conditions/adaptive.xlsx,test,-0.6,-0.6,-0.6,0.6,0.6,left,L,,,,,0,1,1,1,0,0,0,43,,,,,,,,,,,,,,,,,,,,,,,,,,,,,,,,,,,,,,149.58491510001477,None,space,21.471790999989025,149.58491510001477,None,171.0998103999882,None,right,0,3.3840979000087827,171.60103020002134,None,171.60103020002134,174.6063686000416,171.60103020002134,174.6063686000416,171.60103020002134,174.6063686000416,171.60103020002134,174.6063686000416,171.60103020002134,174.6063686000416,174.58880379999755,175.08943490003003,174.58880379999755,175.08943490003003,174.58880379999755,175.08943490003003,174.58880379999755,175.08943490003003,174.58880379999755,175.08943490003003,174.58880379999755,175.08943490003003,174.58880379999755,175.08943490003003,174.58880379999755,175.08943490003003,171.60103020002134,None,175.08943490003003,175.08943490003003,3,175.10606320004445,None,175.85800850001397,None,,,,,,,0,0.5,0.0,11006,001,2024_Jan_01_1003,MFTM_A_new1021,2021.2.3,60.027036180308464,
,,,,,,,,stim/Instruction_adaptive.png,conditions/adaptive.xlsx,test,-0.6,-0.6,-0.6,0.6,0.6,left,L,,,,,0,1,1,1,0,1,1,5,,,,,,,,,,,,,,,,,,,,,,,,,,,,,,,,,,,,,,,,,,,,176.35798060003435,None,left,1,2.493646000046283,176.8590775000048,None,176.8590775000048,179.86330750002526,176.8590775000048,179.86330750002526,176.8590775000048,179.86330750002526,176.8590775000048,179.86330750002526,176.8590775000048,179.86330750002526,179.84632450004574,180.34709390002536,179.84632450004574,180.34709390002536,179.84632450004574,180.34709390002536,179.84632450004574,180.34709390002536,179.84632450004574,180.34709390002536,179.84632450004574,180.34709390002536,179.84632450004574,180.34709390002536,179.84632450004574,180.34709390002536,176.8590775000048,None,180.34709390002536,180.34709390002536,3.0000000000000027,180.36383119999664,None,181.1158388000331,None,,,,,,,0,0.5,0.5,11006,001,2024_Jan_01_1003,MFTM_A_new1021,2021.2.3,60.027036180308464,
,,,,,,,,stim/Instruction_adaptive.png,conditions/adaptive.xlsx,test,-0.6,-0.6,-0.6,0.6,0.6,left,L,,,,,0,1,1,1,0,2,2,3,,,,,,,,,,,,,,,,,,,,,,,,,,,,,,,,,,,,,,,,,,,,181.61624320002738,None,left,1,2.5954995999927633,182.11721640004544,None,182.11721640004544,185.12166540004546,182.11721640004544,185.12166540004546,182.11721640004544,185.12166540004546,182.11721640004544,185.12166540004546,182.11721640004544,185.12166540004546,185.1049478999921,185.6057402000297,185.1049478999921,185.6057402000297,185.1049478999921,185.6057402000297,185.1049478999921,185.6057402000297,185.1049478999921,185.6057402000297,185.1049478999921,185.6057402000297,185.1049478999921,185.6057402000297,185.1049478999921,185.6057402000297,182.11721640004544,None,185.6057402000297,185.6057402000297,3.0000000000000027,185.62156790000154,None,186.37308400002075,None,,,,,,,0,0.5,0.6666666666666666,11006,001,2024_Jan_01_1003,MFTM_A_new1021,2021.2.3,60.027036180308464,
,,,,,,,,stim/Instruction_adaptive.png,conditions/adaptive.xlsx,test,0.6,0.6,0.6,-0.6,-0.6,right,R,,,,,0,1,1,1,0,3,3,60,,,,,,,,,,,,,,,,,,,,,,,,,,,,,,,,,,,,,,,,,,,,186.87404130003415,None,right,1,1.3622007999802008,187.37462710001273,None,187.37462710001273,190.37872269999934,187.37462710001273,190.37872269999934,187.37462710001273,190.37872269999934,187.37462710001273,190.37872269999934,187.37462710001273,190.37872269999934,190.36295610002708,190.8640893000411,190.36295610002708,190.8640893000411,190.36295610002708,190.8640893000411,190.36295610002708,190.8640893000411,190.36295610002708,190.8640893000411,190.36295610002708,190.8640893000411,190.36295610002708,190.8640893000411,190.36295610002708,190.8640893000411,187.37462710001273,None,190.8640893000411,190.8640893000411,3.0000000000000027,190.87924090004526,None,191.63042360002873,None,,,,,,,0,1.1300000000000006,0.75,11006,001,2024_Jan_01_1003,MFTM_A_new1021,2021.2.3,60.027036180308464,
,,,,,,,,stim/Instruction_adaptive.png,conditions/adaptive.xlsx,test,0.6,0.6,0.6,-0.6,-0.6,right,R,,,,,0,1,1,1,0,4,4,36,,,,,,,,,,,,,,,,,,,,,,,,,,,,,,,,,,,,,,,,,,,,192.1324212999898,None,right,1,1.5124072000035085,192.63208270003088,None,192.63208270003088,195.63739180000266,192.63208270003088,195.63739180000266,192.63208270003088,195.63739180000266,192.63208270003088,195.63739180000266,192.63208270003088,195.63739180000266,195.61967510002432,196.12118529999861,195.61967510002432,196.12118529999861,195.61967510002432,196.12118529999861,195.61967510002432,196.12118529999861,195.61967510002432,196.12118529999861,195.61967510002432,196.12118529999861,195.61967510002432,196.12118529999861,195.61967510002432,196.12118529999861,192.63208270003088,None,196.12118529999861,196.12118529999861,3.0000000000000027,196.137229999993,None,196.88914829998976,None,,,,,,,0,1.540000000000001,0.8,11006,001,2024_Jan_01_1003,MFTM_A_new1021,2021.2.3,60.027036180308464,
,,,,,,,,stim/Instruction_adaptive.png,conditions/adaptive.xlsx,test,-0.6,-0.6,-0.6,0.6,0.6,left,L,,,,,0,1,1,1,0,5,5,25,,,,,,,,,,,,,,,,,,,,,,,,,,,,,,,,,,,,,,,,,,,,197.38937829999486,None,left,1,1.54185800004052,197.89084350003395,None,197.89084350003395,200.16019470000174,197.89084350003395,200.16019470000174,197.89084350003395,200.16019470000174,197.89084350003395,200.16019470000174,197.89084350003395,200.16019470000174,200.12705290003214,200.6270848000422,200.12705290003214,200.6270848000422,200.12705290003214,200.6270848000422,200.12705290003214,200.6270848000422,200.12705290003214,200.6270848000422,200.12705290003214,200.6270848000422,200.12705290003214,200.6270848000422,200.12705290003214,200.6270848000422,197.89084350003395,None,200.6270848000422,200.6270848000422,2.2600000000000016,200.6605037000263,None,201.4116866000113,None,,,,,,,0,1.8100000000000012,0.8333333333333334,11006,001,2024_Jan_01_1003,MFTM_A_new1021,2021.2.3,60.027036180308464,
,,,,,,,,stim/Instruction_adaptive.png,conditions/adaptive.xlsx,test,0.6,0.6,0.6,-0.6,-0.6,right,R,,,,,0,1,1,1,0,6,6,82,,,,,,,,,,,,,,,,,,,,,,,,,,,,,,,,,,,,,,,,,,,,201.91224630002398,None,left,0,2.827485899964813,202.41328899998916,204.80043500004103,202.41328899998916,204.300255500013,202.41328899998916,204.300255500013,202.41328899998916,204.300255500013,202.41328899998916,204.300255500013,202.41328899998916,204.300255500013,204.28244020004058,204.78341999999247,204.28244020004058,204.78341999999247,204.28244020004058,204.78341999999247,204.28244020004058,204.78341999999247,204.28244020004058,204.78341999999247,204.28244020004058,204.78341999999247,204.28244020004058,204.78341999999247,204.28244020004058,204.78341999999247,202.41328899998916,None,204.78341999999247,205.26735450001433,1.8800000000000014,205.28405160002876,None,206.03573290002532,None,,,,,,,0,1.1600000000000006,0.7142857142857143,11006,001,2024_Jan_01_1003,MFTM_A_new1021,2021.2.3,60.027036180308464,
,,,,,,,,stim/Instruction_adaptive.png,conditions/adaptive.xlsx,test,-0.6,-0.6,-0.6,0.6,0.6,left,L,,,,,0,1,1,1,0,7,7,69,,,,,,,,,,,,,,,,,,,,,,,,,,,,,,,,,,,,,,,,,,,,206.53604710003128,None,left,1,1.5716041999985464,207.0371373000089,None,207.0371373000089,209.99232550000306,207.0371373000089,209.99232550000306,207.0371373000089,209.99232550000306,207.0371373000089,209.99232550000306,207.0371373000089,209.99232550000306,209.95785800000886,210.45857650000835,209.95785800000886,210.45857650000835,209.95785800000886,210.45857650000835,209.95785800000886,210.45857650000835,209.95785800000886,210.45857650000835,209.95785800000886,210.45857650000835,209.95785800000886,210.45857650000835,209.95785800000886,210.45857650000835,207.0371373000089,None,210.45857650000835,210.45857650000835,2.940000000000002,210.49187040003017,None,211.24338609998813,None,,,,,,,0,1.4300000000000008,0.75,11006,001,2024_Jan_01_1003,MFTM_A_new1021,2021.2.3,60.027036180308464,
,,,,,,,,stim/Instruction_adaptive.png,conditions/adaptive.xlsx,test,0.6,0.6,0.6,-0.6,-0.6,right,R,,,,,0,1,1,1,0,8,8,88,,,,,,,,,,,,,,,,,,,,,,,,,,,,,,,,,,,,,,,,,,,,211.74455450003734,None,right,1,1.404875100008212,212.24439950002125,None,212.24439950002125,214.69915760000004,212.24439950002125,214.69915760000004,212.24439950002125,214.69915760000004,212.24439950002125,214.69915760000004,212.24439950002125,214.69915760000004,214.66530430002604,215.1660480000428,214.66530430002604,215.1660480000428,214.66530430002604,215.1660480000428,214.66530430002604,215.1660480000428,214.66530430002604,215.1660480000428,214.66530430002604,215.1660480000428,214.66530430002604,215.1660480000428,214.66530430002604,215.1660480000428,212.24439950002125,None,215.1660480000428,215.1660480000428,2.440000000000002,215.19904249999672,None,215.95066080003744,None,,,,,,,0,1.630000000000001,0.7777777777777778,11006,001,2024_Jan_01_1003,MFTM_A_new1021,2021.2.3,60.027036180308464,
,,,,,,,,stim/Instruction_adaptive.png,conditions/adaptive.xlsx,test,0.6,0.6,0.6,-0.6,-0.6,right,R,,,,,0,1,1,1,0,9,9,54,,,,,,,,,,,,,,,,,,,,,,,,,,,,,,,,,,,,,,,,,,,,216.45094300003257,None,left,0,3.0644785000476986,216.9523058999912,219.58942430000752,216.9523058999912,219.0889870999963,216.9523058999912,219.0889870999963,216.9523058999912,219.0889870999963,216.9523058999912,219.0889870999963,216.9523058999912,219.0889870999963,219.0721342000179,219.572207899997,219.0721342000179,219.572207899997,219.0721342000179,219.572207899997,219.0721342000179,219.572207899997,219.0721342000179,219.572207899997,219.0721342000179,219.572207899997,219.0721342000179,219.572207899997,219.0721342000179,219.572207899997,216.9523058999912,None,219.572207899997,220.03914250002708,2.1300000000000017,220.05658790003508,None,220.80829760001507,None,,,,,,,0,1.1100000000000005,0.7,11006,001,2024_Jan_01_1003,MFTM_A_new1021,2021.2.3,60.027036180308464,
,,,,,,,,stim/Instruction_adaptive.png,conditions/adaptive.xlsx,test,0.6,0.6,0.6,-0.6,-0.6,right,R,,,,,0,1,1,1,0,10,10,38,,,,,,,,,,,,,,,,,,,,,,,,,,,,,,,,,,,,,,,,,,,,221.30912089999765,None,right,1,1.6634284000028856,221.80923160002567,None,221.80923160002567,224.81305799999973,221.80923160002567,224.81305799999973,221.80923160002567,224.81305799999973,221.80923160002567,224.81305799999973,221.80923160002567,224.81305799999973,224.79640039999504,225.2978834999958,224.79640039999504,225.2978834999958,224.79640039999504,225.2978834999958,224.79640039999504,225.2978834999958,224.79640039999504,225.2978834999958,224.79640039999504,225.2978834999958,224.79640039999504,225.2978834999958,224.79640039999504,225.2978834999958,221.80923160002567,None,225.2978834999958,225.2978834999958,3.0000000000000027,225.31444919999922,None,226.06559220002964,None,,,,,,,0,1.3200000000000007,0.7272727272727273,11006,001,2024_Jan_01_1003,MFTM_A_new1021,2021.2.3,60.027036180308464,
,,,,,,,,stim/Instruction_adaptive.png,conditions/adaptive.xlsx,test,-0.6,-0.6,-0.6,0.6,0.6,left,L,,,,,0,1,1,1,0,11,11,31,,,,,,,,,,,,,,,,,,,,,,,,,,,,,,,,,,,,,,,,,,,,226.5664664999931,None,left,1,2.214257199957501,227.06630649999715,None,227.06630649999715,229.72071100003086,227.06630649999715,229.72071100003086,227.06630649999715,229.72071100003086,227.06630649999715,229.72071100003086,227.06630649999715,229.72071100003086,229.68724010000005,230.18758600001456,229.68724010000005,230.18758600001456,229.68724010000005,230.18758600001456,229.68724010000005,230.18758600001456,229.68724010000005,230.18758600001456,229.68724010000005,230.18758600001456,229.68724010000005,230.18758600001456,229.68724010000005,230.18758600001456,227.06630649999715,None,230.18758600001456,230.18758600001456,2.6400000000000023,230.22167990001617,None,230.9730785000138,None,,,,,,,0,1.4900000000000009,0.75,11006,001,2024_Jan_01_1003,MFTM_A_new1021,2021.2.3,60.027036180308464,
,,,,,,,,stim/Instruction_adaptive.png,conditions/adaptive.xlsx,test,0.6,0.6,0.6,-0.6,-0.6,right,R,,,,,0,1,1,1,0,12,12,26,,,,,,,,,,,,,,,,,,,,,,,,,,,,,,,,,,,,,,,,,,,,231.47326540003996,None,right,1,1.6191541000152938,231.9743676999933,None,231.9743676999933,234.3271424000268,231.9743676999933,234.3271424000268,231.9743676999933,234.3271424000268,231.9743676999933,234.3271424000268,231.9743676999933,234.3271424000268,234.29384699999355,234.7947193,234.29384699999355,234.7947193,234.29384699999355,234.7947193,234.29384699999355,234.7947193,234.29384699999355,234.7947193,234.29384699999355,234.7947193,234.29384699999355,234.7947193,234.29384699999355,234.7947193,231.9743676999933,None,234.7947193,234.7947193,2.3400000000000016,234.82856550003635,None,235.57971479999833,None,,,,,,,0,1.630000000000001,0.7692307692307693,11006,001,2024_Jan_01_1003,MFTM_A_new1021,2021.2.3,60.027036180308464,
,,,,,,,,stim/Instruction_adaptive.png,conditions/adaptive.xlsx,test,-0.6,-0.6,-0.6,0.6,0.6,left,L,,,,,0,1,1,1,0,13,13,83,,,,,,,,,,,,,,,,,,,,,,,,,,,,,,,,,,,,,,,,,,,,236.08005809999304,None,left,1,2.723348600033205,236.58148059999803,239.21831080003176,236.58148059999803,238.71830670000054,236.58148059999803,238.71830670000054,236.58148059999803,238.71830670000054,236.58148059999803,238.71830670000054,236.58148059999803,238.71830670000054,238.70039950002683,239.2011069,238.70039950002683,239.2011069,238.70039950002683,239.2011069,238.70039950002683,239.2011069,238.70039950002683,239.2011069,238.70039950002683,239.2011069,238.70039950002683,239.2011069,238.70039950002683,239.2011069,236.58148059999803,None,239.2011069,239.33475400001043,2.1300000000000017,239.35138850001385,None,240.10292279999703,None,,,,,,,0,1.750000000000001,0.7857142857142857,11006,001,2024_Jan_01_1003,MFTM_A_new1021,2021.2.3,60.027036180308464,
,,,,,,,,stim/Instruction_adaptive.png,conditions/adaptive.xlsx,test,0.6,0.6,0.6,-0.6,-0.6,right,R,,,,,0,1,1,1,0,14,14,10,,,,,,,,,,,,,,,,,,,,,,,,,,,,,,,,,,,,,,,,,,,,240.60389860003488,None,right,1,1.4566902999649756,241.104703399993,None,241.104703399993,243.07390980003402,241.104703399993,243.07390980003402,241.104703399993,243.07390980003402,241.104703399993,243.07390980003402,241.104703399993,243.07390980003402,243.04007109999657,243.54159040004015,243.04007109999657,243.54159040004015,243.04007109999657,243.54159040004015,243.04007109999657,243.54159040004015,243.04007109999657,243.54159040004015,243.04007109999657,243.54159040004015,243.04007109999657,243.54159040004015,243.04007109999657,243.54159040004015,241.104703399993,None,243.54159040004015,243.54159040004015,1.9600000000000015,243.57459630002268,None,244.32519820000743,None,,,,,,,0,1.8600000000000012,0.8,11006,001,2024_Jan_01_1003,MFTM_A_new1021,2021.2.3,60.027036180308464,
,,,,,,,,stim/Instruction_adaptive.png,conditions/adaptive.xlsx,test,-0.6,-0.6,-0.6,0.6,0.6,left,L,,,,,0,1,1,1,0,15,15,67,,,,,,,,,,,,,,,,,,,,,,,,,,,,,,,,,,,,,,,,,,,,244.8260011000093,None,left,1,1.1288521999958903,245.3277805999969,None,245.3277805999969,247.1469933000044,245.3277805999969,247.1469933000044,245.3277805999969,247.1469933000044,245.3277805999969,247.1469933000044,245.3277805999969,247.1469933000044,247.11337949999142,247.6142947000335,247.11337949999142,247.6142947000335,247.11337949999142,247.6142947000335,247.11337949999142,247.6142947000335,247.11337949999142,247.6142947000335,247.11337949999142,247.6142947000335,247.11337949999142,247.6142947000335,247.11337949999142,247.6142947000335,245.3277805999969,None,247.6142947000335,247.6142947000335,1.8100000000000014,247.64749310002662,None,248.39871870004572,None,,,,,,,0,1.9600000000000013,0.8125,11006,001,2024_Jan_01_1003,MFTM_A_new1021,2021.2.3,60.027036180308464,
,,,,,,,,stim/Instruction_adaptive.png,conditions/adaptive.xlsx,test,0.6,0.6,0.6,-0.6,-0.6,right,R,,,,,0,1,1,1,0,16,16,24,,,,,,,,,,,,,,,,,,,,,,,,,,,,,,,,,,,,,,,,,,,,248.89943580003455,None,right,1,3.209790900000371,249.3993899000343,251.60361220000777,249.3993899000343,251.1025299000321,249.3993899000343,251.1025299000321,249.3993899000343,251.1025299000321,249.3993899000343,251.1025299000321,249.3993899000343,251.1025299000321,251.06959379999898,251.57055840000976,251.06959379999898,251.57055840000976,251.06959379999898,251.57055840000976,251.06959379999898,251.57055840000976,251.06959379999898,251.57055840000976,251.06959379999898,251.57055840000976,251.06959379999898,251.57055840000976,251.06959379999898,251.57055840000976,249.3993899000343,None,251.57055840000976,252.63835170003586,1.6900000000000013,252.65444370004116,None,253.40581760002533,None,,,,,,,[0.01647059],2.0400000000000014,0.8235294117647058,11006,001,2024_Jan_01_1003,MFTM_A_new1021,2021.2.3,60.027036180308464,
,,,,,,,,stim/Instruction_adaptive.png,conditions/adaptive.xlsx,test,-0.6,-0.6,-0.6,0.6,0.6,left,L,,,,,0,1,1,1,0,17,17,1,,,,,,,,,,,,,,,,,,,,,,,,,,,,,,,,,,,,,,,,,,,,253.90706330002286,None,left,1,1.3931477000005543,254.40759960003197,256.51008840004215,254.40759960003197,256.00954920001095,254.40759960003197,256.00954920001095,254.40759960003197,256.00954920001095,254.40759960003197,256.00954920001095,254.40759960003197,256.00954920001095,255.99281010002596,256.494239200023,255.99281010002596,256.494239200023,255.99281010002596,256.494239200023,255.99281010002596,256.494239200023,255.99281010002596,256.494239200023,255.99281010002596,256.494239200023,255.99281010002596,256.494239200023,255.99281010002596,256.494239200023,254.40759960003197,None,256.494239200023,256.5608943999978,1.6000000000000012,256.57673810003325,None,257.3278758000233,None,,,,,,,[0.06555556],2.1200000000000014,0.8333333333333334,11006,001,2024_Jan_01_1003,MFTM_A_new1021,2021.2.3,60.027036180308464,
,,,,,,,,stim/Instruction_adaptive.png,conditions/adaptive.xlsx,test,-0.6,-0.6,-0.6,0.6,0.6,left,L,,,,,0,1,1,1,0,18,18,71,,,,,,,,,,,,,,,,,,,,,,,,,,,,,,,,,,,,,,,,,,,,257.82966400001897,None,left,1,1.5516690000076778,258.3294709000038,260.34954100003233,258.3294709000038,259.84820569999283,258.3294709000038,259.84820569999283,258.3294709000038,259.84820569999283,258.3294709000038,259.84820569999283,258.3294709000038,259.84820569999283,259.815720100014,260.3157102999976,259.815720100014,260.3157102999976,259.815720100014,260.3157102999976,259.815720100014,260.3157102999976,259.815720100014,260.3157102999976,259.815720100014,260.3157102999976,259.815720100014,260.3157102999976,259.815720100014,260.3157102999976,258.3294709000038,None,260.3157102999976,260.43372770003043,1.5100000000000011,260.4664241000428,None,261.217627200007,None,,,,,,,[0.11421053],2.2000000000000015,0.8421052631578947,11006,001,2024_Jan_01_1003,MFTM_A_new1021,2021.2.3,60.027036180308464,
,,,,,,,,stim/Instruction_adaptive.png,conditions/adaptive.xlsx,test,0.6,0.6,0.6,-0.6,-0.6,right,R,,,,,0,1,1,1,0,19,19,44,,,,,,,,,,,,,,,,,,,,,,,,,,,,,,,,,,,,,,,,,,,,261.7180079999962,None,right,1,3.255730999982916,262.21835560002364,264.1553118000156,262.21835560002364,263.6548579999944,262.21835560002364,263.6548579999944,262.21835560002364,263.6548579999944,262.21835560002364,263.6548579999944,262.21835560002364,263.6548579999944,263.6378975000116,264.13864850002574,263.6378975000116,264.13864850002574,263.6378975000116,264.13864850002574,263.6378975000116,264.13864850002574,263.6378975000116,264.13864850002574,263.6378975000116,264.13864850002574,263.6378975000116,264.13864850002574,263.6378975000116,264.13864850002574,262.21835560002364,None,264.13864850002574,265.4903228000039,1.430000000000001,265.50675470003625,None,266.25802870001644,None,,,,,,,[0.162],2.2700000000000014,0.85,11006,001,2024_Jan_01_1003,MFTM_A_new1021,2021.2.3,60.027036180308464,
,,,,,,,,stim/Instruction_adaptive.png,conditions/adaptive.xlsx,test,0.6,0.6,0.6,-0.6,-0.6,right,R,,,,,0,1,1,1,0,20,20,20,,,,,,,,,,,,,,,,,,,,,,,,,,,,,,,,,,,,,,,,,,,,266.7590855000308,None,right,1,1.9894321999745443,267.2593036000035,269.12899719999405,267.2593036000035,268.62795679998817,267.2593036000035,268.62795679998817,267.2593036000035,268.62795679998817,267.2593036000035,268.62795679998817,267.2593036000035,268.62795679998817,268.59461430000374,269.09526450000703,268.59461430000374,269.09526450000703,268.59461430000374,269.09526450000703,268.59461430000374,269.09526450000703,268.59461430000374,269.09526450000703,268.59461430000374,269.09526450000703,268.59461430000374,269.09526450000703,268.59461430000374,269.09526450000703,267.2593036000035,None,269.09526450000703,269.3127934000222,1.360000000000001,269.3289902000106,None,270.0803341999999,None,,,,,,,[0.20857143],2.3400000000000016,0.8571428571428571,11006,001,2024_Jan_01_1003,MFTM_A_new1021,2021.2.3,60.027036180308464,
,,,,,,,,stim/Instruction_adaptive.png,conditions/adaptive.xlsx,test,-0.6,-0.6,-0.6,0.6,0.6,left,L,,,,,0,1,1,1,0,21,21,79,,,,,,,,,,,,,,,,,,,,,,,,,,,,,,,,,,,,,,,,,,,,270.5813237000257,None,left,1,2.831572099996265,271.0817257000017,272.8850870000315,271.0817257000017,272.384180699999,271.0817257000017,272.384180699999,271.0817257000017,272.384180699999,271.0817257000017,272.384180699999,271.0817257000017,272.384180699999,272.3671999000362,272.868241499993,272.3671999000362,272.868241499993,272.3671999000362,272.868241499993,272.3671999000362,272.868241499993,272.3671999000362,272.868241499993,272.3671999000362,272.868241499993,272.3671999000362,272.868241499993,272.3671999000362,272.868241499993,271.0817257000017,None,272.868241499993,273.93591910001123,1.300000000000001,273.9526143000112,None,274.7048109000316,None,,,,,,,[0.25363636],2.4000000000000017,0.8636363636363636,11006,001,2024_Jan_01_1003,MFTM_A_new1021,2021.2.3,60.027036180308464,
,,,,,,,,stim/Instruction_adaptive.png,conditions/adaptive.xlsx,test,-0.6,-0.6,-0.6,0.6,0.6,left,L,,,,,0,1,1,1,0,22,22,51,,,,,,,,,,,,,,,,,,,,,,,,,,,,,,,,,,,,,,,,,,,,275.20527800003765,None,right,0,3.063544499978889,275.7051330000395,277.4590767000336,275.7051330000395,276.95779200003017,275.7051330000395,276.95779200003017,275.7051330000395,276.95779200003017,275.7051330000395,276.95779200003017,275.7051330000395,276.95779200003017,276.94033549999585,277.4410324000055,276.94033549999585,277.4410324000055,276.94033549999585,277.4410324000055,276.94033549999585,277.4410324000055,276.94033549999585,277.4410324000055,276.94033549999585,277.4410324000055,276.94033549999585,277.4410324000055,276.94033549999585,277.4410324000055,275.7051330000395,None,277.4410324000055,278.79329250002047,1.2500000000000009,278.8097299000365,None,279.56330580002395,None,,,,,,,[0.29695652],2.2200000000000015,0.8260869565217391,11006,001,2024_Jan_01_1003,MFTM_A_new1021,2021.2.3,60.027036180308464,
,,,,,,,,stim/Instruction_adaptive.png,conditions/adaptive.xlsx,test,-0.6,-0.6,-0.6,0.6,0.6,left,L,,,,,0,1,1,1,0,23,23,97,,,,,,,,,,,,,,,,,,,,,,,,,,,,,,,,,,,,,,,,,,,,280.06269570003496,None,left,1,1.8139673999976367,280.56321940000635,282.48190200002864,280.56321940000635,281.9813997000456,280.56321940000635,281.9813997000456,280.56321940000635,281.9813997000456,280.56321940000635,281.9813997000456,280.56321940000635,281.9813997000456,281.94807530002436,282.44845279998844,281.94807530002436,282.44845279998844,281.94807530002436,282.44845279998844,281.94807530002436,282.44845279998844,281.94807530002436,282.44845279998844,281.94807530002436,282.44845279998844,281.94807530002436,282.44845279998844,281.94807530002436,282.44845279998844,280.56321940000635,None,282.44845279998844,282.7834249000298,1.410000000000001,282.81519759999355,None,283.56724520004354,None,,,,,,,[0.33],2.290000000000002,0.8333333333333334,11006,001,2024_Jan_01_1003,MFTM_A_new1021,2021.2.3,60.027036180308464,
,,,,,,,,stim/Instruction_adaptive.png,conditions/adaptive.xlsx,test,-0.6,-0.6,-0.6,0.6,0.6,left,L,,,,,0,1,1,1,0,24,24,55,,,,,,,,,,,,,,,,,,,,,,,,,,,,,,,,,,,,,,,,,,,,284.0686313000042,None,left,1,1.8878247999818996,284.56907070003217,286.4211048000143,284.56907070003217,285.92124590004096,284.56907070003217,285.92124590004096,284.56907070003217,285.92124590004096,284.56907070003217,285.92124590004096,284.56907070003217,285.92124590004096,285.9043566000182,286.4047926000203,285.9043566000182,286.4047926000203,285.9043566000182,286.4047926000203,285.9043566000182,286.4047926000203,285.9043566000182,286.4047926000203,285.9043566000182,286.4047926000203,285.9043566000182,286.4047926000203,285.9043566000182,286.4047926000203,284.56907070003217,None,286.4047926000203,286.7721531999996,1.350000000000001,286.78856120002456,None,287.53995010000654,None,,,,,,,[0.3628],2.3400000000000016,0.84,11006,001,2024_Jan_01_1003,MFTM_A_new1021,2021.2.3,60.027036180308464,
,,,,,,,,stim/Instruction_adaptive.png,conditions/adaptive.xlsx,test,0.6,0.6,0.6,-0.6,-0.6,right,R,,,,,0,1,1,1,0,25,25,8,,,,,,,,,,,,,,,,,,,,,,,,,,,,,,,,,,,,,,,,,,,,288.04015860002255,None,right,1,1.5721202999702655,288.54111170000397,290.3443213000428,288.54111170000397,289.8435593000031,288.54111170000397,289.8435593000031,288.54111170000397,289.8435593000031,288.54111170000397,289.8435593000031,288.54111170000397,289.8435593000031,289.8267152000335,290.32667260000017,289.8267152000335,290.32667260000017,289.8267152000335,290.32667260000017,289.8267152000335,290.32667260000017,289.8267152000335,290.32667260000017,289.8267152000335,290.32667260000017,289.8267152000335,290.32667260000017,289.8267152000335,290.32667260000017,288.54111170000397,None,290.32667260000017,290.72824590001255,1.300000000000001,290.7440315000131,None,291.4955278999987,None,,,,,,,[0.395],2.4000000000000017,0.8461538461538461,11006,001,2024_Jan_01_1003,MFTM_A_new1021,2021.2.3,60.027036180308464,
,,,,,,,,stim/Instruction_adaptive.png,conditions/adaptive.xlsx,test,0.6,0.6,0.6,-0.6,-0.6,right,R,,,,,0,1,1,1,0,26,26,72,,,,,,,,,,,,,,,,,,,,,,,,,,,,,,,,,,,,,,,,,,,,291.9972066000337,None,right,1,1.863515799981542,292.49737970001297,294.2500200000359,292.49737970001297,293.74983330001123,292.49737970001297,293.74983330001123,292.49737970001297,293.74983330001123,292.49737970001297,293.74983330001123,292.49737970001297,293.74983330001123,293.73201370000606,294.2330037000356,293.73201370000606,294.2330037000356,293.73201370000606,294.2330037000356,293.73201370000606,294.2330037000356,293.73201370000606,294.2330037000356,293.73201370000606,294.2330037000356,293.73201370000606,294.2330037000356,293.73201370000606,294.2330037000356,292.49737970001297,None,294.2330037000356,294.66731220000656,1.2500000000000009,294.68329640000593,None,295.4351520999917,None,,,,,,,[0.42666667],2.450000000000002,0.8518518518518519,11006,001,2024_Jan_01_1003,MFTM_A_new1021,2021.2.3,60.027036180308464,
,,,,,,,,stim/Instruction_adaptive.png,conditions/adaptive.xlsx,test,-0.6,-0.6,-0.6,0.6,0.6,left,L,,,,,0,1,1,1,0,27,27,17,,,,,,,,,,,,,,,,,,,,,,,,,,,,,,,,,,,,,,,,,,,,295.9352374000009,None,right,0,3.189925900020171,296.4359267000109,298.13937680004165,296.4359267000109,297.6378064000164,296.4359267000109,297.6378064000164,296.4359267000109,297.6378064000164,296.4359267000109,297.6378064000164,296.4359267000109,297.6378064000164,297.6224443000392,298.12259270000504,297.6224443000392,298.12259270000504,297.6224443000392,298.12259270000504,297.6224443000392,298.12259270000504,297.6224443000392,298.12259270000504,297.6224443000392,298.12259270000504,297.6224443000392,298.12259270000504,297.6224443000392,298.12259270000504,296.4359267000109,None,298.12259270000504,299.64096920000156,1.2000000000000008,299.65712200000416,None,300.4095249000238,None,,,,,,,[0.45785714],2.3000000000000016,0.8214285714285714,11006,001,2024_Jan_01_1003,MFTM_A_new1021,2021.2.3,60.027036180308464,
,,,,,,,,stim/Instruction_adaptive.png,conditions/adaptive.xlsx,test,-0.6,-0.6,-0.6,0.6,0.6,left,L,,,,,0,1,1,1,0,28,28,11,,,,,,,,,,,,,,,,,,,,,,,,,,,,,,,,,,,,,,,,,,,,300.9088921000366,None,left,1,2.326741299999412,301.4106100000208,303.263409200008,301.4106100000208,302.7626088000252,301.4106100000208,302.7626088000252,301.4106100000208,302.7626088000252,301.4106100000208,302.7626088000252,301.4106100000208,302.7626088000252,302.72885320003843,303.2297860000399,302.72885320003843,303.2297860000399,302.72885320003843,303.2297860000399,302.72885320003843,303.2297860000399,302.72885320003843,303.2297860000399,302.72885320003843,303.2297860000399,302.72885320003843,303.2297860000399,302.72885320003843,303.2297860000399,301.4106100000208,None,303.2297860000399,303.7636532000033,1.340000000000001,303.7801873999997,None,304.5318344000261,None,,,,,,,[0.48206897],2.3500000000000014,0.8275862068965517,11006,001,2024_Jan_01_1003,MFTM_A_new1021,2021.2.3,60.027036180308464,
,,,,,,,,stim/Instruction_adaptive.png,conditions/adaptive.xlsx,test,0.6,0.6,0.6,-0.6,-0.6,right,R,,,,,0,1,1,1,0,29,29,78,,,,,,,,,,,,,,,,,,,,,,,,,,,,,,,,,,,,,,,,,,,,305.0322427999927,None,right,1,1.9073430999997072,305.5334800000419,307.3367169999983,305.5334800000419,306.8344951000181,305.5334800000419,306.8344951000181,305.5334800000419,306.8344951000181,305.5334800000419,306.8344951000181,305.5334800000419,306.8344951000181,306.8015572000295,307.3020845000283,306.8015572000295,307.3020845000283,306.8015572000295,307.3020845000283,306.8015572000295,307.3020845000283,306.8015572000295,307.3020845000283,306.8015572000295,307.3020845000283,306.8015572000295,307.3020845000283,306.8015572000295,307.3020845000283,305.5334800000419,None,307.3020845000283,307.82004620000953,1.290000000000001,307.8366862999974,None,308.58802870003274,None,,,,,,,[0.50633333],2.4000000000000017,0.8333333333333334,11006,001,2024_Jan_01_1003,MFTM_A_new1021,2021.2.3,60.027036180308464,
,,,,,,,,stim/Instruction_adaptive.png,conditions/adaptive.xlsx,test,0.6,0.6,0.6,-0.6,-0.6,right,R,,,,,0,1,1,1,0,30,30,70,,,,,,,,,,,,,,,,,,,,,,,,,,,,,,,,,,,,,,,,,,,,309.0882112000254,None,None,0,0,309.588607600017,311.34191860002466,309.588607600017,310.84117269999115,309.588607600017,310.84117269999115,309.588607600017,310.84117269999115,309.588607600017,310.84117269999115,309.588607600017,310.84117269999115,310.82501970004523,311.32514540001284,310.82501970004523,311.32514540001284,310.82501970004523,311.32514540001284,310.82501970004523,311.32514540001284,310.82501970004523,311.32514540001284,310.82501970004523,311.32514540001284,310.82501970004523,311.32514540001284,310.82501970004523,311.32514540001284,309.588607600017,None,311.32514540001284,313.07798360002926,1.2500000000000009,313.1114305999945,None,313.86227440001676,None,,,,,,,[[1.75]],2.2600000000000016,0.8064516129032258,11006,001,2024_Jan_01_1003,MFTM_A_new1021,2021.2.3,60.027036180308464,
,,,,,,,,stim/Instruction_adaptive.png,conditions/adaptive.xlsx,test,-0.6,-0.6,-0.6,0.6,0.6,left,L,,,,,0,1,1,1,0,31,31,23,,,,,,,,,,,,,,,,,,,,,,,,,,,,,,,,,,,,,,,,,,,,314.3645099000423,None,left,1,2.14482800004771,314.8641265000333,316.7492429999984,314.8641265000333,316.2487437000382,314.8641265000333,316.2487437000382,314.8641265000333,316.2487437000382,314.8641265000333,316.2487437000382,314.8641265000333,316.2487437000382,316.21544540004106,316.7159012000193,316.21544540004106,316.7159012000193,316.21544540004106,316.7159012000193,316.21544540004106,316.7159012000193,316.21544540004106,316.7159012000193,316.21544540004106,316.7159012000193,316.21544540004106,316.7159012000193,316.21544540004106,316.7159012000193,314.8641265000333,None,316.7159012000193,317.26748410001164,1.370000000000001,317.2833240000182,None,318.03511170001,None,,,,,,,[0.5490625],2.3100000000000014,0.8125,11006,001,2024_Jan_01_1003,MFTM_A_new1021,2021.2.3,60.027036180308464,
,,,,,,,,stim/Instruction_adaptive.png,conditions/adaptive.xlsx,test,0.6,0.6,0.6,-0.6,-0.6,right,R,,,,,0,1,1,1,0,32,32,50,,,,,,,,,,,,,,,,,,,,,,,,,,,,,,,,,,,,,,,,,,,,318.5350180999958,None,left,0,2.420583799947053,319.03653929999564,320.87274449999677,319.03653929999564,320.3720638999948,319.03653929999564,320.3720638999948,319.03653929999564,320.3720638999948,319.03653929999564,320.3720638999948,319.03653929999564,320.3720638999948,320.3555019000196,320.85635730001377,320.3555019000196,320.85635730001377,320.3555019000196,320.85635730001377,320.3555019000196,320.85635730001377,320.3555019000196,320.85635730001377,320.3555019000196,320.85635730001377,320.3555019000196,320.85635730001377,320.3555019000196,320.85635730001377,319.03653929999564,None,320.85635730001377,321.4731266000308,1.330000000000001,321.4894468000275,None,322.2414352000342,None,,,,,,,[0.56787879],2.1700000000000017,0.7878787878787878,11006,001,2024_Jan_01_1003,MFTM_A_new1021,2021.2.3,60.027036180308464,
,,,,,,,,stim/Instruction_adaptive.png,conditions/adaptive.xlsx,test,-0.6,-0.6,-0.6,0.6,0.6,left,L,,,,,0,1,1,1,0,33,33,35,,,,,,,,,,,,,,,,,,,,,,,,,,,,,,,,,,,,,,,,,,,,322.74183340003947,None,left,1,1.7265017000027,323.242562600004,325.2126453000237,323.242562600004,324.71157099999255,323.242562600004,324.71157099999255,323.242562600004,324.71157099999255,323.242562600004,324.71157099999255,323.242562600004,324.71157099999255,324.67845659999875,325.17950369999744,324.67845659999875,325.17950369999744,324.67845659999875,325.17950369999744,324.67845659999875,325.17950369999744,324.67845659999875,325.17950369999744,324.67845659999875,325.17950369999744,324.67845659999875,325.17950369999744,324.67845659999875,325.17950369999744,323.242562600004,None,325.17950369999744,325.7630778999883,1.460000000000001,325.79670820001047,None,326.5479420000338,None,,,,,,,[0.58176471],2.2200000000000015,0.7941176470588235,11006,001,2024_Jan_01_1003,MFTM_A_new1021,2021.2.3,60.027036180308464,
,,,,,,,,stim/Instruction_adaptive.png,conditions/adaptive.xlsx,test,-0.6,-0.6,-0.6,0.6,0.6,left,L,,,,,0,1,1,1,0,34,34,27,,,,,,,,,,,,,,,,,,,,,,,,,,,,,,,,,,,,,,,,,,,,327.04822280001827,None,left,1,1.6522179000312462,327.54947790002916,329.4687456000247,327.54947790002916,328.9675184999942,327.54947790002916,328.9675184999942,327.54947790002916,328.9675184999942,327.54947790002916,328.9675184999942,327.54947790002916,328.9675184999942,328.93407409999054,329.43523270002333,328.93407409999054,329.43523270002333,328.93407409999054,329.43523270002333,328.93407409999054,329.43523270002333,328.93407409999054,329.43523270002333,328.93407409999054,329.43523270002333,328.93407409999054,329.43523270002333,328.93407409999054,329.43523270002333,327.54947790002916,None,329.43523270002333,330.0370144000044,1.410000000000001,330.06907389999833,None,330.82115239999257,None,,,,,,,[0.59628571],2.2700000000000014,0.8,11006,001,2024_Jan_01_1003,MFTM_A_new1021,2021.2.3,60.027036180308464,
,,,,,,,,stim/Instruction_adaptive.png,conditions/adaptive.xlsx,test,-0.6,-0.6,-0.6,0.6,0.6,left,L,,,,,0,1,1,1,0,35,35,95,,,,,,,,,,,,,,,,,,,,,,,,,,,,,,,,,,,,,,,,,,,,331.32147900003474,None,left,1,2.082982699968852,331.8221925999969,333.6915713000344,331.8221925999969,333.1911194000277,331.8221925999969,333.1911194000277,331.8221925999969,333.1911194000277,331.8221925999969,333.1911194000277,331.8221925999969,333.1911194000277,333.15701520000584,333.65838199999416,333.15701520000584,333.65838199999416,333.15701520000584,333.65838199999416,333.15701520000584,333.65838199999416,333.15701520000584,333.65838199999416,333.15701520000584,333.65838199999416,333.15701520000584,333.65838199999416,333.15701520000584,333.65838199999416,331.8221925999969,None,333.65838199999416,334.27599749999354,1.360000000000001,334.29180770000676,None,335.0444618000183,None,,,,,,,[0.61138889],2.3100000000000014,0.8055555555555556,11006,001,2024_Jan_01_1003,MFTM_A_new1021,2021.2.3,60.027036180308464,
,,,,,,,,stim/Instruction_adaptive.png,conditions/adaptive.xlsx,test,0.6,0.6,0.6,-0.6,-0.6,right,R,,,,,0,1,1,1,0,36,36,46,,,,,,,,,,,,,,,,,,,,,,,,,,,,,,,,,,,,,,,,,,,,335.54431070003193,None,right,1,2.2273661000072025,336.0454482000205,337.88118910003686,336.0454482000205,337.38063259999035,336.0454482000205,337.38063259999035,336.0454482000205,337.38063259999035,336.0454482000205,337.38063259999035,336.0454482000205,337.38063259999035,337.3636756000342,337.8641501000384,337.3636756000342,337.8641501000384,337.3636756000342,337.8641501000384,337.3636756000342,337.8641501000384,337.3636756000342,337.8641501000384,337.3636756000342,337.8641501000384,337.3636756000342,337.8641501000384,337.3636756000342,337.8641501000384,336.0454482000205,None,337.8641501000384,338.4984792000032,1.330000000000001,338.51557230000617,None,339.2669046000228,None,,,,,,,[0.62648649],2.3500000000000014,0.8108108108108109,11006,001,2024_Jan_01_1003,MFTM_A_new1021,2021.2.3,60.027036180308464,
,,,,,,,,stim/Instruction_adaptive.png,conditions/adaptive.xlsx,test,0.6,0.6,0.6,-0.6,-0.6,right,R,,,,,0,1,1,1,0,37,37,96,,,,,,,,,,,,,,,,,,,,,,,,,,,,,,,,,,,,,,,,,,,,339.76710250001634,None,left,0,2.589485100004822,340.2674197999877,342.0707906000316,340.2674197999877,341.57136619999073,340.2674197999877,341.57136619999073,340.2674197999877,341.57136619999073,340.2674197999877,341.57136619999073,340.2674197999877,341.57136619999073,341.5363859999925,342.03661579999607,341.5363859999925,342.03661579999607,341.5363859999925,342.03661579999607,341.5363859999925,342.03661579999607,341.5363859999925,342.03661579999607,341.5363859999925,342.03661579999607,341.5363859999925,342.03661579999607,341.5363859999925,342.03661579999607,340.2674197999877,None,342.03661579999607,342.8886964000412,1.290000000000001,342.904757100041,None,343.65574070002185,None,,,,,,,[0.64184211],2.2300000000000013,0.7894736842105263,11006,001,2024_Jan_01_1003,MFTM_A_new1021,2021.2.3,60.027036180308464,
,,,,,,,,stim/Instruction_adaptive.png,conditions/adaptive.xlsx,test,-0.6,-0.6,-0.6,0.6,0.6,left,L,,,,,0,1,1,1,0,38,38,91,,,,,,,,,,,,,,,,,,,,,,,,,,,,,,,,,,,,,,,,,,,,344.1565897000255,None,left,1,1.8469961999799125,344.65786330000265,346.5608101999969,344.65786330000265,346.06054030003725,344.65786330000265,346.06054030003725,344.65786330000265,346.06054030003725,344.65786330000265,346.06054030003725,344.65786330000265,346.06054030003725,346.0435193000012,346.54390240000794,346.0435193000012,346.54390240000794,346.0435193000012,346.54390240000794,346.0435193000012,346.54390240000794,346.0435193000012,346.54390240000794,346.0435193000012,346.54390240000794,346.0435193000012,346.54390240000794,346.0435193000012,346.54390240000794,344.65786330000265,None,346.54390240000794,None,1.400000000000001,347.2111120999907,None,347.9622570000356,None,,,,,,,[0.65358974],2.2700000000000014,0.7948717948717948,11006,001,2024_Jan_01_1003,MFTM_A_new1021,2021.2.3,60.027036180308464,
,,,,,,,,stim/Instruction_adaptive.png,conditions/adaptive.xlsx,test,-0.6,-0.6,-0.6,0.6,0.6,left,L,,,,,0,1,1,1,0,39,39,7,,,,,,,,,,,,,,,,,,,,,,,,,,,,,,,,,,,,,,,,,,,,348.4629527000361,None,left,1,1.612831600010395,348.9642312999931,350.83348410000326,348.9642312999931,350.3330149000394,348.9642312999931,350.3330149000394,348.9642312999931,350.3330149000394,348.9642312999931,350.3330149000394,348.9642312999931,350.3330149000394,350.2991958000348,350.79977750004036,350.2991958000348,350.79977750004036,350.2991958000348,350.79977750004036,350.2991958000348,350.79977750004036,350.2991958000348,350.79977750004036,350.2991958000348,350.79977750004036,350.2991958000348,350.79977750004036,350.2991958000348,350.79977750004036,348.9642312999931,None,350.79977750004036,351.4678002000437,1.360000000000001,351.50079860002734,None,352.2527999000158,None,,,,,,,[0.66575],2.3200000000000016,0.8,11006,001,2024_Jan_01_1003,MFTM_A_new1021,2021.2.3,60.027036180308464,
,,,,,,,,stim/Instruction_adaptive.png,conditions/adaptive.xlsx,test,0.6,0.6,0.6,-0.6,-0.6,right,R,,,,,0,1,1,1,0,40,40,94,,,,,,,,,,,,,,,,,,,,,,,,,,,,,,,,,,,,,,,,,,,,352.7531566999969,None,right,1,1.8191683999611996,353.25397439999506,355.0733103000093,353.25397439999506,354.5891847999883,353.25397439999506,354.5891847999883,353.25397439999506,354.5891847999883,353.25397439999506,354.5891847999883,353.25397439999506,354.5891847999883,354.55549310002243,355.0565048000426,354.55549310002243,355.0565048000426,354.55549310002243,355.0565048000426,354.55549310002243,355.0565048000426,354.55549310002243,355.0565048000426,354.55549310002243,355.0565048000426,354.55549310002243,355.0565048000426,354.55549310002243,355.0565048000426,353.25397439999506,None,355.0565048000426,355.74073409999255,1.320000000000001,355.75718910002615,None,356.50900820002425,None,,,,,,,[0.67829268],2.3500000000000014,0.8048780487804879,11006,001,2024_Jan_01_1003,MFTM_A_new1021,2021.2.3,60.027036180308464,
,,,,,,,,stim/Instruction_adaptive.png,conditions/adaptive.xlsx,test,-0.6,-0.6,-0.6,0.6,0.6,left,L,,,,,0,1,1,1,0,41,41,85,,,,,,,,,,,,,,,,,,,,,,,,,,,,,,,,,,,,,,,,,,,,357.0097520000418,None,left,1,2.4517214999650605,357.5096074999892,359.3125163000077,357.5096074999892,358.81206910003675,357.5096074999892,358.81206910003675,357.5096074999892,358.81206910003675,357.5096074999892,358.81206910003675,357.5096074999892,358.81206910003675,358.7790182000026,359.27979950001463,358.7790182000026,359.27979950001463,358.7790182000026,359.27979950001463,358.7790182000026,359.27979950001463,358.7790182000026,359.27979950001463,358.7790182000026,359.27979950001463,358.7790182000026,359.27979950001463,358.7790182000026,359.27979950001463,357.5096074999892,None,359.27979950001463,359.9806452000048,1.290000000000001,359.9969779000385,None,360.74887420004234,None,,,,,,,[0.69095238],2.3900000000000015,0.8095238095238095,11006,001,2024_Jan_01_1003,MFTM_A_new1021,2021.2.3,60.027036180308464,
,,,,,,,,stim/Instruction_adaptive.png,conditions/adaptive.xlsx,test,-0.6,-0.6,-0.6,0.6,0.6,left,L,,,,,0,1,1,1,0,42,42,77,,,,,,,,,,,,,,,,,,,,,,,,,,,,,,,,,,,,,,,,,,,,361.2489781000186,None,left,1,1.2911776000401005,361.7499578000279,363.51925140002277,361.7499578000279,363.0183807000285,361.7499578000279,363.0183807000285,361.7499578000279,363.0183807000285,361.7499578000279,363.0183807000285,361.7499578000279,363.0183807000285,362.98474020004505,363.4854350000387,362.98474020004505,363.4854350000387,362.98474020004505,363.4854350000387,362.98474020004505,363.4854350000387,362.98474020004505,363.4854350000387,362.98474020004505,363.4854350000387,362.98474020004505,363.4854350000387,362.98474020004505,363.4854350000387,361.7499578000279,None,363.4854350000387,364.2039720999892,1.260000000000001,364.2202186000068,None,364.9711839000229,None,,,,,,,[0.70372093],2.4300000000000015,0.813953488372093,11006,001,2024_Jan_01_1003,MFTM_A_new1021,2021.2.3,60.027036180308464,
,,,,,,,,stim/Instruction_adaptive.png,conditions/adaptive.xlsx,test,-0.6,-0.6,-0.6,0.6,0.6,left,L,,,,,0,1,1,1,0,43,43,13,,,,,,,,,,,,,,,,,,,,,,,,,,,,,,,,,,,,,,,,,,,,365.471530800045,None,left,1,1.5490884000319056,365.9728420000174,367.6920070000342,365.9728420000174,367.2074141000048,365.9728420000174,367.2074141000048,365.9728420000174,367.2074141000048,365.9728420000174,367.2074141000048,365.9728420000174,367.2074141000048,367.1750560000073,367.67589010001393,367.1750560000073,367.67589010001393,367.1750560000073,367.67589010001393,367.1750560000073,367.67589010001393,367.1750560000073,367.67589010001393,367.1750560000073,367.67589010001393,367.1750560000073,367.67589010001393,367.1750560000073,367.67589010001393,365.9728420000174,None,367.67589010001393,368.3929680000292,1.2200000000000009,368.4092284000362,None,369.1605785000138,None,,,,,,,[0.71681818],2.4700000000000015,0.8181818181818182,11006,001,2024_Jan_01_1003,MFTM_A_new1021,2021.2.3,60.027036180308464,
,,,,,,,,stim/Instruction_adaptive.png,conditions/adaptive.xlsx,test,-0.6,-0.6,-0.6,0.6,0.6,left,L,,,,,0,1,1,1,0,44,44,9,,,,,,,,,,,,,,,,,,,,,,,,,,,,,,,,,,,,,,,,,,,,369.66192400001455,None,left,1,1.5027889999910258,370.16245160001563,371.8650183000136,370.16245160001563,371.3642955000396,370.16245160001563,371.3642955000396,370.16245160001563,371.3642955000396,370.16245160001563,371.3642955000396,370.16245160001563,371.3642955000396,371.3309733000351,371.8311210999964,371.3309733000351,371.8311210999964,371.3309733000351,371.8311210999964,371.3309733000351,371.8311210999964,371.3309733000351,371.8311210999964,371.3309733000351,371.8311210999964,371.3309733000351,371.8311210999964,371.3309733000351,371.8311210999964,370.16245160001563,None,371.8311210999964,372.56564799998887,1.1900000000000008,372.5831117000198,None,373.3337221000111,None,,,,,,,[0.73],2.5000000000000018,0.8222222222222222,11006,001,2024_Jan_01_1003,MFTM_A_new1021,2021.2.3,60.027036180308464,
,,,,,,,,stim/Instruction_adaptive.png,conditions/adaptive.xlsx,test,-0.6,-0.6,-0.6,0.6,0.6,left,L,,,,,0,1,1,1,0,45,45,21,,,,,,,,,,,,,,,,,,,,,,,,,,,,,,,,,,,,,,,,,,,,373.8346015000134,None,left,1,1.4108839000109583,374.3345985999913,376.0044263000018,374.3345985999913,375.5041371000116,374.3345985999913,375.5041371000116,374.3345985999913,375.5041371000116,374.3345985999913,375.5041371000116,374.3345985999913,375.5041371000116,375.4863271000213,375.98774350003805,375.4863271000213,375.98774350003805,375.4863271000213,375.98774350003805,375.4863271000213,375.98774350003805,375.4863271000213,375.98774350003805,375.4863271000213,375.98774350003805,375.4863271000213,375.98774350003805,375.4863271000213,375.98774350003805,374.3345985999913,None,375.97062490001554,376.7221321000252,1.1600000000000008,376.73823640000774,None,377.48989640001673,None,,,,,,,[0.74326087],2.530000000000002,0.8260869565217391,11006,001,2024_Jan_01_1003,MFTM_A_new1021,2021.2.3,60.027036180308464,
,,,,,,,,stim/Instruction_adaptive.png,conditions/adaptive.xlsx,test,0.6,0.6,0.6,-0.6,-0.6,right,R,,,,,0,1,1,1,0,46,46,34,,,,,,,,,,,,,,,,,,,,,,,,,,,,,,,,,,,,,,,,,,,,377.9903430000413,None,right,1,1.5095020000007935,378.49144120002165,380.14334200002486,378.49144120002165,379.64350450003985,378.49144120002165,379.64350450003985,378.49144120002165,379.64350450003985,378.49144120002165,379.64350450003985,378.49144120002165,379.64350450003985,379.6095095000346,380.11067449999973,379.6095095000346,380.11067449999973,379.6095095000346,380.11067449999973,379.6095095000346,380.11067449999973,379.6095095000346,380.11067449999973,379.6095095000346,380.11067449999973,379.6095095000346,380.11067449999973,379.6095095000346,380.11067449999973,378.49144120002165,None,380.11067449999973,380.8781634999905,1.1400000000000008,380.89432409999426,None,381.6454316000454,None,,,,,,,[0.75638298],2.570000000000002,0.8297872340425532,11006,001,2024_Jan_01_1003,MFTM_A_new1021,2021.2.3,60.027036180308464,
,,,,,,,,stim/Instruction_adaptive.png,conditions/adaptive.xlsx,test,0.6,0.6,0.6,-0.6,-0.6,right,R,,,,,0,1,1,1,0,47,47,58,,,,,,,,,,,,,,,,,,,,,,,,,,,,,,,,,,,,,,,,,,,,382.1470124000334,None,right,1,1.7053546999813989,382.6475006000255,384.26655370002845,382.6475006000255,383.7653383000288,382.6475006000255,383.7653383000288,382.6475006000255,383.7653383000288,382.6475006000255,383.7653383000288,382.6475006000255,383.7653383000288,383.7321639000438,384.2334957999992,383.7321639000438,384.2334957999992,383.7321639000438,384.2334957999992,383.7321639000438,384.2334957999992,383.7321639000438,384.2334957999992,383.7321639000438,384.2334957999992,383.7321639000438,384.2334957999992,383.7321639000438,384.2334957999992,382.6475006000255,None,384.2334957999992,385.0170078999945,1.1100000000000008,385.03386349999346,None,385.7852100000018,None,,,,,,,[0.76958333],2.600000000000002,0.8333333333333334,11006,001,2024_Jan_01_1003,MFTM_A_new1021,2021.2.3,60.027036180308464,
,,,,,,,,stim/Instruction_adaptive.png,conditions/adaptive.xlsx,test,0.6,0.6,0.6,-0.6,-0.6,right,R,,,,,0,1,1,1,0,48,48,2,,,,,,,,,,,,,,,,,,,,,,,,,,,,,,,,,,,,,,,,,,,,386.28566009999486,None,right,1,1.4946301999734715,386.78642100002617,388.38955740001984,386.78642100002617,387.8879211000167,386.78642100002617,387.8879211000167,386.78642100002617,387.8879211000167,386.78642100002617,387.8879211000167,386.78642100002617,387.8879211000167,387.8547676000162,388.3554226999986,387.8547676000162,388.3554226999986,387.8547676000162,388.3554226999986,387.8547676000162,388.3554226999986,387.8547676000162,388.3554226999986,387.8547676000162,388.3554226999986,387.8547676000162,388.3554226999986,387.8547676000162,388.3554226999986,386.78642100002617,None,388.3554226999986,389.14072790002683,1.0900000000000007,389.1732268999913,None,389.92442260001553,None,,,,,,,[0.78265306],2.6300000000000017,0.8367346938775511,11006,001,2024_Jan_01_1003,MFTM_A_new1021,2021.2.3,60.027036180308464,
,,,,,,,,stim/Instruction_adaptive.png,conditions/adaptive.xlsx,test,0.6,0.6,0.6,-0.6,-0.6,right,R,,,,,0,1,1,1,0,49,49,22,,,,,,,,,,,,,,,,,,,,,,,,,,,,,,,,,,,,,,,,,,,,390.42522750003263,None,right,1,1.5707746000261977,390.9262948000105,392.495799300028,390.9262948000105,391.99425869999686,390.9262948000105,391.99425869999686,390.9262948000105,391.99425869999686,390.9262948000105,391.99425869999686,390.9262948000105,391.99425869999686,391.96148330002325,392.46221650001826,391.96148330002325,392.46221650001826,391.96148330002325,392.46221650001826,391.96148330002325,392.46221650001826,391.96148330002325,392.46221650001826,391.96148330002325,392.46221650001826,391.96148330002325,392.46221650001826,391.96148330002325,392.46221650001826,390.9262948000105,None,392.46221650001826,393.2626898000017,1.0600000000000007,393.29662810004083,None,394.047289500013,None,,,,,,,[0.7958],2.660000000000002,0.84,11006,001,2024_Jan_01_1003,MFTM_A_new1021,2021.2.3,60.027036180308464,
,,,,,,,,stim/Instruction_adaptive.png,conditions/adaptive.xlsx,test,-0.6,-0.6,-0.6,0.6,0.6,left,L,,,,,0,1,1,1,0,50,50,61,,,,,,,,,,,,,,,,,,,,,,,,,,,,,,,,,,,,,,,,,,,,394.54786170000443,None,left,1,1.4479388000327162,395.0495156000252,396.6012904000236,395.0495156000252,396.1002538999892,395.0495156000252,396.1002538999892,395.0495156000252,396.1002538999892,395.0495156000252,396.1002538999892,395.0495156000252,396.1002538999892,396.06688550004037,396.56787790003,396.06688550004037,396.56787790003,396.06688550004037,396.56787790003,396.06688550004037,396.56787790003,396.06688550004037,396.56787790003,396.06688550004037,396.56787790003,396.06688550004037,396.56787790003,396.06688550004037,396.56787790003,395.0495156000252,None,396.56787790003,397.38619879999897,1.0400000000000007,397.4028154000407,None,398.15420799999265,None,,,,,,,[0.80882353],2.690000000000002,0.8431372549019608,11006,001,2024_Jan_01_1003,MFTM_A_new1021,2021.2.3,60.027036180308464,
,,,,,,,,stim/Instruction_adaptive.png,conditions/adaptive.xlsx,test,0.6,0.6,0.6,-0.6,-0.6,right,R,,,,,0,1,1,1,0,51,51,42,,,,,,,,,,,,,,,,,,,,,,,,,,,,,,,,,,,,,,,,,,,,398.65406420000363,None,right,1,1.3662862000055611,399.15496610000264,400.67452940001385,399.15496610000264,400.1907460000366,399.15496610000264,400.1907460000366,399.15496610000264,400.1907460000366,399.15496610000264,400.1907460000366,399.15496610000264,400.1907460000366,400.15718899999047,400.65790310001466,400.15718899999047,400.65790310001466,400.15718899999047,400.65790310001466,400.15718899999047,400.65790310001466,400.15718899999047,400.65790310001466,400.15718899999047,400.65790310001466,400.15718899999047,400.65790310001466,400.15718899999047,400.65790310001466,399.15496610000264,None,400.65790310001466,401.49142780003604,1.0200000000000007,401.5081890000147,None,402.25988680002047,None,,,,,,,[0.82173077],2.7100000000000017,0.8461538461538461,11006,001,2024_Jan_01_1003,MFTM_A_new1021,2021.2.3,60.027036180308464,
,,,,,,,,stim/Instruction_adaptive.png,conditions/adaptive.xlsx,test,-0.6,-0.6,-0.6,0.6,0.6,left,L,,,,,0,1,1,1,0,52,52,93,,,,,,,,,,,,,,,,,,,,,,,,,,,,,,,,,,,,,,,,,,,,402.7612774000154,None,left,1,1.2761306000174955,403.2608983000391,404.77987790002953,403.2608983000391,404.2797835000092,403.2608983000391,404.2797835000092,403.2608983000391,404.2797835000092,403.2608983000391,404.2797835000092,403.2608983000391,404.2797835000092,404.24689930002205,404.7470585000119,404.24689930002205,404.7470585000119,404.24689930002205,404.7470585000119,404.24689930002205,404.7470585000119,404.24689930002205,404.7470585000119,404.24689930002205,404.7470585000119,404.24689930002205,404.7470585000119,404.24689930002205,404.7470585000119,403.2608983000391,None,404.7470585000119,405.5814817000064,1.0100000000000007,405.61445779999485,None,406.3654939000262,None,,,,,,,[0.83433962],2.740000000000002,0.8490566037735849,11006,001,2024_Jan_01_1003,MFTM_A_new1021,2021.2.3,60.027036180308464,
,,,,,,,,stim/Instruction_adaptive.png,conditions/adaptive.xlsx,test,0.6,0.6,0.6,-0.6,-0.6,right,R,,,,,0,1,1,1,0,53,53,0,,,,,,,,,,,,,,,,,,,,,,,,,,,,,,,,,,,,,,,,,,,,406.8668209000025,None,left,0,1.3292823000228964,407.3679942000308,408.8526089999941,407.3679942000308,408.351654099999,407.3679942000308,408.351654099999,407.3679942000308,408.351654099999,407.3679942000308,408.351654099999,407.3679942000308,408.351654099999,408.33490580000216,408.8359080000082,408.33490580000216,408.8359080000082,408.33490580000216,408.8359080000082,408.33490580000216,408.8359080000082,408.33490580000216,408.8359080000082,408.33490580000216,408.8359080000082,408.33490580000216,408.8359080000082,408.33490580000216,408.8359080000082,407.3679942000308,None,408.8359080000082,409.6873882000218,0.9800000000000006,409.70414839999285,None,410.45500549999997,None,,,,,,,[0.84703704],2.660000000000002,0.8333333333333334,11006,001,2024_Jan_01_1003,MFTM_A_new1021,2021.2.3,60.027036180308464,
,,,,,,,,stim/Instruction_adaptive.png,conditions/adaptive.xlsx,test,0.6,0.6,0.6,-0.6,-0.6,right,R,,,,,0,1,1,1,0,54,54,48,,,,,,,,,,,,,,,,,,,,,,,,,,,,,,,,,,,,,,,,,,,,410.9558924000012,None,right,1,1.280329699977301,411.4565894000116,413.0088490000344,411.4565894000116,412.50805890001357,411.4565894000116,412.50805890001357,411.4565894000116,412.50805890001357,411.4565894000116,412.50805890001357,411.4565894000116,412.50805890001357,412.47464490000857,412.9751610000385,412.47464490000857,412.9751610000385,412.47464490000857,412.9751610000385,412.47464490000857,412.9751610000385,412.47464490000857,412.9751610000385,412.47464490000857,412.9751610000385,412.47464490000857,412.9751610000385,412.47464490000857,412.9751610000385,411.4565894000116,None,412.9751610000385,413.8438220000244,1.0400000000000007,413.86053890001494,None,414.6116873000283,None,,,,,,,[0.85818182],2.690000000000002,0.8363636363636363,11006,001,2024_Jan_01_1003,MFTM_A_new1021,2021.2.3,60.027036180308464,
,,,,,,,,stim/Instruction_adaptive.png,conditions/adaptive.xlsx,test,-0.6,-0.6,-0.6,0.6,0.6,left,L,,,,,0,1,1,1,0,55,55,45,,,,,,,,,,,,,,,,,,,,,,,,,,,,,,,,,,,,,,,,,,,,415.11240969999926,None,left,1,1.5084270000224933,415.612522200041,417.14865680004004,415.612522200041,416.6479477999965,415.612522200041,416.6479477999965,415.612522200041,416.6479477999965,415.612522200041,416.6479477999965,415.612522200041,416.6479477999965,416.6147389000398,417.11463790002745,416.6147389000398,417.11463790002745,416.6147389000398,417.11463790002745,416.6147389000398,417.11463790002745,416.6147389000398,417.11463790002745,416.6147389000398,417.11463790002745,416.6147389000398,417.11463790002745,416.6147389000398,417.11463790002745,415.612522200041,None,417.11463790002745,417.98305510001956,1.0200000000000007,418.0167475999915,None,418.76758809998864,None,,,,,,,[0.86928571],2.720000000000002,0.8392857142857143,11006,001,2024_Jan_01_1003,MFTM_A_new1021,2021.2.3,60.027036180308464,
,,,,,,,,stim/Instruction_adaptive.png,conditions/adaptive.xlsx,test,0.6,0.6,0.6,-0.6,-0.6,right,R,,,,,0,1,1,1,0,56,56,4,,,,,,,,,,,,,,,,,,,,,,,,,,,,,,,,,,,,,,,,,,,,419.26857720001135,None,right,1,1.8082222000230104,419.768999300024,421.27171270002145,419.768999300024,420.7713886999991,419.768999300024,420.7713886999991,419.768999300024,420.7713886999991,419.768999300024,420.7713886999991,419.768999300024,420.7713886999991,420.75374780001584,421.25460420001764,420.75374780001584,421.25460420001764,420.75374780001584,421.25460420001764,420.75374780001584,421.25460420001764,420.75374780001584,421.25460420001764,420.75374780001584,421.25460420001764,420.75374780001584,421.25460420001764,420.75374780001584,421.25460420001764,419.768999300024,None,421.25460420001764,422.138873399992,1.0000000000000007,422.1558764000074,None,422.9073345999932,None,,,,,,,[0.88035088],2.740000000000002,0.8421052631578947,11006,001,2024_Jan_01_1003,MFTM_A_new1021,2021.2.3,60.027036180308464,
,,,,,,,,stim/Instruction_adaptive.png,conditions/adaptive.xlsx,test,0.6,0.6,0.6,-0.6,-0.6,right,R,,,,,0,1,1,1,0,57,57,84,,,,,,,,,,,,,,,,,,,,,,,,,,,,,,,,,,,,,,,,,,,,423.40816759999143,None,left,0,1.6123889000155032,423.9085459000198,425.3939610000234,423.9085459000198,424.893645300006,423.9085459000198,424.893645300006,423.9085459000198,424.893645300006,423.9085459000198,424.893645300006,423.9085459000198,424.893645300006,424.87633440003265,425.37708440003917,424.87633440003265,425.37708440003917,424.87633440003265,425.37708440003917,424.87633440003265,425.37708440003917,424.87633440003265,425.37708440003917,424.87633440003265,425.37708440003917,424.87633440003265,425.37708440003917,424.87633440003265,425.37708440003917,423.9085459000198,None,425.37708440003917,None,0.9800000000000006,426.278221799992,None,427.03002320003,None,,,,,,,[0.89137931],2.6700000000000017,0.8275862068965517,11006,001,2024_Jan_01_1003,MFTM_A_new1021,2021.2.3,60.027036180308464,
,,,,,,,,stim/Instruction_adaptive.png,conditions/adaptive.xlsx,test,-0.6,-0.6,-0.6,0.6,0.6,left,L,,,,,0,1,1,1,0,58,58,99,,,,,,,,,,,,,,,,,,,,,,,,,,,,,,,,,,,,,,,,,,,,427.53161960002035,None,left,1,1.305435899994336,428.0315903000301,429.56643510004506,428.0315903000301,429.0662145999959,428.0315903000301,429.0662145999959,428.0315903000301,429.0662145999959,428.0315903000301,429.0662145999959,428.0315903000301,429.0662145999959,429.0494623000268,429.55025720002595,429.0494623000268,429.55025720002595,429.0494623000268,429.55025720002595,429.0494623000268,429.55025720002595,429.0494623000268,429.55025720002595,429.0494623000268,429.55025720002595,429.0494623000268,429.55025720002595,429.0494623000268,429.55025720002595,428.0315903000301,None,429.55025720002595,430.4519079000456,1.0300000000000007,430.4678009999916,None,431.2196136999992,None,,,,,,,[0.90118644],2.690000000000002,0.8305084745762712,11006,001,2024_Jan_01_1003,MFTM_A_new1021,2021.2.3,60.027036180308464,
,,,,,,,,stim/Instruction_adaptive.png,conditions/adaptive.xlsx,test,0.6,0.6,0.6,-0.6,-0.6,right,R,,,,,0,1,1,1,0,59,59,92,,,,,,,,,,,,,,,,,,,,,,,,,,,,,,,,,,,,,,,,,,,,431.72045210003853,None,right,1,1.2533526999759488,432.22048389998963,433.73974889999954,432.22048389998963,433.23932430002606,432.22048389998963,433.23932430002606,432.22048389998963,433.23932430002606,432.22048389998963,433.23932430002606,432.22048389998963,433.23932430002606,433.2229682999896,433.7237795999972,433.2229682999896,433.7237795999972,433.2229682999896,433.7237795999972,433.2229682999896,433.7237795999972,433.2229682999896,433.7237795999972,433.2229682999896,433.7237795999972,433.2229682999896,433.7237795999972,433.2229682999896,433.7237795999972,432.22048389998963,None,433.7237795999972,434.6414500999963,1.0200000000000007,434.6582771000103,None,435.4096155000152,None,,,,,,,[0.91083333],2.720000000000002,0.8333333333333334,11006,001,2024_Jan_01_1003,MFTM_A_new1021,2021.2.3,60.027036180308464,
,,,,,,,,stim/Instruction_adaptive.png,conditions/adaptive.xlsx,test,0.6,0.6,0.6,-0.6,-0.6,right,R,,,,,0,1,1,1,0,60,60,30,,,,,,,,,,,,,,,,,,,,,,,,,,,,,,,,,,,,,,,,,,,,435.910380300018,None,right,1,1.4629584000213072,436.4100507000112,437.91296590003185,436.4100507000112,437.4122248000349,436.4100507000112,437.4122248000349,436.4100507000112,437.4122248000349,436.4100507000112,437.4122248000349,436.4100507000112,437.4122248000349,437.3958062999882,437.896469600033,437.3958062999882,437.896469600033,437.3958062999882,437.896469600033,437.3958062999882,437.896469600033,437.3958062999882,437.896469600033,437.3958062999882,437.896469600033,437.3958062999882,437.896469600033,437.3958062999882,437.896469600033,436.4100507000112,None,437.896469600033,None,1.0000000000000007,438.8303280000109,None,439.58163630001945,None,,,,,,,[0.9204918],2.740000000000002,0.8360655737704918,11006,001,2024_Jan_01_1003,MFTM_A_new1021,2021.2.3,60.027036180308464,
,,,,,,,,stim/Instruction_adaptive.png,conditions/adaptive.xlsx,test,0.6,0.6,0.6,-0.6,-0.6,right,R,,,,,0,1,1,1,0,61,61,74,,,,,,,,,,,,,,,,,,,,,,,,,,,,,,,,,,,,,,,,,,,,440.08206059999065,None,right,1,1.658302600029856,440.58307350001996,442.06868090003263,440.58307350001996,441.56840710004326,440.58307350001996,441.56840710004326,440.58307350001996,441.56840710004326,440.58307350001996,441.56840710004326,440.58307350001996,441.56840710004326,441.5515129000414,442.0522018999909,441.5515129000414,442.0522018999909,441.5515129000414,442.0522018999909,441.5515129000414,442.0522018999909,441.5515129000414,442.0522018999909,441.5515129000414,442.0522018999909,441.5515129000414,442.0522018999909,441.5515129000414,442.0522018999909,440.58307350001996,None,442.0522018999909,442.98664340004325,0.9800000000000006,443.00308860000223,None,443.75491379998857,None,,,,,,,[0.93016129],2.7700000000000022,0.8387096774193549,11006,001,2024_Jan_01_1003,MFTM_A_new1021,2021.2.3,60.027036180308464,
,,,,,,,,stim/Instruction_adaptive.png,conditions/adaptive.xlsx,test,0.6,0.6,0.6,-0.6,-0.6,right,R,,,,,0,1,1,1,0,62,62,16,,,,,,,,,,,,,,,,,,,,,,,,,,,,,,,,,,,,,,,,,,,,444.2554793000454,None,left,0,1.4455365999601781,444.7555220000213,446.22516420000466,444.7555220000213,445.7244883000385,444.7555220000213,445.7244883000385,444.7555220000213,445.7244883000385,444.7555220000213,445.7244883000385,444.7555220000213,445.7244883000385,445.69046569999773,446.1919832000276,445.69046569999773,446.1919832000276,445.69046569999773,446.1919832000276,445.69046569999773,446.1919832000276,445.69046569999773,446.1919832000276,445.69046569999773,446.1919832000276,445.69046569999773,446.1919832000276,445.69046569999773,446.1919832000276,444.7555220000213,None,446.1919832000276,447.1432146000443,0.9600000000000006,447.159289000032,None,447.9109563000384,None,,,,,,,[0.93984127],2.700000000000002,0.8253968253968254,11006,001,2024_Jan_01_1003,MFTM_A_new1021,2021.2.3,60.027036180308464,
,,,,,,,,stim/Instruction_adaptive.png,conditions/adaptive.xlsx,test,0.6,0.6,0.6,-0.6,-0.6,right,R,,,,,0,1,1,1,0,63,63,32,,,,,,,,,,,,,,,,,,,,,,,,,,,,,,,,,,,,,,,,,,,,448.4122524000122,None,right,1,1.297125200042501,448.9122307000216,450.43178560002707,448.9122307000216,449.93144180002855,448.9122307000216,449.93144180002855,448.9122307000216,449.93144180002855,448.9122307000216,449.93144180002855,448.9122307000216,449.93144180002855,449.89755950000836,450.39800169999944,449.89755950000836,450.39800169999944,449.89755950000836,450.39800169999944,449.89755950000836,450.39800169999944,449.89755950000836,450.39800169999944,449.89755950000836,450.39800169999944,449.89755950000836,450.39800169999944,449.89755950000836,450.39800169999944,448.9122307000216,None,450.39800169999944,451.34931640001014,1.0100000000000007,451.3821220000391,None,452.13401109998813,None,,,,,,,[0.9484375],2.720000000000002,0.828125,11006,001,2024_Jan_01_1003,MFTM_A_new1021,2021.2.3,60.027036180308464,
,,,,,,,,stim/Instruction_adaptive.png,conditions/adaptive.xlsx,test,-0.6,-0.6,-0.6,0.6,0.6,left,L,,,,,0,1,1,1,0,64,64,57,,,,,,,,,,,,,,,,,,,,,,,,,,,,,,,,,,,,,,,,,,,,452.634006200009,None,None,0,0,453.1354399000411,454.6368365000235,453.1354399000411,454.1364270999911,453.1354399000411,454.1364270999911,453.1354399000411,454.1364270999911,453.1354399000411,454.1364270999911,453.1354399000411,454.1364270999911,454.1202697000117,454.6206014000345,454.1202697000117,454.6206014000345,454.1202697000117,454.6206014000345,454.1202697000117,454.6206014000345,454.1202697000117,454.6206014000345,454.1202697000117,454.6206014000345,454.1202697000117,454.6206014000345,454.1202697000117,454.6206014000345,453.1354399000411,None,454.6206014000345,456.624292100023,1.0000000000000007,456.63978430000134,None,457.3919482000056,None,,,,,,,[[2.]],2.650000000000002,0.8153846153846154,11006,001,2024_Jan_01_1003,MFTM_A_new1021,2021.2.3,60.027036180308464,
,,,,,,,,stim/Instruction_adaptive.png,conditions/adaptive.xlsx,test,0.6,0.6,0.6,-0.6,-0.6,right,R,,,,,0,1,1,1,0,65,65,14,,,,,,,,,,,,,,,,,,,,,,,,,,,,,,,,,,,,,,,,,,,,457.89266670000507,None,right,1,1.4972506999620236,458.3922983999946,459.9455228000297,458.3922983999946,459.4451094000251,458.3922983999946,459.4451094000251,458.3922983999946,459.4451094000251,458.3922983999946,459.4451094000251,458.3922983999946,459.4451094000251,459.42809900001157,459.928264999995,459.42809900001157,459.928264999995,459.42809900001157,459.928264999995,459.42809900001157,459.928264999995,459.42809900001157,459.928264999995,459.42809900001157,459.928264999995,459.42809900001157,459.928264999995,459.42809900001157,459.928264999995,458.3922983999946,None,459.928264999995,460.89707960002124,1.0500000000000007,460.91290039999876,None,461.66440110001713,None,,,,,,,[0.96439394],2.6700000000000017,0.8181818181818182,11006,001,2024_Jan_01_1003,MFTM_A_new1021,2021.2.3,60.027036180308464,
,,,,,,,,stim/Instruction_adaptive.png,conditions/adaptive.xlsx,test,-0.6,-0.6,-0.6,0.6,0.6,left,L,,,,,0,1,1,1,0,66,66,37,,,,,,,,,,,,,,,,,,,,,,,,,,,,,,,,,,,,,,,,,,,,462.16558890003944,None,left,1,1.9191636000177823,462.66620050003985,464.2019654000178,462.66620050003985,463.700662999996,462.66620050003985,463.700662999996,462.66620050003985,463.700662999996,462.66620050003985,463.700662999996,462.66620050003985,463.700662999996,463.6838532999973,464.18565590004437,463.6838532999973,464.18565590004437,463.6838532999973,464.18565590004437,463.6838532999973,464.18565590004437,463.6838532999973,464.18565590004437,463.6838532999973,464.18565590004437,463.6838532999973,464.18565590004437,463.6838532999973,464.18565590004437,462.66620050003985,None,464.18565590004437,None,1.0300000000000007,465.16958650003653,None,465.9211082000402,None,,,,,,,[0.9719403],2.700000000000002,0.8208955223880597,11006,001,2024_Jan_01_1003,MFTM_A_new1021,2021.2.3,60.027036180308464,
,,,,,,,,stim/Instruction_adaptive.png,conditions/adaptive.xlsx,test,-0.6,-0.6,-0.6,0.6,0.6,left,L,,,,,0,1,1,1,0,67,67,19,,,,,,,,,,,,,,,,,,,,,,,,,,,,,,,,,,,,,,,,,,,,466.42221460002474,None,left,1,1.7590023999800906,466.92281790002016,468.4424194000312,466.92281790002016,467.9399228999973,466.92281790002016,467.9399228999973,466.92281790002016,467.9399228999973,466.92281790002016,467.9399228999973,466.92281790002016,467.9399228999973,467.9072817999986,468.40833420003764,467.9072817999986,468.40833420003764,467.9072817999986,468.40833420003764,467.9072817999986,468.40833420003764,467.9072817999986,468.40833420003764,467.9072817999986,468.40833420003764,467.9072817999986,468.40833420003764,467.9072817999986,468.40833420003764,466.92281790002016,None,468.40833420003764,469.39271570002893,1.0100000000000007,469.42627170000924,None,470.17742710001767,None,,,,,,,[0.97955882],2.720000000000002,0.8235294117647058,11006,001,2024_Jan_01_1003,MFTM_A_new1021,2021.2.3,60.027036180308464,
,,,,,,,,stim/Instruction_adaptive.png,conditions/adaptive.xlsx,test,-0.6,-0.6,-0.6,0.6,0.6,left,L,,,,,0,1,1,1,0,68,68,53,,,,,,,,,,,,,,,,,,,,,,,,,,,,,,,,,,,,,,,,,,,,470.6777941000182,None,left,1,1.302213299961295,471.17887010000413,472.6811273000203,471.17887010000413,472.1802249000175,471.17887010000413,472.1802249000175,471.17887010000413,472.1802249000175,471.17887010000413,472.1802249000175,471.17887010000413,472.1802249000175,472.1635236000293,472.664808200032,472.1635236000293,472.664808200032,472.1635236000293,472.664808200032,472.1635236000293,472.664808200032,472.1635236000293,472.664808200032,472.1635236000293,472.664808200032,472.1635236000293,472.664808200032,472.1635236000293,472.664808200032,471.17887010000413,None,472.664808200032,None,1.0000000000000007,473.6651298000361,None,474.4163625999936,None,,,,,,,[0.98710145],2.740000000000002,0.8260869565217391,11006,001,2024_Jan_01_1003,MFTM_A_new1021,2021.2.3,60.027036180308464,
,,,,,,,,stim/Instruction_adaptive.png,conditions/adaptive.xlsx,test,-0.6,-0.6,-0.6,0.6,0.6,left,L,,,,,0,1,1,1,0,69,69,65,,,,,,,,,,,,,,,,,,,,,,,,,,,,,,,,,,,,,,,,,,,,474.91780380002456,None,right,0,1.4232034999877214,475.4183463000227,476.9038275000057,475.4183463000227,476.40324190002866,475.4183463000227,476.40324190002866,475.4183463000227,476.40324190002866,475.4183463000227,476.40324190002866,475.4183463000227,476.40324190002866,476.38592870003777,476.8876567000407,476.38592870003777,476.8876567000407,476.38592870003777,476.8876567000407,476.38592870003777,476.8876567000407,476.38592870003777,476.8876567000407,476.38592870003777,476.8876567000407,476.38592870003777,476.8876567000407,476.38592870003777,476.8876567000407,475.4183463000227,None,476.8876567000407,477.88841100002173,0.9800000000000006,477.9048834000132,None,478.6567788000102,None,,,,,,,[0.99471429],2.680000000000002,0.8142857142857143,11006,001,2024_Jan_01_1003,MFTM_A_new1021,2021.2.3,60.027036180308464,
,,,,,,,,stim/Instruction_adaptive.png,conditions/adaptive.xlsx,test,-0.6,-0.6,-0.6,0.6,0.6,left,L,,,,,0,1,1,1,0,70,70,33,,,,,,,,,,,,,,,,,,,,,,,,,,,,,,,,,,,,,,,,,,,,479.1578655000194,None,left,1,1.6794006999698468,479.6579033000162,481.1936272000312,479.6579033000162,480.69209150003735,479.6579033000162,480.69209150003735,479.6579033000162,480.69209150003735,479.6579033000162,480.69209150003735,479.6579033000162,480.69209150003735,480.6758944999892,481.17683410004247,480.6758944999892,481.17683410004247,480.6758944999892,481.17683410004247,480.6758944999892,481.17683410004247,480.6758944999892,481.17683410004247,480.6758944999892,481.17683410004247,480.6758944999892,481.17683410004247,480.6758944999892,481.17683410004247,479.6579033000162,None,481.17683410004247,482.1789211000432,1.0300000000000007,482.19441590004135,None,482.94626240001526,None,,,,,,,[1.00140845],2.700000000000002,0.8169014084507042,11006,001,2024_Jan_01_1003,MFTM_A_new1021,2021.2.3,60.027036180308464,
,,,,,,,,stim/Instruction_adaptive.png,conditions/adaptive.xlsx,test,-0.6,-0.6,-0.6,0.6,0.6,left,L,,,,,0,1,1,1,0,71,71,29,,,,,,,,,,,,,,,,,,,,,,,,,,,,,,,,,,,,,,,,,,,,483.4469728000113,None,left,1,1.341582000022754,483.94774100003997,485.4660817999975,483.94774100003997,484.96553520002635,483.94774100003997,484.96553520002635,483.94774100003997,484.96553520002635,483.94774100003997,484.96553520002635,483.94774100003997,484.96553520002635,484.9327552000177,485.4330866000382,484.9327552000177,485.4330866000382,484.9327552000177,485.4330866000382,484.9327552000177,485.4330866000382,484.9327552000177,485.4330866000382,484.9327552000177,485.4330866000382,484.9327552000177,485.4330866000382,484.9327552000177,485.4330866000382,483.94774100003997,None,485.4330866000382,486.4515220000176,1.0100000000000007,486.46820420003496,None,487.2191998999915,None,,,,,,,[1.00819444],2.720000000000002,0.8194444444444444,11006,001,2024_Jan_01_1003,MFTM_A_new1021,2021.2.3,60.027036180308464,
,,,,,,,,stim/Instruction_adaptive.png,conditions/adaptive.xlsx,test,0.6,0.6,0.6,-0.6,-0.6,right,R,,,,,0,1,1,1,0,72,72,56,,,,,,,,,,,,,,,,,,,,,,,,,,,,,,,,,,,,,,,,,,,,487.72018679999746,None,right,1,0.8689050999819301,488.22000730002765,489.7232205999899,488.22000730002765,489.22160490002716,488.22000730002765,489.22160490002716,488.22000730002765,489.22160490002716,488.22000730002765,489.22160490002716,488.22000730002765,489.22160490002716,489.20498750003753,489.70625550003024,489.20498750003753,489.70625550003024,489.20498750003753,489.70625550003024,489.20498750003753,489.70625550003024,489.20498750003753,489.70625550003024,489.20498750003753,489.70625550003024,489.20498750003753,489.70625550003024,489.20498750003753,489.70625550003024,488.22000730002765,None,489.70625550003024,490.7239921000437,1.0000000000000007,490.7405420000432,None,491.49155790003715,None,,,,,,,[1.01493151],2.740000000000002,0.821917808219178,11006,001,2024_Jan_01_1003,MFTM_A_new1021,2021.2.3,60.027036180308464,
,,,,,,,,stim/Instruction_adaptive.png,conditions/adaptive.xlsx,test,-0.6,-0.6,-0.6,0.6,0.6,left,L,,,,,0,1,1,1,0,73,73,59,,,,,,,,,,,,,,,,,,,,,,,,,,,,,,,,,,,,,,,,,,,,491.9933200000087,None,left,1,1.2191728000179864,492.49386320001213,493.97880089998944,492.49386320001213,493.478530900029,492.49386320001213,493.478530900029,492.49386320001213,493.478530900029,492.49386320001213,493.478530900029,492.49386320001213,493.478530900029,493.46181130001787,493.962726800004,493.46181130001787,493.962726800004,493.46181130001787,493.962726800004,493.46181130001787,493.962726800004,493.46181130001787,493.962726800004,493.46181130001787,493.962726800004,493.46181130001787,493.962726800004,493.46181130001787,493.962726800004,492.49386320001213,None,493.962726800004,None,0.9800000000000006,494.9966817999957,None,495.7488988999976,None,,,,,,,[1.02175676],2.760000000000002,0.8243243243243243,11006,001,2024_Jan_01_1003,MFTM_A_new1021,2021.2.3,60.027036180308464,
,,,,,,,,stim/Instruction_adaptive.png,conditions/adaptive.xlsx,test,0.6,0.6,0.6,-0.6,-0.6,right,R,,,,,0,1,1,1,0,74,74,68,,,,,,,,,,,,,,,,,,,,,,,,,,,,,,,,,,,,,,,,,,,,496.2493114999961,None,right,1,1.1317320999805816,496.7493715000455,498.2187614000286,496.7493715000455,497.7347434000112,496.7493715000455,497.7347434000112,496.7493715000455,497.7347434000112,496.7493715000455,497.7347434000112,496.7493715000455,497.7347434000112,497.7009541000007,498.20197200000985,497.7009541000007,498.20197200000985,497.7009541000007,498.20197200000985,497.7009541000007,498.20197200000985,497.7009541000007,498.20197200000985,497.7009541000007,498.20197200000985,497.7009541000007,498.20197200000985,497.7009541000007,498.20197200000985,496.7493715000455,None,498.20197200000985,499.23678030003794,0.9700000000000006,499.2541414000443,None,500.0050015000161,None,,,,,,,[1.02853333],2.780000000000002,0.8266666666666667,11006,001,2024_Jan_01_1003,MFTM_A_new1021,2021.2.3,60.027036180308464,
,,,,,,,,stim/Instruction_adaptive.png,conditions/adaptive.xlsx,test,-0.6,-0.6,-0.6,0.6,0.6,left,L,,,,,0,1,1,1,0,75,75,75,,,,,,,,,,,,,,,,,,,,,,,,,,,,,,,,,,,,,,,,,,,,500.50483240000904,None,left,1,1.300670899974648,501.0051799000357,502.4755754999933,501.0051799000357,501.9748150000232,501.0051799000357,501.9748150000232,501.0051799000357,501.9748150000232,501.0051799000357,501.9748150000232,501.0051799000357,501.9748150000232,501.9412264000275,502.44181129999924,501.9412264000275,502.44181129999924,501.9412264000275,502.44181129999924,501.9412264000275,502.44181129999924,501.9412264000275,502.44181129999924,501.9412264000275,502.44181129999924,501.9412264000275,502.44181129999924,501.9412264000275,502.44181129999924,501.0051799000357,None,502.44181129999924,503.4760684000212,0.9600000000000006,503.5096114000189,None,504.2611966000404,None,,,,,,,[1.03526316],2.8100000000000023,0.8289473684210527,11006,001,2024_Jan_01_1003,MFTM_A_new1021,2021.2.3,60.027036180308464,
,,,,,,,,stim/Instruction_adaptive.png,conditions/adaptive.xlsx,test,0.6,0.6,0.6,-0.6,-0.6,right,R,,,,,0,1,1,1,0,76,76,64,,,,,,,,,,,,,,,,,,,,,,,,,,,,,,,,,,,,,,,,,,,,504.76231190003455,None,right,1,1.5625069999950938,505.26282000000356,506.71423640003195,505.26282000000356,506.2143851000001,505.26282000000356,506.2143851000001,505.26282000000356,506.2143851000001,505.26282000000356,506.2143851000001,505.26282000000356,506.2143851000001,506.1799149000435,506.680845600029,506.1799149000435,506.680845600029,506.1799149000435,506.680845600029,506.1799149000435,506.680845600029,506.1799149000435,506.680845600029,506.1799149000435,506.680845600029,506.1799149000435,506.680845600029,506.1799149000435,506.680845600029,505.26282000000356,None,506.680845600029,507.73475180001697,0.9400000000000006,507.7488069999963,None,508.50076830002945,None,,,,,,,[1.04207792],2.820000000000002,0.8311688311688312,11006,001,2024_Jan_01_1003,MFTM_A_new1021,2021.2.3,60.027036180308464,
,,,,,,,,stim/Instruction_adaptive.png,conditions/adaptive.xlsx,test,-0.6,-0.6,-0.6,0.6,0.6,left,L,,,,,0,1,1,1,0,77,77,81,,,,,,,,,,,,,,,,,,,,,,,,,,,,,,,,,,,,,,,,,,,,509.0016581999953,None,left,1,1.594683899951633,509.5023543999996,510.9376583000412,509.5023543999996,510.4373266000184,509.5023543999996,510.4373266000184,509.5023543999996,510.4373266000184,509.5023543999996,510.4373266000184,509.5023543999996,510.4373266000184,510.4198241000413,510.9210844000336,510.4198241000413,510.9210844000336,510.4198241000413,510.9210844000336,510.4198241000413,510.9210844000336,510.4198241000413,510.9210844000336,510.4198241000413,510.9210844000336,510.4198241000413,510.9210844000336,510.4198241000413,510.9210844000336,509.5023543999996,None,510.9210844000336,511.9725708999904,0.9300000000000006,511.98928889998933,None,512.7405131999985,None,,,,,,,[1.04884615],2.840000000000002,0.8333333333333334,11006,001,2024_Jan_01_1003,MFTM_A_new1021,2021.2.3,60.027036180308464,
,,,,,,,,stim/Instruction_adaptive.png,conditions/adaptive.xlsx,test,0.6,0.6,0.6,-0.6,-0.6,right,R,,,,,0,1,1,1,0,78,78,66,,,,,,,,,,,,,,,,,,,,,,,,,,,,,,,,,,,,,,,,,,,,513.2410616000416,None,right,1,1.1387655000435188,513.7422665000195,515.1766047000419,513.7422665000195,514.6764713000157,513.7422665000195,514.6764713000157,513.7422665000195,514.6764713000157,513.7422665000195,514.6764713000157,513.7422665000195,514.6764713000157,514.6427735000034,515.1436189000378,514.6427735000034,515.1436189000378,514.6427735000034,515.1436189000378,514.6427735000034,515.1436189000378,514.6427735000034,515.1436189000378,514.6427735000034,515.1436189000378,514.6427735000034,515.1436189000378,514.6427735000034,515.1436189000378,513.7422665000195,None,515.1436189000378,516.2137791000423,0.9200000000000006,516.2290955000208,None,516.9799433000153,None,,,,,,,[1.05556962],2.860000000000002,0.8354430379746836,11006,001,2024_Jan_01_1003,MFTM_A_new1021,2021.2.3,60.027036180308464,
,,,,,,,,stim/Instruction_adaptive.png,conditions/adaptive.xlsx,test,0.6,0.6,0.6,-0.6,-0.6,right,R,,,,,0,1,1,1,0,79,79,18,,,,,,,,,,,,,,,,,,,,,,,,,,,,,,,,,,,,,,,,,,,,517.4803485000157,None,right,1,1.1485124000464566,517.9808561000391,519.4003455000347,517.9808561000391,518.9000951999915,517.9808561000391,518.9000951999915,517.9808561000391,518.9000951999915,517.9808561000391,518.9000951999915,517.9808561000391,518.9000951999915,518.882282000035,519.3835161000025,518.882282000035,519.3835161000025,518.882282000035,519.3835161000025,518.882282000035,519.3835161000025,518.882282000035,519.3835161000025,518.882282000035,519.3835161000025,518.882282000035,519.3835161000025,518.882282000035,519.3835161000025,517.9808561000391,None,519.3835161000025,None,0.9100000000000006,520.4518819000223,None,521.202792200027,None,,,,,,,[1.06225],2.880000000000002,0.8375,11006,001,2024_Jan_01_1003,MFTM_A_new1021,2021.2.3,60.027036180308464,
,,,,,,,,stim/Instruction_adaptive.png,conditions/adaptive.xlsx,test,-0.6,-0.6,-0.6,0.6,0.6,left,L,,,,,0,1,1,1,0,80,80,87,,,,,,,,,,,,,,,,,,,,,,,,,,,,,,,,,,,,,,,,,,,,521.7030953000067,None,left,1,1.173594599997159,522.2038543000235,523.6056611000095,522.2038543000235,523.1057335000369,522.2038543000235,523.1057335000369,522.2038543000235,523.1057335000369,522.2038543000235,523.1057335000369,522.2038543000235,523.1057335000369,523.0716889000032,523.5730252999929,523.0716889000032,523.5730252999929,523.0716889000032,523.5730252999929,523.0716889000032,523.5730252999929,523.0716889000032,523.5730252999929,523.0716889000032,523.5730252999929,523.0716889000032,523.5730252999929,523.0716889000032,523.5730252999929,522.2038543000235,None,523.5730252999929,524.641329200007,0.8900000000000006,524.6741817000438,None,525.426013600023,None,,,,,,,[1.06901235],2.900000000000002,0.8395061728395061,11006,001,2024_Jan_01_1003,MFTM_A_new1021,2021.2.3,60.027036180308464,
,,,,,,,,stim/Instruction_adaptive.png,conditions/adaptive.xlsx,test,0.6,0.6,0.6,-0.6,-0.6,right,R,,,,,0,1,1,1,0,81,81,76,,,,,,,,,,,,,,,,,,,,,,,,,,,,,,,,,,,,,,,,,,,,525.9268826000043,None,right,1,1.382879899989348,526.4269329000381,527.812177200045,526.4269329000381,527.3120534000336,526.4269329000381,527.3120534000336,526.4269329000381,527.3120534000336,526.4269329000381,527.3120534000336,526.4269329000381,527.3120534000336,527.2946803999948,527.7957548000268,527.2946803999948,527.7957548000268,527.2946803999948,527.7957548000268,527.2946803999948,527.7957548000268,527.2946803999948,527.7957548000268,527.2946803999948,527.7957548000268,527.2946803999948,527.7957548000268,527.2946803999948,527.7957548000268,526.4269329000381,None,527.7957548000268,528.8810893000336,0.8800000000000006,528.8976206000079,None,529.6481682000449,None,,,,,,,[1.07573171],2.920000000000002,0.8414634146341463,11006,001,2024_Jan_01_1003,MFTM_A_new1021,2021.2.3,60.027036180308464,
,,,,,,,,stim/Instruction_adaptive.png,conditions/adaptive.xlsx,test,0.6,0.6,0.6,-0.6,-0.6,right,R,,,,,0,1,1,1,0,82,82,80,,,,,,,,,,,,,,,,,,,,,,,,,,,,,,,,,,,,,,,,,,,,530.1488787000417,None,right,1,1.2713651999947615,530.6499095000327,532.0194900000351,530.6499095000327,531.5344981999951,530.6499095000327,531.5344981999951,530.6499095000327,531.5344981999951,530.6499095000327,531.5344981999951,530.6499095000327,531.5344981999951,531.5015216000029,532.0023292000405,531.5015216000029,532.0023292000405,531.5015216000029,532.0023292000405,531.5015216000029,532.0023292000405,531.5015216000029,532.0023292000405,531.5015216000029,532.0023292000405,531.5015216000029,532.0023292000405,531.5015216000029,532.0023292000405,530.6499095000327,None,532.0023292000405,533.0870872000232,0.8700000000000006,533.1040958000231,None,533.8555507000419,None,,,,,,,[1.08240964],2.940000000000002,0.8433734939759037,11006,001,2024_Jan_01_1003,MFTM_A_new1021,2021.2.3,60.027036180308464,
,,,,,,,,stim/Instruction_adaptive.png,conditions/adaptive.xlsx,test,-0.6,-0.6,-0.6,0.6,0.6,left,L,,,,,0,1,1,1,0,83,83,73,,,,,,,,,,,,,,,,,,,,,,,,,,,,,,,,,,,,,,,,,,,,534.3553396000061,None,left,1,1.7453787999693304,534.8558494999888,536.2245843000128,534.8558494999888,535.7240839000442,534.8558494999888,535.7240839000442,534.8558494999888,535.7240839000442,534.8558494999888,535.7240839000442,534.8558494999888,535.7240839000442,535.6907102999976,536.1918510000105,535.6907102999976,536.1918510000105,535.6907102999976,536.1918510000105,535.6907102999976,536.1918510000105,535.6907102999976,536.1918510000105,535.6907102999976,536.1918510000105,535.6907102999976,536.1918510000105,535.6907102999976,536.1918510000105,534.8558494999888,None,536.1918510000105,537.2934985000174,0.8600000000000005,537.3095314000384,None,538.0606517000124,None,,,,,,,[1.08904762],2.950000000000002,0.8452380952380952,11006,001,2024_Jan_01_1003,MFTM_A_new1021,2021.2.3,60.027036180308464,
,,,,,,,,stim/Instruction_adaptive.png,conditions/adaptive.xlsx,test,0.6,0.6,0.6,-0.6,-0.6,right,R,,,,,0,1,1,1,0,84,84,90,,,,,,,,,,,,,,,,,,,,,,,,,,,,,,,,,,,,,,,,,,,,538.5626154000056,None,right,1,1.4108231000136584,539.0623363000341,540.4151102000033,539.0623363000341,539.9126047000173,539.0623363000341,539.9126047000173,539.0623363000341,539.9126047000173,539.0623363000341,539.9126047000173,539.0623363000341,539.9126047000173,539.8967509000213,540.3974009000231,539.8967509000213,540.3974009000231,539.8967509000213,540.3974009000231,539.8967509000213,540.3974009000231,539.8967509000213,540.3974009000231,539.8967509000213,540.3974009000231,539.8967509000213,540.3974009000231,539.8967509000213,540.3974009000231,539.0623363000341,None,540.3974009000231,541.4995409999974,0.8500000000000005,541.5162312000175,None,542.2677931000362,None,,,,,,,[1.09564706],2.9700000000000024,0.8470588235294118,11006,001,2024_Jan_01_1003,MFTM_A_new1021,2021.2.3,60.027036180308464,
,,,,,,,,stim/Instruction_adaptive.png,conditions/adaptive.xlsx,test,0.6,0.6,0.6,-0.6,-0.6,right,R,,,,,0,1,1,1,0,85,85,6,,,,,,,,,,,,,,,,,,,,,,,,,,,,,,,,,,,,,,,,,,,,542.7683149999939,None,right,1,1.4373614999931306,543.2684235000052,544.6209815000184,543.2684235000052,544.1204840000137,543.2684235000052,544.1204840000137,543.2684235000052,544.1204840000137,543.2684235000052,544.1204840000137,543.2684235000052,544.1204840000137,544.0870270000305,544.5874829000095,544.0870270000305,544.5874829000095,544.0870270000305,544.5874829000095,544.0870270000305,544.5874829000095,544.0870270000305,544.5874829000095,544.0870270000305,544.5874829000095,544.0870270000305,544.5874829000095,544.0870270000305,544.5874829000095,543.2684235000052,None,544.5874829000095,545.6891735999961,0.8400000000000005,545.7225165000418,None,546.4737510000123,None,,,,,,,[1.1022093],2.990000000000002,0.8488372093023255,11006,001,2024_Jan_01_1003,MFTM_A_new1021,2021.2.3,60.027036180308464,
,,,,,,,,stim/Instruction_adaptive.png,conditions/adaptive.xlsx,test,0.6,0.6,0.6,-0.6,-0.6,right,R,,,,,0,1,1,1,0,86,86,98,,,,,,,,,,,,,,,,,,,,,,,,,,,,,,,,,,,,,,,,,,,,546.9744364999933,None,right,1,1.6464281000080518,547.4747099000379,548.8101433000411,547.4747099000379,548.3098830000381,547.4747099000379,548.3098830000381,547.4747099000379,548.3098830000381,547.4747099000379,548.3098830000381,547.4747099000379,548.3098830000381,548.2929323000135,548.7939346000203,548.2929323000135,548.7939346000203,548.2929323000135,548.7939346000203,548.2929323000135,548.7939346000203,548.2929323000135,548.7939346000203,548.2929323000135,548.7939346000203,548.2929323000135,548.7939346000203,548.2929323000135,548.7939346000203,547.4747099000379,None,548.7939346000203,549.9114572000108,0.8300000000000005,549.9276065000449,None,550.6800593000371,None,,,,,,,[1.10873563],3.0100000000000025,0.8505747126436781,11006,001,2024_Jan_01_1003,MFTM_A_new1021,2021.2.3,60.027036180308464,
,,,,,,,,stim/Instruction_adaptive.png,conditions/adaptive.xlsx,test,-0.6,-0.6,-0.6,0.6,0.6,left,L,,,,,0,1,1,1,0,87,87,15,,,,,,,,,,,,,,,,,,,,,,,,,,,,,,,,,,,,,,,,,,,,551.1807786000427,None,left,1,1.7117631000000983,551.681362000003,552.9995785999927,551.681362000003,552.5158759999904,551.681362000003,552.5158759999904,551.681362000003,552.5158759999904,551.681362000003,552.5158759999904,551.681362000003,552.5158759999904,552.482376000029,552.9837238999899,552.482376000029,552.9837238999899,552.482376000029,552.9837238999899,552.482376000029,552.9837238999899,552.482376000029,552.9837238999899,552.482376000029,552.9837238999899,552.482376000029,552.9837238999899,552.482376000029,552.9837238999899,551.681362000003,None,552.9837238999899,554.1012630999903,0.8200000000000005,554.1178427000414,None,554.868976800004,None,,,,,,,[1.11522727],3.0200000000000022,0.8522727272727273,11006,001,2024_Jan_01_1003,MFTM_A_new1021,2021.2.3,60.027036180308464,
,,,,,,,,stim/Instruction_adaptive.png,conditions/adaptive.xlsx,test,-0.6,-0.6,-0.6,0.6,0.6,left,L,,,,,0,1,1,1,0,88,88,47,,,,,,,,,,,,,,,,,,,,,,,,,,,,,,,,,,,,,,,,,,,,555.3702789000235,None,left,1,1.9226154999923892,555.8704309000168,557.1898726000218,555.8704309000168,556.6882535000332,555.8704309000168,556.6882535000332,555.8704309000168,556.6882535000332,555.8704309000168,556.6882535000332,555.8704309000168,556.6882535000332,556.6555178000126,557.1561571999919,556.6555178000126,557.1561571999919,556.6555178000126,557.1561571999919,556.6555178000126,557.1561571999919,556.6555178000126,557.1561571999919,556.6555178000126,557.1561571999919,556.6555178000126,557.1561571999919,556.6555178000126,557.1561571999919,555.8704309000168,None,557.1561571999919,558.2930384000065,0.8100000000000005,558.3071992000332,None,559.0592404000345,None,,,,,,,[1.12168539],3.0400000000000023,0.8539325842696629,11006,001,2024_Jan_01_1003,MFTM_A_new1021,2021.2.3,60.027036180308464,
,,,,,,,,stim/Instruction_adaptive.png,conditions/adaptive.xlsx,test,-0.6,-0.6,-0.6,0.6,0.6,left,L,,,,,0,1,1,1,0,89,89,49,,,,,,,,,,,,,,,,,,,,,,,,,,,,,,,,,,,,,,,,,,,,559.5595563999959,None,left,1,1.4534462000010535,560.0603154000128,561.3621888000052,560.0603154000128,560.8617643000325,560.0603154000128,560.8617643000325,560.0603154000128,560.8617643000325,560.0603154000128,560.8617643000325,560.0603154000128,560.8617643000325,560.8445596999954,561.3457380000036,560.8445596999954,561.3457380000036,560.8445596999954,561.3457380000036,560.8445596999954,561.3457380000036,560.8445596999954,561.3457380000036,560.8445596999954,561.3457380000036,560.8445596999954,561.3457380000036,560.8445596999954,561.3457380000036,560.0603154000128,None,561.3457380000036,562.480019700015,0.8000000000000005,562.4967249000329,None,563.248746600002,None,,,,,,,[1.12811111],3.0500000000000025,0.8555555555555555,11006,001,2024_Jan_01_1003,MFTM_A_new1021,2021.2.3,60.027036180308464,
,,,,,,,,stim/Instruction_adaptive.png,conditions/adaptive.xlsx,test,0.6,0.6,0.6,-0.6,-0.6,right,R,,,,,0,1,1,1,0,90,90,62,,,,,,,,,,,,,,,,,,,,,,,,,,,,,,,,,,,,,,,,,,,,563.7499328000122,None,right,1,1.3676751999882981,564.2500393000082,565.5514189000241,564.2500393000082,565.051294600009,564.2500393000082,565.051294600009,564.2500393000082,565.051294600009,564.2500393000082,565.051294600009,564.2500393000082,565.051294600009,565.0169803000172,565.5184175000177,565.0169803000172,565.5184175000177,565.0169803000172,565.5184175000177,565.0169803000172,565.5184175000177,565.0169803000172,565.5184175000177,565.0169803000172,565.5184175000177,565.0169803000172,565.5184175000177,565.0169803000172,565.5184175000177,564.2500393000082,None,565.5184175000177,566.6536290000076,0.7900000000000005,566.6870663000154,None,567.4388158000074,None,,,,,,,[1.13450549],3.070000000000002,0.8571428571428571,11006,001,2024_Jan_01_1003,MFTM_A_new1021,2021.2.3,60.027036180308464,
,,,,,,,,stim/Instruction_adaptive.png,conditions/adaptive.xlsx,test,0.6,0.6,0.6,-0.6,-0.6,right,R,,,,,0,1,1,1,0,91,91,28,,,,,,,,,,,,,,,,,,,,,,,,,,,,,,,,,,,,,,,,,,,,567.9384783999994,None,right,1,0.9535400999593548,568.4394897000166,569.7247025000397,568.4394897000166,569.2241720000166,568.4394897000166,569.2241720000166,568.4394897000166,569.2241720000166,568.4394897000166,569.2241720000166,568.4394897000166,569.2241720000166,569.2073529000045,569.708234300022,569.2073529000045,569.708234300022,569.2073529000045,569.708234300022,569.2073529000045,569.708234300022,569.2073529000045,569.708234300022,569.2073529000045,569.708234300022,569.2073529000045,569.708234300022,569.2073529000045,569.708234300022,568.4394897000166,None,569.708234300022,None,0.7800000000000005,570.8592632000218,None,571.6107756000129,None,,,,,,,[1.14086957],3.0900000000000025,0.8586956521739131,11006,001,2024_Jan_01_1003,MFTM_A_new1021,2021.2.3,60.027036180308464,
,,,,,,,,stim/Instruction_adaptive.png,conditions/adaptive.xlsx,test,-0.6,-0.6,-0.6,0.6,0.6,left,L,,,,,0,1,1,1,0,92,92,39,,,,,,,,,,,,,,,,,,,,,,,,,,,,,,,,,,,,,,,,,,,,572.1117304000072,None,left,1,1.2773607000126503,572.611810100032,573.8814562000334,572.611810100032,573.3966989000328,572.611810100032,573.3966989000328,572.611810100032,573.3966989000328,572.611810100032,573.3966989000328,572.611810100032,573.3966989000328,573.3628664000425,573.8641451000003,573.3628664000425,573.8641451000003,573.3628664000425,573.8641451000003,573.3628664000425,573.8641451000003,573.3628664000425,573.8641451000003,573.3628664000425,573.8641451000003,573.3628664000425,573.8641451000003,573.3628664000425,573.8641451000003,572.611810100032,None,573.8641451000003,575.0164727999945,0.7700000000000005,575.032353800023,None,575.7832736000419,None,,,,,,,[1.1472043],3.1000000000000023,0.8602150537634409,11006,001,2024_Jan_01_1003,MFTM_A_new1021,2021.2.3,60.027036180308464,
,,,,,,,,stim/Instruction_adaptive.png,conditions/adaptive.xlsx,test,-0.6,-0.6,-0.6,0.6,0.6,left,L,,,,,0,1,1,1,0,93,93,63,,,,,,,,,,,,,,,,,,,,,,,,,,,,,,,,,,,,,,,,,,,,576.285117499996,None,left,1,1.1763541999971494,576.784787200042,578.0533084000344,576.784787200042,577.569244000013,576.784787200042,577.569244000013,576.784787200042,577.569244000013,576.784787200042,577.569244000013,576.784787200042,577.569244000013,577.5362330999924,578.0372579999967,577.5362330999924,578.0372579999967,577.5362330999924,578.0372579999967,577.5362330999924,578.0372579999967,577.5362330999924,578.0372579999967,577.5362330999924,578.0372579999967,577.5362330999924,578.0372579999967,577.5362330999924,578.0372579999967,576.784787200042,None,578.0372579999967,579.205711800023,0.7700000000000005,579.2222559000365,None,579.9727243999951,None,,,,,,,[1.15340426],3.1200000000000023,0.8617021276595744,11006,001,2024_Jan_01_1003,MFTM_A_new1021,2021.2.3,60.027036180308464,
