arrwidth1,arrwidth2,arrwidth3,arrwidth4,arrwidth5,keyb,type,orientation,instruction_image,block_filename,block_type,arrow11,arrow22,arrow33,arrow44,arrow55,keyb_3,orientation3,trials.thisRepN,trials.thisTrialN,trials.thisN,trials.thisIndex,trials_3.thisRepN,trials_3.thisTrialN,trials_3.thisN,trials_3.thisIndex,trials_2.thisRepN,trials_2.thisTrialN,trials_2.thisN,trials_2.thisIndex,welcome.started,welcome.stopped,key_resp.keys,key_resp.rt,key_resp.started,key_resp.stopped,instruction_example.started,instruction_example.stopped,key_resp_3.keys,key_resp_3.rt,key_resp_3.started,key_resp_3.stopped,instruction_task.started,instruction_task.stopped,key_resp_2.keys,key_resp_2.rt,key_resp_2.started,key_resp_2.stopped,text_2.started,text_2.stopped,A1.started,A1.stopped,A2.started,A2.stopped,A3.started,A3.stopped,A4.started,A4.stopped,A5.started,A5.stopped,key_resp_4.keys,key_resp_4.corr,key_resp_4.rt,key_resp_4.started,key_resp_4.stopped,fb.started,fb.stopped,instruction_block.started,instruction_block.stopped,key_resp_8.keys,key_resp_8.rt,key_resp_8.started,key_resp_8.stopped,text_8.started,text_8.stopped,key_resp_9.keys,key_resp_9.corr,key_resp_9.rt,text_5.started,text_5.stopped,A11_3.started,A11_3.stopped,A22_2.started,A22_2.stopped,A33_2.started,A33_2.stopped,A44_2.started,A44_2.stopped,A55_2.started,A55_2.stopped,M1_3.started,M1_3.stopped,M2_2.started,M2_2.stopped,M3_2.started,M3_2.stopped,M4_2.started,M4_2.stopped,M5_2.started,M5_2.stopped,M6_2.started,M6_2.stopped,M7_2.started,M7_2.stopped,M8_2.started,M8_2.stopped,key_resp_9.started,key_resp_9.stopped,fixation.started,fixation.stopped,ET,fb_3.started,fb_3.stopped,text_9.started,text_9.stopped,fb_4.started,fb_4.stopped,text_7.started,text_7.stopped,endtext.started,endtext.stopped,fixation_ITI,CCC,Acc,participant,session,date,expName,psychopyVersion,frameRate,
,,,,,,,,,,,,,,,,,,,,,,,,,,,,,,12.885683999978937,None,space,14.82294510002248,12.885683999978937,None,,,,,,,,,,,,,,,,,,,,,,,,,,,,,,,,,,,,,,,,,,,,,,,,,,,,,,,,,,,,,,,,,,,,,,,,,,,,,,,,,,,,,,,,,11009,002,2024_Jan_02_1336,MFTM_A_new1021,2021.2.3,60.094528685834845,
,,,,,,,,,,,,,,,,,,,,,,,,,,,,,,,,,,,,27.723289699992165,None,space,2.0170179000124335,27.723289699992165,None,,,,,,,,,,,,,,,,,,,,,,,,,,,,,,,,,,,,,,,,,,,,,,,,,,,,,,,,,,,,,,,,,,,,,,,,,,,,,,,,,,,11009,002,2024_Jan_02_1336,MFTM_A_new1021,2021.2.3,60.094528685834845,
,,,,,,,,,,,,,,,,,,,,,,,,,,,,,,,,,,,,,,,,,,29.759481000015512,None,space,2.5007900000200607,29.759481000015512,None,,,,,,,,,,,,,,,,,,,,,,,,,,,,,,,,,,,,,,,,,,,,,,,,,,,,,,,,,,,,,,,,,,,,,,,,,,,,,11009,002,2024_Jan_02_1336,MFTM_A_new1021,2021.2.3,60.094528685834845,
0.6,0.6,0.6,-0.6,-0.6,right,3:2,R,,,,,,,,,,,0,0,0,0,,,,,,,,,,,,,,,,,,,,,,,,,,,32.29859139997279,None,32.29859139997279,None,32.29859139997279,None,32.29859139997279,None,32.29859139997279,None,32.29859139997279,None,right,1,1.2899718999979086,32.29859139997279,None,33.6327310000197,None,,,,,,,,,,,,,,,,,,,,,,,,,,,,,,,,,,,,,,,,,,,,,,,,,,,,,,,,,,11009,002,2024_Jan_02_1336,MFTM_A_new1021,2021.2.3,60.094528685834845,
-0.6,-0.6,-0.6,0.6,0.6,left,3:2,L,,,,,,,,,,,0,1,1,1,,,,,,,,,,,,,,,,,,,,,,,,,,,34.384571800008416,None,34.384571800008416,None,34.384571800008416,None,34.384571800008416,None,34.384571800008416,None,34.384571800008416,None,left,1,3.1799013999989256,34.384571800008416,None,37.588366899988614,None,,,,,,,,,,,,,,,,,,,,,,,,,,,,,,,,,,,,,,,,,,,,,,,,,,,,,,,,,,11009,002,2024_Jan_02_1336,MFTM_A_new1021,2021.2.3,60.094528685834845,
-0.6,-0.6,-0.6,0.6,0.6,left,3:2,L,,,,,,,,,,,1,0,2,1,,,,,,,,,,,,,,,,,,,,,,,,,,,38.33942500001285,None,38.33942500001285,None,38.33942500001285,None,38.33942500001285,None,38.33942500001285,None,38.33942500001285,None,left,1,1.7613993000122719,38.33942500001285,None,40.1250431999797,None,,,,,,,,,,,,,,,,,,,,,,,,,,,,,,,,,,,,,,,,,,,,,,,,,,,,,,,,,,11009,002,2024_Jan_02_1336,MFTM_A_new1021,2021.2.3,60.094528685834845,
0.6,0.6,0.6,-0.6,-0.6,right,3:2,R,,,,,,,,,,,1,1,3,0,,,,,,,,,,,,,,,,,,,,,,,,,,,40.87708399997791,None,40.87708399997791,None,40.87708399997791,None,40.87708399997791,None,40.87708399997791,None,40.87708399997791,None,right,1,1.5831434999709018,40.87708399997791,None,42.478305500000715,None,,,,,,,,,,,,,,,,,,,,,,,,,,,,,,,,,,,,,,,,,,,,,,,,,,,,,,,,,,11009,002,2024_Jan_02_1336,MFTM_A_new1021,2021.2.3,60.094528685834845,
,,,,,,,,stim/Instruction_mask.png,conditions/adaptive.xlsx,practice,-0.6,-0.6,-0.6,0.6,0.6,left,L,,,,,0,0,0,0,0,0,0,77,,,,,,,,,,,,,,,,,,,,,,,,,,,,,,,,,,,,,,43.47992020001402,None,space,10.588850700005423,43.47992020001402,None,54.16211320000002,None,left,1,2.830511900014244,54.61385500000324,None,54.61385500000324,57.61776270001428,54.61385500000324,57.61776270001428,54.61385500000324,57.61776270001428,54.61385500000324,57.61776270001428,54.61385500000324,57.61776270001428,57.602026999986265,58.10220299998764,57.602026999986265,58.10220299998764,57.602026999986265,58.10220299998764,57.602026999986265,58.10220299998764,57.602026999986265,58.10220299998764,57.602026999986265,58.10220299998764,57.602026999986265,58.10220299998764,57.602026999986265,58.10220299998764,54.61385500000324,None,58.10220299998764,58.10220299998764,3,58.1184386999812,None,58.86956309998641,None,,,,,,,,,,11009,002,2024_Jan_02_1336,MFTM_A_new1021,2021.2.3,60.094528685834845,
,,,,,,,,stim/Instruction_mask.png,conditions/adaptive.xlsx,practice,0.6,0.6,0.6,-0.6,-0.6,right,R,,,,,0,0,0,0,0,1,1,80,,,,,,,,,,,,,,,,,,,,,,,,,,,,,,,,,,,,,,,,,,,,59.37060869997367,None,right,1,1.5498511000187136,59.870844599965494,61.874205800006166,59.870844599965494,61.373819899978116,59.870844599965494,61.373819899978116,59.870844599965494,61.373819899978116,59.870844599965494,61.373819899978116,59.870844599965494,61.373819899978116,61.356609800015576,61.858263099973556,61.356609800015576,61.858263099973556,61.356609800015576,61.858263099973556,61.356609800015576,61.858263099973556,61.356609800015576,61.858263099973556,61.356609800015576,61.858263099973556,61.356609800015576,61.858263099973556,61.356609800015576,61.858263099973556,59.870844599965494,None,61.858263099973556,63.36057979997713,1.5,63.37731199996779,None,64.12743069999851,None,,,,,,,,,,11009,002,2024_Jan_02_1336,MFTM_A_new1021,2021.2.3,60.094528685834845,
,,,,,,,,stim/Instruction_mask.png,conditions/adaptive.xlsx,practice,0.6,0.6,0.6,-0.6,-0.6,right,R,,,,,0,0,0,0,0,2,2,94,,,,,,,,,,,,,,,,,,,,,,,,,,,,,,,,,,,,,,,,,,,,64.62813759996789,None,left,0,1.555292200006079,65.12905039999168,66.43084129999625,65.12905039999168,65.92989550001221,65.12905039999168,65.92989550001221,65.12905039999168,65.92989550001221,65.12905039999168,65.92989550001221,65.12905039999168,65.92989550001221,65.91346359997988,66.41398929996649,65.91346359997988,66.41398929996649,65.91346359997988,66.41398929996649,65.91346359997988,66.41398929996649,65.91346359997988,66.41398929996649,65.91346359997988,66.41398929996649,65.91346359997988,66.41398929996649,65.91346359997988,66.41398929996649,65.12905039999168,None,66.41398929996649,68.6182919999701,0.8,68.63370930001838,None,69.38500840001507,None,,,,,,,,,,11009,002,2024_Jan_02_1336,MFTM_A_new1021,2021.2.3,60.094528685834845,
,,,,,,,,stim/Instruction_mask.png,conditions/adaptive.xlsx,practice,-0.6,-0.6,-0.6,0.6,0.6,left,L,,,,,0,0,0,0,0,3,3,75,,,,,,,,,,,,,,,,,,,,,,,,,,,,,,,,,,,,,,,,,,,,69.8864458000171,None,left,1,0.9305508999968879,70.38667779997922,71.13863760000095,70.38667779997922,70.63692889997037,70.38667779997922,70.63692889997037,70.38667779997922,70.63692889997037,70.38667779997922,70.63692889997037,70.38667779997922,70.63692889997037,70.62029749999056,71.12133769999491,70.62029749999056,71.12133769999491,70.62029749999056,71.12133769999491,70.62029749999056,71.12133769999491,70.62029749999056,71.12133769999491,70.62029749999056,71.12133769999491,70.62029749999056,71.12133769999491,70.62029749999056,71.12133769999491,70.38667779997922,None,71.12133769999491,73.87711439997656,3,73.89177300001029,None,74.6429815000156,None,,,,,,,,,,11009,002,2024_Jan_02_1336,MFTM_A_new1021,2021.2.3,60.094528685834845,
,,,,,,,,stim/Instruction_mask.png,conditions/adaptive.xlsx,practice,,,,,,,,,,,,0,0,0,0,,,,,,,,,,,,,,,,,,,,,,,,,,,,,,,,,,,,,,,,,,,,,,,,,,,,,,,,,,,,,,,,,,,,,,,,,,,,,,,,,,,,,,,,,,75.17735100002028,76.1795121000032,76.16304199997103,76.16304199997103,76.16304199997103,None,,,,11009,002,2024_Jan_02_1336,MFTM_A_new1021,2021.2.3,60.094528685834845,
,,,,,,,,stim/Instruction_adaptive.png,conditions/adaptive.xlsx,test,0.6,0.6,0.6,-0.6,-0.6,right,R,,,,,0,1,1,1,0,0,0,44,,,,,,,,,,,,,,,,,,,,,,,,,,,,,,,,,,,,,,79.31657710002037,None,space,0.17593630001647398,79.31657710002037,None,79.53316210000776,None,right,1,2.787079299974721,80.03408259997377,None,80.03408259997377,83.03919149999274,80.03408259997377,83.03919149999274,80.03408259997377,83.03919149999274,80.03408259997377,83.03919149999274,80.03408259997377,83.03919149999274,83.02276989998063,83.5226193999988,83.02276989998063,83.5226193999988,83.02276989998063,83.5226193999988,83.02276989998063,83.5226193999988,83.02276989998063,83.5226193999988,83.02276989998063,83.5226193999988,83.02276989998063,83.5226193999988,83.02276989998063,83.5226193999988,80.03408259997377,None,83.5226193999988,83.5226193999988,3,83.53933669999242,None,84.29117400001269,None,,,,,,,0,6.000000000000005,1.0,11009,002,2024_Jan_02_1336,MFTM_A_new1021,2021.2.3,60.094528685834845,
,,,,,,,,stim/Instruction_adaptive.png,conditions/adaptive.xlsx,test,-0.6,-0.6,-0.6,0.6,0.6,left,L,,,,,0,1,1,1,0,1,1,85,,,,,,,,,,,,,,,,,,,,,,,,,,,,,,,,,,,,,,,,,,,,84.7919366999995,None,right,0,0.8555338000296615,85.29310279997298,86.04306250001537,85.29310279997298,85.54281770001398,85.29310279997298,85.54281770001398,85.29310279997298,85.54281770001398,85.29310279997298,85.54281770001398,85.29310279997298,85.54281770001398,85.5255680999835,86.02648609998869,85.5255680999835,86.02648609998869,85.5255680999835,86.02648609998869,85.5255680999835,86.02648609998869,85.5255680999835,86.02648609998869,85.5255680999835,86.02648609998869,85.5255680999835,86.02648609998869,85.5255680999835,86.02648609998869,85.29310279997298,None,86.02648609998869,86.9114084999892,0.25,86.92765299999155,None,87.67968010000186,None,,,,,,,[0.875],2.570000000000002,0.5,11009,002,2024_Jan_02_1336,MFTM_A_new1021,2021.2.3,60.094528685834845,
,,,,,,,,stim/Instruction_adaptive.png,conditions/adaptive.xlsx,test,-0.6,-0.6,-0.6,0.6,0.6,left,L,,,,,0,1,1,1,0,2,2,99,,,,,,,,,,,,,,,,,,,,,,,,,,,,,,,,,,,,,,,,,,,,88.17975110001862,None,left,1,1.1079929999541491,88.68041570001515,90.29911429999629,88.68041570001515,89.79863619996468,88.68041570001515,89.79863619996468,88.68041570001515,89.79863619996468,88.68041570001515,89.79863619996468,88.68041570001515,89.79863619996468,89.76531549997162,90.26622170000337,89.76531549997162,90.26622170000337,89.76531549997162,90.26622170000337,89.76531549997162,90.26622170000337,89.76531549997162,90.26622170000337,89.76531549997162,90.26622170000337,89.76531549997162,90.26622170000337,89.76531549997162,90.26622170000337,88.68041570001515,None,90.26622170000337,91.31834080000408,1.1100000000000008,91.35091729997657,None,92.1021529000136,None,,,,,,,[1.04666667],3.3800000000000026,0.6666666666666666,11009,002,2024_Jan_02_1336,MFTM_A_new1021,2021.2.3,60.094528685834845,
,,,,,,,,stim/Instruction_adaptive.png,conditions/adaptive.xlsx,test,-0.6,-0.6,-0.6,0.6,0.6,left,L,,,,,0,1,1,1,0,3,3,59,,,,,,,,,,,,,,,,,,,,,,,,,,,,,,,,,,,,,,,,,,,,92.60321799997473,None,left,1,1.0287569999927655,93.10387079999782,94.23899330000859,93.10387079999782,93.73834059998626,93.10387079999782,93.73834059998626,93.10387079999782,93.73834059998626,93.10387079999782,93.73834059998626,93.10387079999782,93.73834059998626,93.72176019998733,94.22190910001518,93.72176019998733,94.22190910001518,93.72176019998733,94.22190910001518,93.72176019998733,94.22190910001518,93.72176019998733,94.22190910001518,93.72176019998733,94.22190910001518,93.72176019998733,94.22190910001518,93.72176019998733,94.22190910001518,93.10387079999782,None,94.22190910001518,95.47446110000601,0.6300000000000003,95.49035159999039,None,96.2423222999787,None,,,,,,,[1.2525],3.940000000000003,0.75,11009,002,2024_Jan_02_1336,MFTM_A_new1021,2021.2.3,60.094528685834845,
,,,,,,,,stim/Instruction_adaptive.png,conditions/adaptive.xlsx,test,-0.6,-0.6,-0.6,0.6,0.6,left,L,,,,,0,1,1,1,0,4,4,93,,,,,,,,,,,,,,,,,,,,,,,,,,,,,,,,,,,,,,,,,,,,96.74226309999358,None,right,0,0.841857000021264,97.24283160001505,98.17980240000179,97.24283160001505,97.67750639998121,97.24283160001505,97.67750639998121,97.24283160001505,97.67750639998121,97.24283160001505,97.67750639998121,97.24283160001505,97.67750639998121,97.6604243000038,98.16080369998235,97.6604243000038,98.16080369998235,97.6604243000038,98.16080369998235,97.6604243000038,98.16080369998235,97.6604243000038,98.16080369998235,97.6604243000038,98.16080369998235,97.6604243000038,98.16080369998235,97.6604243000038,98.16080369998235,97.24283160001505,None,98.16080369998235,99.58059079997474,0.43000000000000016,99.59645139996428,None,100.34799159999238,None,,,,,,,[1.416],2.960000000000002,0.6,11009,002,2024_Jan_02_1336,MFTM_A_new1021,2021.2.3,60.094528685834845,
,,,,,,,,stim/Instruction_adaptive.png,conditions/adaptive.xlsx,test,0.6,0.6,0.6,-0.6,-0.6,right,R,,,,,0,1,1,1,0,5,5,76,,,,,,,,,,,,,,,,,,,,,,,,,,,,,,,,,,,,,,,,,,,,100.84844079997856,None,right,1,1.6069482000311837,101.34977179998532,102.70202959998278,101.34977179998532,102.20030759996735,101.34977179998532,102.20030759996735,101.34977179998532,102.20030759996735,101.34977179998532,102.20030759996735,101.34977179998532,102.20030759996735,102.18427969998447,102.6846063999692,102.18427969998447,102.6846063999692,102.18427969998447,102.6846063999692,102.18427969998447,102.6846063999692,102.18427969998447,102.6846063999692,102.18427969998447,102.6846063999692,102.18427969998447,102.6846063999692,102.18427969998447,102.6846063999692,101.34977179998532,None,102.6846063999692,104.15380390000064,0.8500000000000005,104.16991910000797,None,104.92107899999246,None,,,,,,,[1.455],3.3600000000000025,0.6666666666666666,11009,002,2024_Jan_02_1336,MFTM_A_new1021,2021.2.3,60.094528685834845,
,,,,,,,,stim/Instruction_adaptive.png,conditions/adaptive.xlsx,test,-0.6,-0.6,-0.6,0.6,0.6,left,L,,,,,0,1,1,1,0,6,6,23,,,,,,,,,,,,,,,,,,,,,,,,,,,,,,,,,,,,,,,,,,,,105.42252809996717,None,left,1,1.009963600023184,105.92247950000456,107.07481399999233,105.92247950000456,106.57368909998331,105.92247950000456,106.57368909998331,105.92247950000456,106.57368909998331,105.92247950000456,106.57368909998331,105.92247950000456,106.57368909998331,106.5407886999892,107.04178600001615,106.5407886999892,107.04178600001615,106.5407886999892,107.04178600001615,106.5407886999892,107.04178600001615,106.5407886999892,107.04178600001615,106.5407886999892,107.04178600001615,106.5407886999892,107.04178600001615,106.5407886999892,107.04178600001615,105.92247950000456,None,107.04178600001615,108.5598729000194,0.6400000000000003,108.57675000000745,None,109.32820809999248,None,,,,,,,[1.51285714],3.660000000000003,0.7142857142857143,11009,002,2024_Jan_02_1336,MFTM_A_new1021,2021.2.3,60.094528685834845,
,,,,,,,,stim/Instruction_adaptive.png,conditions/adaptive.xlsx,test,-0.6,-0.6,-0.6,0.6,0.6,left,L,,,,,0,1,1,1,0,7,7,65,,,,,,,,,,,,,,,,,,,,,,,,,,,,,,,,,,,,,,,,,,,,109.82910600001924,None,right,0,1.2275178999989294,110.32891330000712,111.36431119998451,110.32891330000712,110.86332399997627,110.32891330000712,110.86332399997627,110.32891330000712,110.86332399997627,110.32891330000712,110.86332399997627,110.32891330000712,110.86332399997627,110.8301379000186,111.33059199998388,110.8301379000186,111.33059199998388,110.8301379000186,111.33059199998388,110.8301379000186,111.33059199998388,110.8301379000186,111.33059199998388,110.8301379000186,111.33059199998388,110.8301379000186,111.33059199998388,110.8301379000186,111.33059199998388,110.32891330000712,None,111.33059199998388,112.91627320001135,0.5200000000000002,112.93346769997152,None,113.68410919996677,None,,,,,,,[1.57125],3.000000000000002,0.625,11009,002,2024_Jan_02_1336,MFTM_A_new1021,2021.2.3,60.094528685834845,
,,,,,,,,stim/Instruction_adaptive.png,conditions/adaptive.xlsx,test,0.6,0.6,0.6,-0.6,-0.6,right,R,,,,,0,1,1,1,0,8,8,78,,,,,,,,,,,,,,,,,,,,,,,,,,,,,,,,,,,,,,,,,,,,114.18605570000364,None,right,1,2.126959200017154,114.68544799997471,116.00482719996944,114.68544799997471,115.50345089996699,114.68544799997471,115.50345089996699,114.68544799997471,115.50345089996699,114.68544799997471,115.50345089996699,114.68544799997471,115.50345089996699,115.48794369999086,115.98880039999494,115.48794369999086,115.98880039999494,115.48794369999086,115.98880039999494,115.48794369999086,115.98880039999494,115.48794369999086,115.98880039999494,115.48794369999086,115.98880039999494,115.48794369999086,115.98880039999494,115.48794369999086,115.98880039999494,114.68544799997471,None,115.98880039999494,117.57319169997936,0.8200000000000005,117.58990889997222,None,118.34180220001144,None,,,,,,,[1.58333333],3.2600000000000025,0.6666666666666666,11009,002,2024_Jan_02_1336,MFTM_A_new1021,2021.2.3,60.094528685834845,
,,,,,,,,stim/Instruction_adaptive.png,conditions/adaptive.xlsx,test,-0.6,-0.6,-0.6,0.6,0.6,left,L,,,,,0,1,1,1,0,9,9,81,,,,,,,,,,,,,,,,,,,,,,,,,,,,,,,,,,,,,,,,,,,,118.84165329998359,None,right,0,1.3825176000245847,119.34246429998893,120.54400039999746,119.34246429998893,120.04364599997643,119.34246429998893,120.04364599997643,119.34246429998893,120.04364599997643,119.34246429998893,120.04364599997643,119.34246429998893,120.04364599997643,120.01037600002019,120.51083089999156,120.01037600002019,120.51083089999156,120.01037600002019,120.51083089999156,120.01037600002019,120.51083089999156,120.01037600002019,120.51083089999156,120.01037600002019,120.51083089999156,120.01037600002019,120.51083089999156,120.01037600002019,120.51083089999156,119.34246429998893,None,120.51083089999156,122.13000780000584,0.6900000000000004,122.14729819999775,None,122.8982388000004,None,,,,,,,[1.606],2.6300000000000017,0.6,11009,002,2024_Jan_02_1336,MFTM_A_new1021,2021.2.3,60.094528685834845,
,,,,,,,,stim/Instruction_adaptive.png,conditions/adaptive.xlsx,test,-0.6,-0.6,-0.6,0.6,0.6,left,L,,,,,0,1,1,1,0,10,10,5,,,,,,,,,,,,,,,,,,,,,,,,,,,,,,,,,,,,,,,,,,,,123.39916689996608,None,left,1,1.888415099994745,123.8999896000023,125.46923390001757,123.8999896000023,124.9674442000105,123.8999896000023,124.9674442000105,123.8999896000023,124.9674442000105,123.8999896000023,124.9674442000105,123.8999896000023,124.9674442000105,124.93416960001923,125.43472869996913,124.93416960001923,125.43472869996913,124.93416960001923,125.43472869996913,124.93416960001923,125.43472869996913,124.93416960001923,125.43472869996913,124.93416960001923,125.43472869996913,124.93416960001923,125.43472869996913,124.93416960001923,125.43472869996913,123.8999896000023,None,125.43472869996913,126.88697779999347,1.0600000000000007,126.90430250001373,None,127.65488069999265,None,,,,,,,[[1.44]],2.8900000000000023,0.6363636363636364,11009,002,2024_Jan_02_1336,MFTM_A_new1021,2021.2.3,60.094528685834845,
,,,,,,,,stim/Instruction_adaptive.png,conditions/adaptive.xlsx,test,-0.6,-0.6,-0.6,0.6,0.6,left,L,,,,,0,1,1,1,0,11,11,77,,,,,,,,,,,,,,,,,,,,,,,,,,,,,,,,,,,,,,,,,,,,128.15613700001268,None,left,1,1.9326691000023857,128.65640520001762,130.0586436999729,128.65640520001762,129.55756099999417,128.65640520001762,129.55756099999417,128.65640520001762,129.55756099999417,128.65640520001762,129.55756099999417,128.65640520001762,129.55756099999417,129.52444710000418,130.02558329998283,129.52444710000418,130.02558329998283,129.52444710000418,130.02558329998283,129.52444710000418,130.02558329998283,129.52444710000418,130.02558329998283,129.52444710000418,130.02558329998283,129.52444710000418,130.02558329998283,129.52444710000418,130.02558329998283,128.65640520001762,None,130.02558329998283,131.62737080000807,0.8900000000000006,131.6438984000124,None,132.39618260000134,None,,,,,,,[1.5925],3.0900000000000025,0.6666666666666666,11009,002,2024_Jan_02_1336,MFTM_A_new1021,2021.2.3,60.094528685834845,
,,,,,,,,stim/Instruction_adaptive.png,conditions/adaptive.xlsx,test,0.6,0.6,0.6,-0.6,-0.6,right,R,,,,,0,1,1,1,0,12,12,22,,,,,,,,,,,,,,,,,,,,,,,,,,,,,,,,,,,,,,,,,,,,132.89612529997248,None,right,1,1.943734599975869,133.39676279999549,134.6660080999718,133.39676279999549,134.1811501000193,133.39676279999549,134.1811501000193,133.39676279999549,134.1811501000193,133.39676279999549,134.1811501000193,133.39676279999549,134.1811501000193,134.14753879996715,134.6490970000159,134.14753879996715,134.6490970000159,134.14753879996715,134.6490970000159,134.14753879996715,134.6490970000159,134.14753879996715,134.6490970000159,134.14753879996715,134.6490970000159,134.14753879996715,134.6490970000159,134.14753879996715,134.6490970000159,133.39676279999549,None,134.6490970000159,136.25126679998357,0.7700000000000005,136.28451480000513,None,137.0352457999834,None,,,,,,,[1.60307692],3.2500000000000027,0.6923076923076923,11009,002,2024_Jan_02_1336,MFTM_A_new1021,2021.2.3,60.094528685834845,
,,,,,,,,stim/Instruction_adaptive.png,conditions/adaptive.xlsx,test,0.6,0.6,0.6,-0.6,-0.6,right,R,,,,,0,1,1,1,0,13,13,20,,,,,,,,,,,,,,,,,,,,,,,,,,,,,,,,,,,,,,,,,,,,137.53681299998425,None,right,1,1.6402176999836229,138.03683699999237,139.24054219998652,138.03683699999237,138.7379859999637,138.03683699999237,138.7379859999637,138.03683699999237,138.7379859999637,138.03683699999237,138.7379859999637,138.03683699999237,138.7379859999637,138.70560479996493,139.2052054000087,138.70560479996493,139.2052054000087,138.70560479996493,139.2052054000087,138.70560479996493,139.2052054000087,138.70560479996493,139.2052054000087,138.70560479996493,139.2052054000087,138.70560479996493,139.2052054000087,138.70560479996493,139.2052054000087,138.03683699999237,None,139.2052054000087,140.82422499998938,0.6900000000000004,140.85740899998927,None,141.61019959999248,None,,,,,,,[1.61785714],3.4000000000000026,0.7142857142857143,11009,002,2024_Jan_02_1336,MFTM_A_new1021,2021.2.3,60.094528685834845,
,,,,,,,,stim/Instruction_adaptive.png,conditions/adaptive.xlsx,test,0.6,0.6,0.6,-0.6,-0.6,right,R,,,,,0,1,1,1,0,14,14,36,,,,,,,,,,,,,,,,,,,,,,,,,,,,,,,,,,,,,,,,,,,,142.11032119998708,None,right,1,1.5541091000195593,142.61041189997923,143.7452445999952,142.61041189997923,143.2456960999989,142.61041189997923,143.2456960999989,142.61041189997923,143.2456960999989,142.61041189997923,143.2456960999989,142.61041189997923,143.2456960999989,143.21167220000643,143.7119037999655,143.21167220000643,143.7119037999655,143.21167220000643,143.7119037999655,143.21167220000643,143.7119037999655,143.21167220000643,143.7119037999655,143.21167220000643,143.7119037999655,143.21167220000643,143.7119037999655,143.21167220000643,143.7119037999655,142.61041189997923,None,143.7119037999655,145.34921409998788,0.6200000000000003,145.3645288000116,None,146.11609039996983,None,,,,,,,[1.63533333],3.5200000000000027,0.7333333333333333,11009,002,2024_Jan_02_1336,MFTM_A_new1021,2021.2.3,60.094528685834845,
,,,,,,,,stim/Instruction_adaptive.png,conditions/adaptive.xlsx,test,0.6,0.6,0.6,-0.6,-0.6,right,R,,,,,0,1,1,1,0,15,15,74,,,,,,,,,,,,,,,,,,,,,,,,,,,,,,,,,,,,,,,,,,,,146.616989800008,None,right,1,1.3276588000007905,147.1169751000125,148.20188289997168,147.1169751000125,147.70194499997888,147.1169751000125,147.70194499997888,147.1169751000125,147.70194499997888,147.1169751000125,147.70194499997888,147.1169751000125,147.70194499997888,147.66786779998802,148.16852730000392,147.66786779998802,148.16852730000392,147.66786779998802,148.16852730000392,147.66786779998802,148.16852730000392,147.66786779998802,148.16852730000392,147.66786779998802,148.16852730000392,147.66786779998802,148.16852730000392,147.66786779998802,148.16852730000392,147.1169751000125,None,148.16852730000392,149.83801239996683,0.5700000000000003,149.8542733999784,None,150.60551630001282,None,,,,,,,[1.65375],3.6300000000000026,0.75,11009,002,2024_Jan_02_1336,MFTM_A_new1021,2021.2.3,60.094528685834845,
,,,,,,,,stim/Instruction_adaptive.png,conditions/adaptive.xlsx,test,-0.6,-0.6,-0.6,0.6,0.6,left,L,,,,,0,1,1,1,0,16,16,57,,,,,,,,,,,,,,,,,,,,,,,,,,,,,,,,,,,,,,,,,,,,151.10687680001138,None,right,0,1.549859699967783,151.6072696999763,152.6417797000031,151.6072696999763,152.14122449996648,151.6072696999763,152.14122449996648,151.6072696999763,152.14122449996648,151.6072696999763,152.14122449996648,151.6072696999763,152.14122449996648,152.12440759997116,152.62586460000603,152.12440759997116,152.62586460000603,152.12440759997116,152.62586460000603,152.12440759997116,152.62586460000603,152.12440759997116,152.62586460000603,152.12440759997116,152.62586460000603,152.12440759997116,152.62586460000603,152.12440759997116,152.62586460000603,151.6072696999763,None,152.62586460000603,None,0.5300000000000002,154.31068549997872,None,155.06209879997186,None,,,,,,,[1.67235294],3.3300000000000027,0.7058823529411765,11009,002,2024_Jan_02_1336,MFTM_A_new1021,2021.2.3,60.094528685834845,
,,,,,,,,stim/Instruction_adaptive.png,conditions/adaptive.xlsx,test,-0.6,-0.6,-0.6,0.6,0.6,left,L,,,,,0,1,1,1,0,17,17,9,,,,,,,,,,,,,,,,,,,,,,,,,,,,,,,,,,,,,,,,,,,,155.56264259997988,None,right,0,1.6123839000356384,156.06423289998202,157.21602629998233,156.06423289998202,156.71441050001886,156.06423289998202,156.71441050001886,156.06423289998202,156.71441050001886,156.06423289998202,156.71441050001886,156.06423289998202,156.71441050001886,156.698544999992,157.1986598999938,156.698544999992,157.1986598999938,156.698544999992,157.1986598999938,156.698544999992,157.1986598999938,156.698544999992,157.1986598999938,156.698544999992,157.1986598999938,156.698544999992,157.1986598999938,156.698544999992,157.1986598999938,156.06423289998202,None,157.1986598999938,158.88526800001273,0.6500000000000004,158.90084020001814,None,159.65218550001737,None,,,,,,,[1.68222222],3.000000000000002,0.6666666666666666,11009,002,2024_Jan_02_1336,MFTM_A_new1021,2021.2.3,60.094528685834845,
,,,,,,,,stim/Instruction_adaptive.png,conditions/adaptive.xlsx,test,0.6,0.6,0.6,-0.6,-0.6,right,R,,,,,0,1,1,1,0,18,18,56,,,,,,,,,,,,,,,,,,,,,,,,,,,,,,,,,,,,,,,,,,,,160.15273460000753,None,right,1,1.9913632999523543,160.65368879999733,161.97304870001972,160.65368879999733,161.4893696999643,160.65368879999733,161.4893696999643,160.65368879999733,161.4893696999643,160.65368879999733,161.4893696999643,160.65368879999733,161.4893696999643,161.45493249996798,161.95671449997462,161.45493249996798,161.95671449997462,161.45493249996798,161.95671449997462,161.45493249996798,161.95671449997462,161.45493249996798,161.95671449997462,161.45493249996798,161.95671449997462,161.45493249996798,161.95671449997462,161.45493249996798,161.95671449997462,160.65368879999733,None,161.95671449997462,163.6412642999785,0.8200000000000005,163.65800629998557,None,164.41014809999615,None,,,,,,,[[1.68]],3.1300000000000026,0.6842105263157895,11009,002,2024_Jan_02_1336,MFTM_A_new1021,2021.2.3,60.094528685834845,
,,,,,,,,stim/Instruction_adaptive.png,conditions/adaptive.xlsx,test,0.6,0.6,0.6,-0.6,-0.6,right,R,,,,,0,1,1,1,0,19,19,40,,,,,,,,,,,,,,,,,,,,,,,,,,,,,,,,,,,,,,,,,,,,164.91061510000145,None,left,0,2.0187783999717794,165.41067770001246,166.66311259998474,165.41067770001246,166.16202589997556,165.41067770001246,166.16202589997556,165.41067770001246,166.16202589997556,165.41067770001246,166.16202589997556,165.41067770001246,166.16202589997556,166.14554419997148,166.64583539997693,166.14554419997148,166.64583539997693,166.14554419997148,166.64583539997693,166.14554419997148,166.64583539997693,166.14554419997148,166.64583539997693,166.14554419997148,166.64583539997693,166.14554419997148,166.64583539997693,166.14554419997148,166.64583539997693,165.41067770001246,None,166.64583539997693,168.33214080001926,0.7500000000000004,168.35081879998324,None,169.11693439999362,None,,,,,,,[1.6855],2.790000000000002,0.65,11009,002,2024_Jan_02_1336,MFTM_A_new1021,2021.2.3,60.094528685834845,
,,,,,,,,stim/Instruction_adaptive.png,conditions/adaptive.xlsx,test,-0.6,-0.6,-0.6,0.6,0.6,left,L,,,,,0,1,1,1,0,20,20,43,,,,,,,,,,,,,,,,,,,,,,,,,,,,,,,,,,,,,,,,,,,,169.61755199998152,None,left,1,2.2224593999562785,170.11796980001964,171.57028909999644,170.11796980001964,171.06973519996973,170.11796980001964,171.06973519996973,170.11796980001964,171.06973519996973,170.11796980001964,171.06973519996973,170.11796980001964,171.06973519996973,171.0525291999802,171.55372359999456,171.0525291999802,171.55372359999456,171.0525291999802,171.55372359999456,171.0525291999802,171.55372359999456,171.0525291999802,171.55372359999456,171.0525291999802,171.55372359999456,171.0525291999802,171.55372359999456,171.0525291999802,171.55372359999456,170.11796980001964,None,171.55372359999456,173.1055174000212,0.9500000000000006,173.12239839998074,None,173.8742315999698,None,,,,,,,[[1.55]],2.920000000000002,0.6666666666666666,11009,002,2024_Jan_02_1336,MFTM_A_new1021,2021.2.3,60.094528685834845,
,,,,,,,,stim/Instruction_adaptive.png,conditions/adaptive.xlsx,test,0.6,0.6,0.6,-0.6,-0.6,right,R,,,,,0,1,1,1,0,21,21,38,,,,,,,,,,,,,,,,,,,,,,,,,,,,,,,,,,,,,,,,,,,,174.3747113000136,None,right,1,1.9860556999919936,174.87463759997627,176.26104850001866,174.87463759997627,175.75913269998273,174.87463759997627,175.75913269998273,174.87463759997627,175.75913269998273,174.87463759997627,175.75913269998273,174.87463759997627,175.75913269998273,175.7262202000129,176.2267805999727,175.7262202000129,176.2267805999727,175.7262202000129,176.2267805999727,175.7262202000129,176.2267805999727,175.7262202000129,176.2267805999727,175.7262202000129,176.2267805999727,175.7262202000129,176.2267805999727,175.7262202000129,176.2267805999727,174.87463759997627,None,176.2267805999727,177.86400090000825,0.8700000000000006,177.87914199999068,None,178.6305885000038,None,,,,,,,[[1.63]],3.030000000000002,0.6818181818181818,11009,002,2024_Jan_02_1336,MFTM_A_new1021,2021.2.3,60.094528685834845,
,,,,,,,,stim/Instruction_adaptive.png,conditions/adaptive.xlsx,test,0.6,0.6,0.6,-0.6,-0.6,right,R,,,,,0,1,1,1,0,22,22,30,,,,,,,,,,,,,,,,,,,,,,,,,,,,,,,,,,,,,,,,,,,,179.13103230000706,None,right,1,1.7967220999998972,179.631827300007,180.95145499997307,179.631827300007,180.44973089999985,179.631827300007,180.44973089999985,179.631827300007,180.44973089999985,179.631827300007,180.44973089999985,179.631827300007,180.44973089999985,180.43300219997764,180.93369279999752,180.43300219997764,180.93369279999752,180.43300219997764,180.93369279999752,180.43300219997764,180.93369279999752,180.43300219997764,180.93369279999752,180.43300219997764,180.93369279999752,180.43300219997764,180.93369279999752,180.43300219997764,180.93369279999752,179.631827300007,None,180.93369279999752,None,0.8100000000000005,182.61945669999113,None,183.37061909999466,None,,,,,,,[1.6773913],3.1300000000000026,0.6956521739130435,11009,002,2024_Jan_02_1336,MFTM_A_new1021,2021.2.3,60.094528685834845,
,,,,,,,,stim/Instruction_adaptive.png,conditions/adaptive.xlsx,test,0.6,0.6,0.6,-0.6,-0.6,right,R,,,,,0,1,1,1,0,23,23,54,,,,,,,,,,,,,,,,,,,,,,,,,,,,,,,,,,,,,,,,,,,,183.87238169997,None,left,0,1.6886871000169776,184.37192559998948,185.6240183999762,184.37192559998948,185.12345269997604,184.37192559998948,185.12345269997604,184.37192559998948,185.12345269997604,184.37192559998948,185.12345269997604,184.37192559998948,185.12345269997604,185.1065064999857,185.6079201999819,185.1065064999857,185.6079201999819,185.1065064999857,185.6079201999819,185.1065064999857,185.6079201999819,185.1065064999857,185.6079201999819,185.1065064999857,185.6079201999819,185.1065064999857,185.6079201999819,185.1065064999857,185.6079201999819,184.37192559998948,None,185.6079201999819,187.29321619996335,0.7500000000000004,187.30955020000692,None,188.06088050000835,None,,,,,,,[1.68041667],2.860000000000002,0.6666666666666666,11009,002,2024_Jan_02_1336,MFTM_A_new1021,2021.2.3,60.094528685834845,
,,,,,,,,stim/Instruction_adaptive.png,conditions/adaptive.xlsx,test,0.6,0.6,0.6,-0.6,-0.6,right,R,,,,,0,1,1,1,0,24,24,66,,,,,,,,,,,,,,,,,,,,,,,,,,,,,,,,,,,,,,,,,,,,188.56262889999198,None,right,1,1.5579813999938779,189.06263309996575,190.4811315999832,189.06263309996575,189.98112010001205,189.06263309996575,189.98112010001205,189.06263309996575,189.98112010001205,189.06263309996575,189.98112010001205,189.06263309996575,189.98112010001205,189.9637407999835,190.46585629996844,189.9637407999835,190.46585629996844,189.9637407999835,190.46585629996844,189.9637407999835,190.46585629996844,189.9637407999835,190.46585629996844,189.9637407999835,190.46585629996844,189.9637407999835,190.46585629996844,189.9637407999835,190.46585629996844,189.06263309996575,None,190.44774809997762,192.05023799999617,0.9100000000000006,192.0666360000032,None,192.81931110000005,None,,,,,,,[[1.59]],2.960000000000002,0.68,11009,002,2024_Jan_02_1336,MFTM_A_new1021,2021.2.3,60.094528685834845,
,,,,,,,,stim/Instruction_adaptive.png,conditions/adaptive.xlsx,test,-0.6,-0.6,-0.6,0.6,0.6,left,L,,,,,0,1,1,1,0,25,25,19,,,,,,,,,,,,,,,,,,,,,,,,,,,,,,,,,,,,,,,,,,,,193.31921769998735,None,left,1,1.769399799988605,193.8194252999965,195.17139799997676,193.8194252999965,194.67092279996723,193.8194252999965,194.67092279996723,193.8194252999965,194.67092279996723,193.8194252999965,194.67092279996723,193.8194252999965,194.67092279996723,194.65450760000385,195.15462889999617,194.65450760000385,195.15462889999617,194.65450760000385,195.15462889999617,194.65450760000385,195.15462889999617,194.65450760000385,195.15462889999617,194.65450760000385,195.15462889999617,194.65450760000385,195.15462889999617,194.65450760000385,195.15462889999617,193.8194252999965,None,195.15462889999617,196.80813289998332,0.8500000000000005,196.82393499999307,None,197.57494229997974,None,,,,,,,[[1.65]],3.0500000000000025,0.6923076923076923,11009,002,2024_Jan_02_1336,MFTM_A_new1021,2021.2.3,60.094528685834845,
,,,,,,,,stim/Instruction_adaptive.png,conditions/adaptive.xlsx,test,0.6,0.6,0.6,-0.6,-0.6,right,R,,,,,0,1,1,1,0,26,26,18,,,,,,,,,,,,,,,,,,,,,,,,,,,,,,,,,,,,,,,,,,,,198.07648839999456,None,right,1,1.940276300010737,198.57643299998017,199.8790612000157,198.57643299998017,199.37834779999685,198.57643299998017,199.37834779999685,198.57643299998017,199.37834779999685,198.57643299998017,199.37834779999685,198.57643299998017,199.37834779999685,199.34443709999323,199.84561459999532,199.34443709999323,199.84561459999532,199.34443709999323,199.84561459999532,199.34443709999323,199.84561459999532,199.34443709999323,199.84561459999532,199.34443709999323,199.84561459999532,199.34443709999323,199.84561459999532,199.34443709999323,199.84561459999532,198.57643299998017,None,199.84561459999532,201.53148140001576,0.7900000000000005,201.548195499985,None,202.29875119996723,None,,,,,,,[1.67703704],3.1300000000000026,0.7037037037037037,11009,002,2024_Jan_02_1336,MFTM_A_new1021,2021.2.3,60.094528685834845,
,,,,,,,,stim/Instruction_adaptive.png,conditions/adaptive.xlsx,test,0.6,0.6,0.6,-0.6,-0.6,right,R,,,,,0,1,1,1,0,27,27,68,,,,,,,,,,,,,,,,,,,,,,,,,,,,,,,,,,,,,,,,,,,,202.8000502999639,None,right,1,1.7374738999642432,203.30027020000853,204.5529238000163,203.30027020000853,204.05267710000044,203.30027020000853,204.05267710000044,203.30027020000853,204.05267710000044,203.30027020000853,204.05267710000044,203.30027020000853,204.05267710000044,204.0358418999822,204.5360217000125,204.0358418999822,204.5360217000125,204.0358418999822,204.5360217000125,204.0358418999822,204.5360217000125,204.0358418999822,204.5360217000125,204.0358418999822,204.5360217000125,204.0358418999822,204.5360217000125,204.0358418999822,204.5360217000125,203.30027020000853,None,204.5360217000125,206.22204829996917,0.7500000000000004,206.23909669998102,None,206.9903394000139,None,,,,,,,[1.67964286],3.2000000000000024,0.7142857142857143,11009,002,2024_Jan_02_1336,MFTM_A_new1021,2021.2.3,60.094528685834845,
,,,,,,,,stim/Instruction_adaptive.png,conditions/adaptive.xlsx,test,-0.6,-0.6,-0.6,0.6,0.6,left,L,,,,,0,1,1,1,0,28,28,17,,,,,,,,,,,,,,,,,,,,,,,,,,,,,,,,,,,,,,,,,,,,207.49009769997792,None,right,0,1.8781020000460558,207.99062329996377,209.20971029996872,207.99062329996377,208.72540150000714,207.99062329996377,208.72540150000714,207.99062329996377,208.72540150000714,207.99062329996377,208.72540150000714,207.99062329996377,208.72540150000714,208.6924994000001,209.19348489999538,208.6924994000001,209.19348489999538,208.6924994000001,209.19348489999538,208.6924994000001,209.19348489999538,208.6924994000001,209.19348489999538,208.6924994000001,209.19348489999538,208.6924994000001,209.19348489999538,208.6924994000001,209.19348489999538,207.99062329996377,None,209.19348489999538,210.87993459997233,0.7200000000000004,210.91264799999772,None,211.66372959996806,None,,,,,,,[1.68310345],2.990000000000002,0.6896551724137931,11009,002,2024_Jan_02_1336,MFTM_A_new1021,2021.2.3,60.094528685834845,
,,,,,,,,stim/Instruction_adaptive.png,conditions/adaptive.xlsx,test,-0.6,-0.6,-0.6,0.6,0.6,left,L,,,,,0,1,1,1,0,29,29,75,,,,,,,,,,,,,,,,,,,,,,,,,,,,,,,,,,,,,,,,,,,,212.16326890001073,None,right,0,2.10880599997472,212.66399540001294,213.99929050001083,212.66399540001294,213.49863899999764,212.66399540001294,213.49863899999764,212.66399540001294,213.49863899999764,212.66399540001294,213.49863899999764,212.66399540001294,213.49863899999764,213.48227709997445,213.98303980001947,213.48227709997445,213.98303980001947,213.48227709997445,213.98303980001947,213.48227709997445,213.98303980001947,213.48227709997445,213.98303980001947,213.48227709997445,213.98303980001947,213.48227709997445,213.98303980001947,213.48227709997445,213.98303980001947,212.66399540001294,None,213.98303980001947,215.65209089999553,0.8300000000000005,215.66903659998206,None,216.41971250000643,None,,,,,,,[[1.67]],2.760000000000002,0.6666666666666666,11009,002,2024_Jan_02_1336,MFTM_A_new1021,2021.2.3,60.094528685834845,
,,,,,,,,stim/Instruction_adaptive.png,conditions/adaptive.xlsx,test,-0.6,-0.6,-0.6,0.6,0.6,left,L,,,,,0,1,1,1,0,30,30,31,,,,,,,,,,,,,,,,,,,,,,,,,,,,,,,,,,,,,,,,,,,,216.92039079999086,None,left,1,1.2077754000201821,217.42118379997555,218.890966499981,217.42118379997555,218.40641080000205,217.42118379997555,218.40641080000205,217.42118379997555,218.40641080000205,217.42118379997555,218.40641080000205,217.42118379997555,218.40641080000205,218.37273030000506,218.87559020001208,218.37273030000506,218.87559020001208,218.37273030000506,218.87559020001208,218.37273030000506,218.87559020001208,218.37273030000506,218.87559020001208,218.37273030000506,218.87559020001208,218.37273030000506,218.87559020001208,218.37273030000506,218.87559020001208,217.42118379997555,None,218.87559020001208,220.40958669997053,0.9700000000000006,220.42509029997746,None,221.1772656000103,None,,,,,,,[[1.53]],2.840000000000002,0.6774193548387096,11009,002,2024_Jan_02_1336,MFTM_A_new1021,2021.2.3,60.094528685834845,
,,,,,,,,stim/Instruction_adaptive.png,conditions/adaptive.xlsx,test,0.6,0.6,0.6,-0.6,-0.6,right,R,,,,,0,1,1,1,0,31,31,2,,,,,,,,,,,,,,,,,,,,,,,,,,,,,,,,,,,,,,,,,,,,221.67814460000955,None,left,0,1.794420899997931,222.1782771999715,223.5979709000094,222.1782771999715,223.11342439998407,222.1782771999715,223.11342439998407,222.1782771999715,223.11342439998407,222.1782771999715,223.11342439998407,222.1782771999715,223.11342439998407,223.0805404999992,223.580801300006,223.0805404999992,223.580801300006,223.0805404999992,223.580801300006,223.0805404999992,223.580801300006,223.0805404999992,223.580801300006,223.0805404999992,223.580801300006,223.0805404999992,223.580801300006,223.0805404999992,223.580801300006,222.1782771999715,None,223.580801300006,225.1661780999857,0.9200000000000006,225.18249689997174,None,225.93376420001732,None,,,,,,,[[1.58]],2.600000000000002,0.65625,11009,002,2024_Jan_02_1336,MFTM_A_new1021,2021.2.3,60.094528685834845,
,,,,,,,,stim/Instruction_adaptive.png,conditions/adaptive.xlsx,test,0.6,0.6,0.6,-0.6,-0.6,right,R,,,,,0,1,1,1,0,32,32,32,,,,,,,,,,,,,,,,,,,,,,,,,,,,,,,,,,,,,,,,,,,,226.4344164999784,None,right,1,1.0534201999544166,226.93518029997358,228.53857909998624,226.93518029997358,228.0379804999684,226.93518029997358,228.0379804999684,226.93518029997358,228.0379804999684,226.93518029997358,228.0379804999684,226.93518029997358,228.0379804999684,228.00459570001112,228.5043077999726,228.00459570001112,228.5043077999726,228.00459570001112,228.5043077999726,228.00459570001112,228.5043077999726,228.00459570001112,228.5043077999726,228.00459570001112,228.5043077999726,228.00459570001112,228.5043077999726,228.00459570001112,228.5043077999726,226.93518029997358,None,228.5043077999726,229.9230085000163,1.0900000000000007,229.9395627999911,None,230.6908320999937,None,,,,,,,[[1.41]],2.690000000000002,0.6666666666666666,11009,002,2024_Jan_02_1336,MFTM_A_new1021,2021.2.3,60.094528685834845,
,,,,,,,,stim/Instruction_adaptive.png,conditions/adaptive.xlsx,test,-0.6,-0.6,-0.6,0.6,0.6,left,L,,,,,0,1,1,1,0,33,33,91,,,,,,,,,,,,,,,,,,,,,,,,,,,,,,,,,,,,,,,,,,,,231.19256599998334,None,left,1,1.568177699984517,231.69283820001874,233.21223980002105,231.69283820001874,232.72774449997814,231.69283820001874,232.72774449997814,231.69283820001874,232.72774449997814,231.69283820001874,232.72774449997814,231.69283820001874,232.72774449997814,232.69378719996894,233.195741500007,232.69378719996894,233.195741500007,232.69378719996894,233.195741500007,232.69378719996894,233.195741500007,232.69378719996894,233.195741500007,232.69378719996894,233.195741500007,232.69378719996894,233.195741500007,232.69378719996894,233.195741500007,231.69283820001874,None,233.195741500007,234.67977119999705,1.0200000000000007,234.6971910999855,None,235.44828479998978,None,,,,,,,[[1.48]],2.7700000000000022,0.6764705882352942,11009,002,2024_Jan_02_1336,MFTM_A_new1021,2021.2.3,60.094528685834845,
,,,,,,,,stim/Instruction_adaptive.png,conditions/adaptive.xlsx,test,0.6,0.6,0.6,-0.6,-0.6,right,R,,,,,0,1,1,1,0,34,34,50,,,,,,,,,,,,,,,,,,,,,,,,,,,,,,,,,,,,,,,,,,,,235.94931399996858,None,right,1,1.6114251000108197,236.44922429998405,237.91813259996707,236.44922429998405,237.41730560001452,236.44922429998405,237.41730560001452,236.44922429998405,237.41730560001452,236.44922429998405,237.41730560001452,236.44922429998405,237.41730560001452,237.38400049996562,237.88545870000962,237.38400049996562,237.88545870000962,237.38400049996562,237.88545870000962,237.38400049996562,237.88545870000962,237.38400049996562,237.88545870000962,237.38400049996562,237.88545870000962,237.38400049996562,237.88545870000962,237.38400049996562,237.88545870000962,236.44922429998405,None,237.88545870000962,239.4377501999843,0.9600000000000006,239.45374560001073,None,240.20568219997222,None,,,,,,,[[1.54]],2.840000000000002,0.6857142857142857,11009,002,2024_Jan_02_1336,MFTM_A_new1021,2021.2.3,60.094528685834845,
,,,,,,,,stim/Instruction_adaptive.png,conditions/adaptive.xlsx,test,0.6,0.6,0.6,-0.6,-0.6,right,R,,,,,0,1,1,1,0,35,35,80,,,,,,,,,,,,,,,,,,,,,,,,,,,,,,,,,,,,,,,,,,,,240.70638089999557,None,left,0,2.197902099986095,241.2070398000069,242.64183460001368,241.2070398000069,242.1416586000123,241.2070398000069,242.1416586000123,241.2070398000069,242.1416586000123,241.2070398000069,242.1416586000123,241.2070398000069,242.1416586000123,242.1077369999839,242.60897170001408,242.1077369999839,242.60897170001408,242.1077369999839,242.60897170001408,242.1077369999839,242.60897170001408,242.1077369999839,242.60897170001408,242.1077369999839,242.60897170001408,242.1077369999839,242.60897170001408,242.1077369999839,242.60897170001408,241.2070398000069,None,242.60897170001408,244.1945035000099,0.9200000000000006,244.21073300001444,None,244.96327409998048,None,,,,,,,[[1.58]],2.640000000000002,0.6666666666666666,11009,002,2024_Jan_02_1336,MFTM_A_new1021,2021.2.3,60.094528685834845,
,,,,,,,,stim/Instruction_adaptive.png,conditions/adaptive.xlsx,test,-0.6,-0.6,-0.6,0.6,0.6,left,L,,,,,0,1,1,1,0,36,36,45,,,,,,,,,,,,,,,,,,,,,,,,,,,,,,,,,,,,,,,,,,,,245.46369850001065,None,right,0,2.5213710999814793,245.96414459997322,247.53368559997762,245.96414459997322,247.03235409996705,245.96414459997322,247.03235409996705,245.96414459997322,247.03235409996705,245.96414459997322,247.03235409996705,245.96414459997322,247.03235409996705,246.998604399967,247.49916959996335,246.998604399967,247.49916959996335,246.998604399967,247.49916959996335,246.998604399967,247.49916959996335,246.998604399967,247.49916959996335,246.998604399967,247.49916959996335,246.998604399967,247.49916959996335,246.998604399967,247.49916959996335,245.96414459997322,None,247.49916959996335,248.95172409998486,1.0600000000000007,248.96776899998076,None,249.71905309997965,None,,,,,,,[[1.44]],2.4000000000000017,0.6486486486486487,11009,002,2024_Jan_02_1336,MFTM_A_new1021,2021.2.3,60.094528685834845,
,,,,,,,,stim/Instruction_adaptive.png,conditions/adaptive.xlsx,test,0.6,0.6,0.6,-0.6,-0.6,right,R,,,,,0,1,1,1,0,37,37,70,,,,,,,,,,,,,,,,,,,,,,,,,,,,,,,,,,,,,,,,,,,,250.2204598999815,None,right,1,2.268504599982407,250.72039610001957,252.47286059998441,250.72039610001957,251.973132300016,250.72039610001957,251.973132300016,250.72039610001957,251.973132300016,250.72039610001957,251.973132300016,250.72039610001957,251.973132300016,251.9556427000207,252.45637749996968,251.9556427000207,252.45637749996968,251.9556427000207,252.45637749996968,251.9556427000207,252.45637749996968,251.9556427000207,252.45637749996968,251.9556427000207,252.45637749996968,251.9556427000207,252.45637749996968,251.9556427000207,252.45637749996968,250.72039610001957,None,252.45637749996968,253.70884560002014,1.2500000000000009,253.72423599998,None,254.4765360999736,None,,,,,,,[[1.25]],2.490000000000002,0.6578947368421053,11009,002,2024_Jan_02_1336,MFTM_A_new1021,2021.2.3,60.094528685834845,
,,,,,,,,stim/Instruction_adaptive.png,conditions/adaptive.xlsx,test,-0.6,-0.6,-0.6,0.6,0.6,left,L,,,,,0,1,1,1,0,38,38,39,,,,,,,,,,,,,,,,,,,,,,,,,,,,,,,,,,,,,,,,,,,,254.9775479999953,None,left,1,1.2793261000188068,255.4775673999684,257.1474635999766,255.4775673999684,256.662327500002,255.4775673999684,256.662327500002,255.4775673999684,256.662327500002,255.4775673999684,256.662327500002,255.4775673999684,256.662327500002,256.6295941999997,257.13068669999484,256.6295941999997,257.13068669999484,256.6295941999997,257.13068669999484,256.6295941999997,257.13068669999484,256.6295941999997,257.13068669999484,256.6295941999997,257.13068669999484,256.6295941999997,257.13068669999484,256.6295941999997,257.13068669999484,255.4775673999684,None,257.13068669999484,258.4660281999968,1.1700000000000008,258.48191099998076,None,259.2332874999847,None,,,,,,,[[1.33]],2.570000000000002,0.6666666666666666,11009,002,2024_Jan_02_1336,MFTM_A_new1021,2021.2.3,60.094528685834845,
,,,,,,,,stim/Instruction_adaptive.png,conditions/adaptive.xlsx,test,0.6,0.6,0.6,-0.6,-0.6,right,R,,,,,0,1,1,1,0,39,39,10,,,,,,,,,,,,,,,,,,,,,,,,,,,,,,,,,,,,,,,,,,,,259.7343183999765,None,right,1,0.9865368999890052,260.2344500999898,261.8543023999664,260.2344500999898,261.3529049999779,260.2344500999898,261.3529049999779,260.2344500999898,261.3529049999779,260.2344500999898,261.3529049999779,260.2344500999898,261.3529049999779,261.3361865999759,261.83825610001804,261.3361865999759,261.83825610001804,261.3361865999759,261.83825610001804,261.3361865999759,261.83825610001804,261.3361865999759,261.83825610001804,261.3361865999759,261.83825610001804,261.3361865999759,261.83825610001804,261.3361865999759,261.83825610001804,260.2344500999898,None,261.8211871999665,263.2234121999936,1.1100000000000008,263.23880739999004,None,263.99091049999697,None,,,,,,,[[1.39]],2.640000000000002,0.675,11009,002,2024_Jan_02_1336,MFTM_A_new1021,2021.2.3,60.094528685834845,
,,,,,,,,stim/Instruction_adaptive.png,conditions/adaptive.xlsx,test,0.6,0.6,0.6,-0.6,-0.6,right,R,,,,,0,1,1,1,0,40,40,48,,,,,,,,,,,,,,,,,,,,,,,,,,,,,,,,,,,,,,,,,,,,264.4918372000102,None,right,1,2.205080399988219,264.9915531000006,266.56116529996507,264.9915531000006,266.0603726999834,264.9915531000006,266.0603726999834,264.9915531000006,266.0603726999834,264.9915531000006,266.0603726999834,264.9915531000006,266.0603726999834,266.0264332999941,266.52792600000976,266.0264332999941,266.52792600000976,266.0264332999941,266.52792600000976,266.0264332999941,266.52792600000976,266.0264332999941,266.52792600000976,266.0264332999941,266.52792600000976,266.0264332999941,266.52792600000976,266.0264332999941,266.52792600000976,264.9915531000006,None,266.52792600000976,267.9795438000001,1.0600000000000007,267.99600049998844,None,268.74799040000653,None,,,,,,,[[1.44]],2.700000000000002,0.6829268292682927,11009,002,2024_Jan_02_1336,MFTM_A_new1021,2021.2.3,60.094528685834845,
,,,,,,,,stim/Instruction_adaptive.png,conditions/adaptive.xlsx,test,0.6,0.6,0.6,-0.6,-0.6,right,R,,,,,0,1,1,1,0,41,41,90,,,,,,,,,,,,,,,,,,,,,,,,,,,,,,,,,,,,,,,,,,,,269.24852510000346,None,right,1,1.8322775000124238,269.7486551000038,271.26849459996447,269.7486551000038,270.7668573000119,269.7486551000038,270.7668573000119,269.7486551000038,270.7668573000119,269.7486551000038,270.7668573000119,269.7486551000038,270.7668573000119,270.7333995999652,271.2344004000188,270.7333995999652,271.2344004000188,270.7333995999652,271.2344004000188,270.7333995999652,271.2344004000188,270.7333995999652,271.2344004000188,270.7333995999652,271.2344004000188,270.7333995999652,271.2344004000188,270.7333995999652,271.2344004000188,269.7486551000038,None,271.2344004000188,272.73827649996383,1.0100000000000007,272.7531037000008,None,273.5048274999717,None,,,,,,,[[1.49]],2.760000000000002,0.6904761904761905,11009,002,2024_Jan_02_1336,MFTM_A_new1021,2021.2.3,60.094528685834845,
,,,,,,,,stim/Instruction_adaptive.png,conditions/adaptive.xlsx,test,0.6,0.6,0.6,-0.6,-0.6,right,R,,,,,0,1,1,1,0,42,42,96,,,,,,,,,,,,,,,,,,,,,,,,,,,,,,,,,,,,,,,,,,,,274.00583490001736,None,right,1,1.7072351000388153,274.5056568,275.9752657000208,274.5056568,275.47427910001716,274.5056568,275.47427910001716,274.5056568,275.47427910001716,274.5056568,275.47427910001716,274.5056568,275.47427910001716,275.4581247000024,275.9592673999723,275.4581247000024,275.9592673999723,275.4581247000024,275.9592673999723,275.4581247000024,275.9592673999723,275.4581247000024,275.9592673999723,275.4581247000024,275.9592673999723,275.4581247000024,275.9592673999723,275.4581247000024,275.9592673999723,274.5056568,None,275.9592673999723,277.4943045999971,0.9700000000000006,277.5102807999938,None,278.2618742000195,None,,,,,,,[[1.53]],2.820000000000002,0.6976744186046512,11009,002,2024_Jan_02_1336,MFTM_A_new1021,2021.2.3,60.094528685834845,
,,,,,,,,stim/Instruction_adaptive.png,conditions/adaptive.xlsx,test,0.6,0.6,0.6,-0.6,-0.6,right,R,,,,,0,1,1,1,0,43,43,6,,,,,,,,,,,,,,,,,,,,,,,,,,,,,,,,,,,,,,,,,,,,278.76276129996404,None,right,1,1.686108800000511,279.26282489998266,280.69864499999676,279.26282489998266,280.1981131999637,279.26282489998266,280.1981131999637,279.26282489998266,280.1981131999637,279.26282489998266,280.1981131999637,279.26282489998266,280.1981131999637,280.1813633000129,280.68198429996846,280.1813633000129,280.68198429996846,280.1813633000129,280.68198429996846,280.1813633000129,280.68198429996846,280.1813633000129,280.68198429996846,280.1813633000129,280.68198429996846,280.1813633000129,280.68198429996846,280.1813633000129,280.68198429996846,279.26282489998266,None,280.68198429996846,None,0.9300000000000006,282.2671977999853,None,283.0182782000047,None,,,,,,,[[1.57]],2.870000000000002,0.7045454545454546,11009,002,2024_Jan_02_1336,MFTM_A_new1021,2021.2.3,60.094528685834845,
,,,,,,,,stim/Instruction_adaptive.png,conditions/adaptive.xlsx,test,0.6,0.6,0.6,-0.6,-0.6,right,R,,,,,0,1,1,1,0,44,44,98,,,,,,,,,,,,,,,,,,,,,,,,,,,,,,,,,,,,,,,,,,,,283.51962759997696,None,right,1,1.3437231999705546,284.020978000015,285.42216209997423,284.020978000015,284.9210815000115,284.020978000015,284.9210815000115,284.020978000015,284.9210815000115,284.020978000015,284.9210815000115,284.020978000015,284.9210815000115,284.90420390001964,285.40749800001504,284.90420390001964,285.40749800001504,284.90420390001964,285.40749800001504,284.90420390001964,285.40749800001504,284.90420390001964,285.40749800001504,284.90420390001964,285.40749800001504,284.90420390001964,285.40749800001504,284.90420390001964,285.40749800001504,284.020978000015,None,285.40749800001504,287.00793009996414,0.9000000000000006,287.02423350000754,None,287.7761303000152,None,,,,,,,[[1.6]],2.920000000000002,0.7111111111111111,11009,002,2024_Jan_02_1336,MFTM_A_new1021,2021.2.3,60.094528685834845,
,,,,,,,,stim/Instruction_adaptive.png,conditions/adaptive.xlsx,test,0.6,0.6,0.6,-0.6,-0.6,right,R,,,,,0,1,1,1,0,45,45,4,,,,,,,,,,,,,,,,,,,,,,,,,,,,,,,,,,,,,,,,,,,,288.27687319996767,None,left,0,2.2672405000193976,288.7774821000057,290.16222150000976,288.7774821000057,289.6619595999946,288.7774821000057,289.6619595999946,288.7774821000057,289.6619595999946,288.7774821000057,289.6619595999946,288.7774821000057,289.6619595999946,289.62821629998507,290.1287434999831,289.62821629998507,290.1287434999831,289.62821629998507,290.1287434999831,289.62821629998507,290.1287434999831,289.62821629998507,290.1287434999831,289.62821629998507,290.1287434999831,289.62821629998507,290.1287434999831,289.62821629998507,290.1287434999831,288.7774821000057,None,290.1287434999831,291.74859759997344,0.8700000000000006,291.7640868999879,None,292.51612709998153,None,,,,,,,[1.61456522],2.780000000000002,0.6956521739130435,11009,002,2024_Jan_02_1336,MFTM_A_new1021,2021.2.3,60.094528685834845,
,,,,,,,,stim/Instruction_adaptive.png,conditions/adaptive.xlsx,test,0.6,0.6,0.6,-0.6,-0.6,right,R,,,,,0,1,1,1,0,46,46,0,,,,,,,,,,,,,,,,,,,,,,,,,,,,,,,,,,,,,,,,,,,,293.01709550002124,None,right,1,1.5679126000031829,293.5171439999831,294.9867530000047,293.5171439999831,294.4853353999788,293.5171439999831,294.4853353999788,293.5171439999831,294.4853353999788,293.5171439999831,294.4853353999788,293.5171439999831,294.4853353999788,294.47022299998207,294.9701079999795,294.47022299998207,294.9701079999795,294.47022299998207,294.9701079999795,294.47022299998207,294.9701079999795,294.47022299998207,294.9701079999795,294.47022299998207,294.9701079999795,294.47022299998207,294.9701079999795,294.47022299998207,294.9701079999795,293.5171439999831,None,294.95393959997455,296.50549989996944,0.9600000000000006,296.52099270001054,None,297.2732444999856,None,,,,,,,[[1.54]],2.830000000000002,0.7021276595744681,11009,002,2024_Jan_02_1336,MFTM_A_new1021,2021.2.3,60.094528685834845,
,,,,,,,,stim/Instruction_adaptive.png,conditions/adaptive.xlsx,test,0.6,0.6,0.6,-0.6,-0.6,right,R,,,,,0,1,1,1,0,47,47,62,,,,,,,,,,,,,,,,,,,,,,,,,,,,,,,,,,,,,,,,,,,,297.77459159999853,None,right,1,1.8505725000286475,298.2747074000072,299.710266900016,298.2747074000072,299.2096818999853,298.2747074000072,299.2096818999853,298.2747074000072,299.2096818999853,298.2747074000072,299.2096818999853,298.2747074000072,299.2096818999853,299.19257740001194,299.69303189998027,299.19257740001194,299.69303189998027,299.19257740001194,299.69303189998027,299.19257740001194,299.69303189998027,299.19257740001194,299.69303189998027,299.19257740001194,299.69303189998027,299.19257740001194,299.69303189998027,299.19257740001194,299.69303189998027,298.2747074000072,None,299.69303189998027,301.2627008999698,0.9300000000000006,301.2786567999865,None,302.0304867000086,None,,,,,,,[[1.57]],2.880000000000002,0.7083333333333334,11009,002,2024_Jan_02_1336,MFTM_A_new1021,2021.2.3,60.094528685834845,
,,,,,,,,stim/Instruction_adaptive.png,conditions/adaptive.xlsx,test,-0.6,-0.6,-0.6,0.6,0.6,left,L,,,,,0,1,1,1,0,48,48,21,,,,,,,,,,,,,,,,,,,,,,,,,,,,,,,,,,,,,,,,,,,,302.53183719998924,None,left,1,1.5893092000042088,303.0316817999701,304.4336261000135,303.0316817999701,303.93268859997625,303.0316817999701,303.93268859997625,303.0316817999701,303.93268859997625,303.0316817999701,303.93268859997625,303.0316817999701,303.93268859997625,303.8995477000135,304.4003165999893,303.8995477000135,304.4003165999893,303.8995477000135,304.4003165999893,303.8995477000135,304.4003165999893,303.8995477000135,304.4003165999893,303.8995477000135,304.4003165999893,303.8995477000135,304.4003165999893,303.8995477000135,304.4003165999893,303.0316817999701,None,304.4003165999893,306.0195060999831,0.8900000000000006,306.03618689998984,None,306.7868945999653,None,,,,,,,[[1.61]],2.920000000000002,0.7142857142857143,11009,002,2024_Jan_02_1336,MFTM_A_new1021,2021.2.3,60.094528685834845,
,,,,,,,,stim/Instruction_adaptive.png,conditions/adaptive.xlsx,test,-0.6,-0.6,-0.6,0.6,0.6,left,L,,,,,0,1,1,1,0,49,49,25,,,,,,,,,,,,,,,,,,,,,,,,,,,,,,,,,,,,,,,,,,,,307.2882352999877,None,left,1,1.0563808000297286,307.7883643999812,309.1737339000101,307.7883643999812,308.67303629999515,307.7883643999812,308.67303629999515,307.7883643999812,308.67303629999515,307.7883643999812,308.67303629999515,307.7883643999812,308.67303629999515,308.63953330001095,309.1402616999694,308.63953330001095,309.1402616999694,308.63953330001095,309.1402616999694,308.63953330001095,309.1402616999694,308.63953330001095,309.1402616999694,308.63953330001095,309.1402616999694,308.63953330001095,309.1402616999694,308.63953330001095,309.1402616999694,307.7883643999812,None,309.1402616999694,310.75933580001583,0.8700000000000006,310.77610740001546,None,311.5278949000058,None,,,,,,,[1.6124],2.960000000000002,0.72,11009,002,2024_Jan_02_1336,MFTM_A_new1021,2021.2.3,60.094528685834845,
,,,,,,,,stim/Instruction_adaptive.png,conditions/adaptive.xlsx,test,0.6,0.6,0.6,-0.6,-0.6,right,R,,,,,0,1,1,1,0,50,50,84,,,,,,,,,,,,,,,,,,,,,,,,,,,,,,,,,,,,,,,,,,,,312.0283161000116,None,right,1,1.6436511999927461,312.5290936999954,313.88165589998243,312.5290936999954,313.38094860001,312.5290936999954,313.38094860001,312.5290936999954,313.38094860001,312.5290936999954,313.38094860001,312.5290936999954,313.38094860001,313.36311580002075,313.86449399997946,313.36311580002075,313.86449399997946,313.36311580002075,313.86449399997946,313.36311580002075,313.86449399997946,313.36311580002075,313.86449399997946,313.36311580002075,313.86449399997946,313.36311580002075,313.86449399997946,313.36311580002075,313.86449399997946,312.5290936999954,None,313.86449399997946,315.4834977000137,0.8500000000000005,315.4997676999774,None,316.2509235999896,None,,,,,,,[1.61313725],3.000000000000002,0.7254901960784313,11009,002,2024_Jan_02_1336,MFTM_A_new1021,2021.2.3,60.094528685834845,
,,,,,,,,stim/Instruction_adaptive.png,conditions/adaptive.xlsx,test,-0.6,-0.6,-0.6,0.6,0.6,left,L,,,,,0,1,1,1,0,51,51,3,,,,,,,,,,,,,,,,,,,,,,,,,,,,,,,,,,,,,,,,,,,,316.7522003999911,None,left,1,2.1286607999936678,317.252370000002,318.5717591000139,317.252370000002,318.08703769999556,317.252370000002,318.08703769999556,317.252370000002,318.08703769999556,317.252370000002,318.08703769999556,317.252370000002,318.08703769999556,318.05463279999094,318.5551400000113,318.05463279999094,318.5551400000113,318.05463279999094,318.5551400000113,318.05463279999094,318.5551400000113,318.05463279999094,318.5551400000113,318.05463279999094,318.5551400000113,318.05463279999094,318.5551400000113,318.05463279999094,318.5551400000113,317.252370000002,None,318.5551400000113,320.17416819999926,0.8200000000000005,320.1899873999646,None,320.9419088999857,None,,,,,,,[1.61442308],3.0400000000000023,0.7307692307692307,11009,002,2024_Jan_02_1336,MFTM_A_new1021,2021.2.3,60.094528685834845,
,,,,,,,,stim/Instruction_adaptive.png,conditions/adaptive.xlsx,test,0.6,0.6,0.6,-0.6,-0.6,right,R,,,,,0,1,1,1,0,52,52,92,,,,,,,,,,,,,,,,,,,,,,,,,,,,,,,,,,,,,,,,,,,,321.443231799989,None,left,0,1.6618675999925472,321.9428480999777,323.2457878999994,321.9428480999777,322.7436938000028,321.9428480999777,322.7436938000028,321.9428480999777,322.7436938000028,321.9428480999777,322.7436938000028,321.9428480999777,322.7436938000028,322.7278602999868,323.22863680002047,322.7278602999868,323.22863680002047,322.7278602999868,323.22863680002047,322.7278602999868,323.22863680002047,322.7278602999868,323.22863680002047,322.7278602999868,323.22863680002047,322.7278602999868,323.22863680002047,322.7278602999868,323.22863680002047,321.9428480999777,None,323.22863680002047,324.8475392999826,0.8000000000000005,324.86361000000034,None,325.6160716000013,None,,,,,,,[1.61603774],2.9300000000000024,0.7169811320754716,11009,002,2024_Jan_02_1336,MFTM_A_new1021,2021.2.3,60.094528685834845,
,,,,,,,,stim/Instruction_adaptive.png,conditions/adaptive.xlsx,test,0.6,0.6,0.6,-0.6,-0.6,right,R,,,,,0,1,1,1,0,53,53,64,,,,,,,,,,,,,,,,,,,,,,,,,,,,,,,,,,,,,,,,,,,,326.1161432999652,None,right,1,1.6357684000395238,326.61686399998143,327.98537429998396,326.61686399998143,327.48525319999317,326.61686399998143,327.48525319999317,326.61686399998143,327.48525319999317,326.61686399998143,327.48525319999317,326.61686399998143,327.48525319999317,327.46861430001445,327.96888359996956,327.46861430001445,327.96888359996956,327.46861430001445,327.96888359996956,327.46861430001445,327.96888359996956,327.46861430001445,327.96888359996956,327.46861430001445,327.96888359996956,327.46861430001445,327.96888359996956,327.46861430001445,327.96888359996956,326.61686399998143,None,327.96888359996956,329.58803230000194,0.8600000000000005,329.6039691999904,None,330.35608050000155,None,,,,,,,[1.61648148],2.9700000000000024,0.7222222222222222,11009,002,2024_Jan_02_1336,MFTM_A_new1021,2021.2.3,60.094528685834845,
,,,,,,,,stim/Instruction_adaptive.png,conditions/adaptive.xlsx,test,0.6,0.6,0.6,-0.6,-0.6,right,R,,,,,0,1,1,1,0,54,54,8,,,,,,,,,,,,,,,,,,,,,,,,,,,,,,,,,,,,,,,,,,,,330.8565619000001,None,right,1,1.1845358000136912,331.35675889998674,332.7090564999962,331.35675889998674,332.2079310999834,331.35675889998674,332.2079310999834,331.35675889998674,332.2079310999834,331.35675889998674,332.2079310999834,331.35675889998674,332.2079310999834,332.1746166999801,332.67545949999476,332.1746166999801,332.67545949999476,332.1746166999801,332.67545949999476,332.1746166999801,332.67545949999476,332.1746166999801,332.67545949999476,332.1746166999801,332.67545949999476,332.1746166999801,332.67545949999476,332.1746166999801,332.67545949999476,331.35675889998674,None,332.67545949999476,334.29565629997524,0.8400000000000005,334.32829899998615,None,335.0795032000169,None,,,,,,,[1.61727273],3.0100000000000025,0.7272727272727273,11009,002,2024_Jan_02_1336,MFTM_A_new1021,2021.2.3,60.094528685834845,
,,,,,,,,stim/Instruction_adaptive.png,conditions/adaptive.xlsx,test,-0.6,-0.6,-0.6,0.6,0.6,left,L,,,,,0,1,1,1,0,55,55,67,,,,,,,,,,,,,,,,,,,,,,,,,,,,,,,,,,,,,,,,,,,,335.5800565999816,None,left,1,1.8121951000066474,336.0810421999777,337.40010869997786,336.0810421999777,336.9157072000089,336.0810421999777,336.9157072000089,336.0810421999777,336.9157072000089,336.0810421999777,336.9157072000089,336.0810421999777,336.9157072000089,336.88157179998234,337.38336320000235,336.88157179998234,337.38336320000235,336.88157179998234,337.38336320000235,336.88157179998234,337.38336320000235,336.88157179998234,337.38336320000235,336.88157179998234,337.38336320000235,336.88157179998234,337.38336320000235,336.88157179998234,337.38336320000235,336.0810421999777,None,337.38336320000235,339.0020627999911,0.8200000000000005,339.01814820000436,None,339.76882090000436,None,,,,,,,[1.61839286],3.0400000000000023,0.7321428571428571,11009,002,2024_Jan_02_1336,MFTM_A_new1021,2021.2.3,60.094528685834845,
,,,,,,,,stim/Instruction_adaptive.png,conditions/adaptive.xlsx,test,-0.6,-0.6,-0.6,0.6,0.6,left,L,,,,,0,1,1,1,0,56,56,71,,,,,,,,,,,,,,,,,,,,,,,,,,,,,,,,,,,,,,,,,,,,340.27041260001715,None,right,0,2.210037700016983,340.77066119998926,342.073445099988,340.77066119998926,341.5724115999765,340.77066119998926,341.5724115999765,340.77066119998926,341.5724115999765,340.77066119998926,341.5724115999765,340.77066119998926,341.5724115999765,341.5559624999878,342.05581649998203,341.5559624999878,342.05581649998203,341.5559624999878,342.05581649998203,341.5559624999878,342.05581649998203,341.5559624999878,342.05581649998203,341.5559624999878,342.05581649998203,341.5559624999878,342.05581649998203,341.5559624999878,342.05581649998203,340.77066119998926,None,342.05581649998203,343.6755081000156,0.8000000000000005,343.691563099972,None,344.44330390001414,None,,,,,,,[1.61982456],2.940000000000002,0.7192982456140351,11009,002,2024_Jan_02_1336,MFTM_A_new1021,2021.2.3,60.094528685834845,
,,,,,,,,stim/Instruction_adaptive.png,conditions/adaptive.xlsx,test,-0.6,-0.6,-0.6,0.6,0.6,left,L,,,,,0,1,1,1,0,57,57,55,,,,,,,,,,,,,,,,,,,,,,,,,,,,,,,,,,,,,,,,,,,,344.9435412000166,None,left,1,1.8086531000444666,345.4441424999968,346.81349229998887,345.4441424999968,346.312591599999,345.4441424999968,346.312591599999,345.4441424999968,346.312591599999,345.4441424999968,346.312591599999,345.4441424999968,346.312591599999,346.29555199999595,346.7962371999747,346.29555199999595,346.7962371999747,346.29555199999595,346.7962371999747,346.29555199999595,346.7962371999747,346.29555199999595,346.7962371999747,346.29555199999595,346.7962371999747,346.29555199999595,346.7962371999747,346.29555199999595,346.7962371999747,345.4441424999968,None,346.7801294999663,348.4151615999872,0.8600000000000005,348.43207569996594,None,349.1838090000092,None,,,,,,,[1.62017241],2.9700000000000024,0.7241379310344828,11009,002,2024_Jan_02_1336,MFTM_A_new1021,2021.2.3,60.094528685834845,
,,,,,,,,stim/Instruction_adaptive.png,conditions/adaptive.xlsx,test,-0.6,-0.6,-0.6,0.6,0.6,left,L,,,,,0,1,1,1,0,58,58,29,,,,,,,,,,,,,,,,,,,,,,,,,,,,,,,,,,,,,,,,,,,,349.68437339999946,None,right,0,1.7008142999839038,350.1842873999849,351.53725779999513,350.1842873999849,351.0364124000189,350.1842873999849,351.0364124000189,350.1842873999849,351.0364124000189,350.1842873999849,351.0364124000189,350.1842873999849,351.0364124000189,351.00248989998363,351.5039517999976,351.00248989998363,351.5039517999976,351.00248989998363,351.5039517999976,351.00248989998363,351.5039517999976,351.00248989998363,351.5039517999976,351.00248989998363,351.5039517999976,351.00248989998363,351.5039517999976,351.00248989998363,351.5039517999976,350.1842873999849,None,351.5039517999976,353.13883730000816,0.8400000000000005,353.15539969998645,None,353.90787860000273,None,,,,,,,[1.62084746],2.870000000000002,0.711864406779661,11009,002,2024_Jan_02_1336,MFTM_A_new1021,2021.2.3,60.094528685834845,
,,,,,,,,stim/Instruction_adaptive.png,conditions/adaptive.xlsx,test,0.6,0.6,0.6,-0.6,-0.6,right,R,,,,,0,1,1,1,0,59,59,52,,,,,,,,,,,,,,,,,,,,,,,,,,,,,,,,,,,,,,,,,,,,354.4080726999673,None,right,1,1.0716323999804445,354.9090444999747,356.31022899999516,354.9090444999747,355.80956049996894,354.9090444999747,355.80956049996894,354.9090444999747,355.80956049996894,354.9090444999747,355.80956049996894,354.9090444999747,355.80956049996894,355.7935260999948,356.2947249999852,355.7935260999948,356.2947249999852,355.7935260999948,356.2947249999852,355.7935260999948,356.2947249999852,355.7935260999948,356.2947249999852,355.7935260999948,356.2947249999852,355.7935260999948,356.2947249999852,355.7935260999948,356.2947249999852,354.9090444999747,None,356.2947249999852,357.89581670000916,0.9000000000000006,357.9125929999864,None,358.6638065999723,None,,,,,,,[[1.6]],2.900000000000002,0.7166666666666667,11009,002,2024_Jan_02_1336,MFTM_A_new1021,2021.2.3,60.094528685834845,
,,,,,,,,stim/Instruction_adaptive.png,conditions/adaptive.xlsx,test,-0.6,-0.6,-0.6,0.6,0.6,left,L,,,,,0,1,1,1,0,60,60,69,,,,,,,,,,,,,,,,,,,,,,,,,,,,,,,,,,,,,,,,,,,,359.1644490999752,None,left,1,1.4265886000357568,359.66625559999375,361.0513615999953,359.66625559999375,360.54986600001575,359.66625559999375,360.54986600001575,359.66625559999375,360.54986600001575,359.66625559999375,360.54986600001575,359.66625559999375,360.54986600001575,360.5338376999716,361.034746899968,360.5338376999716,361.034746899968,360.5338376999716,361.034746899968,360.5338376999716,361.034746899968,360.5338376999716,361.034746899968,360.5338376999716,361.034746899968,360.5338376999716,361.034746899968,360.5338376999716,361.034746899968,359.66625559999375,None,361.017912100011,362.6371308999951,0.8800000000000006,362.6703132999828,None,363.4211900999653,None,,,,,,,[[1.62]],2.940000000000002,0.7213114754098361,11009,002,2024_Jan_02_1336,MFTM_A_new1021,2021.2.3,60.094528685834845,
,,,,,,,,stim/Instruction_adaptive.png,conditions/adaptive.xlsx,test,0.6,0.6,0.6,-0.6,-0.6,right,R,,,,,0,1,1,1,0,61,61,14,,,,,,,,,,,,,,,,,,,,,,,,,,,,,,,,,,,,,,,,,,,,363.92164740001317,None,right,1,1.3192952999961562,364.4222244999837,365.79166589997476,364.4222244999837,365.2901149999816,364.4222244999837,365.2901149999816,364.4222244999837,365.2901149999816,364.4222244999837,365.2901149999816,364.4222244999837,365.2901149999816,365.27341019996675,365.7747711999691,365.27341019996675,365.7747711999691,365.27341019996675,365.7747711999691,365.27341019996675,365.7747711999691,365.27341019996675,365.7747711999691,365.27341019996675,365.7747711999691,365.27341019996675,365.7747711999691,365.27341019996675,365.7747711999691,364.4222244999837,None,365.7581301999744,367.3936135999975,0.8600000000000005,367.410021699965,None,368.16207760002,None,,,,,,,[1.62080645],2.9700000000000024,0.7258064516129032,11009,002,2024_Jan_02_1336,MFTM_A_new1021,2021.2.3,60.094528685834845,
,,,,,,,,stim/Instruction_adaptive.png,conditions/adaptive.xlsx,test,0.6,0.6,0.6,-0.6,-0.6,right,R,,,,,0,1,1,1,0,62,62,88,,,,,,,,,,,,,,,,,,,,,,,,,,,,,,,,,,,,,,,,,,,,368.6625678999699,None,right,1,1.0581764000235125,369.16260699997656,370.515373000002,369.16260699997656,370.01457210001536,369.16260699997656,370.01457210001536,369.16260699997656,370.01457210001536,369.16260699997656,370.01457210001536,369.16260699997656,370.01457210001536,369.98063210002147,370.4820102999802,369.98063210002147,370.4820102999802,369.98063210002147,370.4820102999802,369.98063210002147,370.4820102999802,369.98063210002147,370.4820102999802,369.98063210002147,370.4820102999802,369.98063210002147,370.4820102999802,369.98063210002147,370.4820102999802,369.16260699997656,None,370.4820102999802,372.1175354999723,0.8400000000000005,372.133626899973,None,372.8849715999677,None,,,,,,,[1.62142857],3.0100000000000025,0.7301587301587301,11009,002,2024_Jan_02_1336,MFTM_A_new1021,2021.2.3,60.094528685834845,
,,,,,,,,stim/Instruction_adaptive.png,conditions/adaptive.xlsx,test,-0.6,-0.6,-0.6,0.6,0.6,left,L,,,,,0,1,1,1,0,63,63,41,,,,,,,,,,,,,,,,,,,,,,,,,,,,,,,,,,,,,,,,,,,,373.38570799998706,None,right,0,1.4226245999452658,373.88633209996624,375.2057549000019,373.88633209996624,374.7210779999732,373.88633209996624,374.7210779999732,373.88633209996624,374.7210779999732,373.88633209996624,374.7210779999732,373.88633209996624,374.7210779999732,374.68837819999317,375.18954200000735,374.68837819999317,375.18954200000735,374.68837819999317,375.18954200000735,374.68837819999317,375.18954200000735,374.68837819999317,375.18954200000735,374.68837819999317,375.18954200000735,374.68837819999317,375.18954200000735,374.68837819999317,375.18954200000735,373.88633209996624,None,375.18954200000735,376.82382409996353,0.8200000000000005,376.84056959999725,None,377.5917807999649,None,,,,,,,[1.62234375],2.910000000000002,0.71875,11009,002,2024_Jan_02_1336,MFTM_A_new1021,2021.2.3,60.094528685834845,
,,,,,,,,stim/Instruction_adaptive.png,conditions/adaptive.xlsx,test,0.6,0.6,0.6,-0.6,-0.6,right,R,,,,,0,1,1,1,0,64,64,82,,,,,,,,,,,,,,,,,,,,,,,,,,,,,,,,,,,,,,,,,,,,378.09253179997904,None,right,1,1.3319288000348024,378.5933869999717,379.9787256999989,378.5933869999717,379.47793260001345,378.5933869999717,379.47793260001345,378.5933869999717,379.47793260001345,378.5933869999717,379.47793260001345,378.5933869999717,379.47793260001345,379.46127349999733,379.9625910000177,379.46127349999733,379.9625910000177,379.46127349999733,379.9625910000177,379.46127349999733,379.9625910000177,379.46127349999733,379.9625910000177,379.46127349999733,379.9625910000177,379.46127349999733,379.9625910000177,379.46127349999733,379.9625910000177,378.5933869999717,None,379.9625910000177,381.58230509998975,0.8800000000000006,381.5971711999737,None,382.3490101000061,None,,,,,,,[[1.62]],2.940000000000002,0.7230769230769231,11009,002,2024_Jan_02_1336,MFTM_A_new1021,2021.2.3,60.094528685834845,
,,,,,,,,stim/Instruction_adaptive.png,conditions/adaptive.xlsx,test,-0.6,-0.6,-0.6,0.6,0.6,left,L,,,,,0,1,1,1,0,65,65,89,,,,,,,,,,,,,,,,,,,,,,,,,,,,,,,,,,,,,,,,,,,,382.84951089997776,None,right,0,2.182818600034807,383.350425600016,384.7190713000018,383.350425600016,384.21833379997406,383.350425600016,384.21833379997406,383.350425600016,384.21833379997406,383.350425600016,384.21833379997406,383.350425600016,384.21833379997406,384.2014554999769,384.7035792999668,384.2014554999769,384.7035792999668,384.2014554999769,384.7035792999668,384.2014554999769,384.7035792999668,384.2014554999769,384.7035792999668,384.2014554999769,384.7035792999668,384.2014554999769,384.7035792999668,384.2014554999769,384.7035792999668,383.350425600016,None,384.7035792999668,None,0.8600000000000005,386.3374341999879,None,387.0892623999971,None,,,,,,,[1.62257576],2.8500000000000023,0.7121212121212122,11009,002,2024_Jan_02_1336,MFTM_A_new1021,2021.2.3,60.094528685834845,
,,,,,,,,stim/Instruction_adaptive.png,conditions/adaptive.xlsx,test,0.6,0.6,0.6,-0.6,-0.6,right,R,,,,,0,1,1,1,0,66,66,42,,,,,,,,,,,,,,,,,,,,,,,,,,,,,,,,,,,,,,,,,,,,387.5899639999843,None,right,1,1.3776094999630004,388.09136339998804,389.50943560001906,388.09136339998804,389.0086644999683,388.09136339998804,389.0086644999683,388.09136339998804,389.0086644999683,388.09136339998804,389.0086644999683,388.09136339998804,389.0086644999683,388.97539649996907,389.4761177999899,388.97539649996907,389.4761177999899,388.97539649996907,389.4761177999899,388.97539649996907,389.4761177999899,388.97539649996907,389.4761177999899,388.97539649996907,389.4761177999899,388.97539649996907,389.4761177999899,388.97539649996907,389.4761177999899,388.09136339998804,None,389.4761177999899,391.0792199000134,0.9100000000000006,391.09497779997764,None,391.8469011000125,None,,,,,,,[[1.59]],2.880000000000002,0.7164179104477612,11009,002,2024_Jan_02_1336,MFTM_A_new1021,2021.2.3,60.094528685834845,
,,,,,,,,stim/Instruction_adaptive.png,conditions/adaptive.xlsx,test,-0.6,-0.6,-0.6,0.6,0.6,left,L,,,,,0,1,1,1,0,67,67,79,,,,,,,,,,,,,,,,,,,,,,,,,,,,,,,,,,,,,,,,,,,,392.3481827999931,None,left,1,2.228841299947817,392.84801449999213,394.2508884000126,392.84801449999213,393.7489256999688,392.84801449999213,393.7489256999688,392.84801449999213,393.7489256999688,392.84801449999213,393.7489256999688,392.84801449999213,393.7489256999688,393.7157375999959,394.2171914000064,393.7157375999959,394.2171914000064,393.7157375999959,394.2171914000064,393.7157375999959,394.2171914000064,393.7157375999959,394.2171914000064,393.7157375999959,394.2171914000064,393.7157375999959,394.2171914000064,393.7157375999959,394.2171914000064,392.84801449999213,None,394.2171914000064,395.8363692999701,0.8900000000000006,395.85224019997986,None,396.60305939998943,None,,,,,,,[[1.61]],2.910000000000002,0.7205882352941176,11009,002,2024_Jan_02_1336,MFTM_A_new1021,2021.2.3,60.094528685834845,
,,,,,,,,stim/Instruction_adaptive.png,conditions/adaptive.xlsx,test,0.6,0.6,0.6,-0.6,-0.6,right,R,,,,,0,1,1,1,0,68,68,26,,,,,,,,,,,,,,,,,,,,,,,,,,,,,,,,,,,,,,,,,,,,397.10491310001817,None,right,1,1.56802519998746,397.6049453999731,398.99087149999104,397.6049453999731,398.48944119998487,397.6049453999731,398.48944119998487,397.6049453999731,398.48944119998487,397.6049453999731,398.48944119998487,397.6049453999731,398.48944119998487,398.4737689999747,398.9733008000185,398.4737689999747,398.9733008000185,398.4737689999747,398.9733008000185,398.4737689999747,398.9733008000185,398.4737689999747,398.9733008000185,398.4737689999747,398.9733008000185,398.4737689999747,398.9733008000185,398.4737689999747,398.9733008000185,397.6049453999731,None,398.9733008000185,400.59338819998084,0.8800000000000006,400.609287499974,None,401.360199799994,None,,,,,,,[[1.62]],2.940000000000002,0.7246376811594203,11009,002,2024_Jan_02_1336,MFTM_A_new1021,2021.2.3,60.094528685834845,
,,,,,,,,stim/Instruction_adaptive.png,conditions/adaptive.xlsx,test,0.6,0.6,0.6,-0.6,-0.6,right,R,,,,,0,1,1,1,0,69,69,16,,,,,,,,,,,,,,,,,,,,,,,,,,,,,,,,,,,,,,,,,,,,401.86172619997524,None,right,1,1.083486199961044,402.36184520000825,403.7306045999867,402.36184520000825,403.23061689996393,402.36184520000825,403.23061689996393,402.36184520000825,403.23061689996393,402.36184520000825,403.23061689996393,402.36184520000825,403.23061689996393,403.19637700001476,403.6978292000131,403.19637700001476,403.6978292000131,403.19637700001476,403.6978292000131,403.19637700001476,403.6978292000131,403.19637700001476,403.6978292000131,403.19637700001476,403.6978292000131,403.19637700001476,403.6978292000131,403.19637700001476,403.6978292000131,402.36184520000825,None,403.6978292000131,405.3328987999703,0.8600000000000005,405.3503089000005,None,406.1007259999751,None,,,,,,,[1.62214286],2.9700000000000024,0.7285714285714285,11009,002,2024_Jan_02_1336,MFTM_A_new1021,2021.2.3,60.094528685834845,
,,,,,,,,stim/Instruction_adaptive.png,conditions/adaptive.xlsx,test,-0.6,-0.6,-0.6,0.6,0.6,left,L,,,,,0,1,1,1,0,70,70,95,,,,,,,,,,,,,,,,,,,,,,,,,,,,,,,,,,,,,,,,,,,,406.60161259997403,None,left,1,1.7106817999738269,407.10229919996345,408.4542604999733,407.10229919996345,407.95425910002086,407.10229919996345,407.95425910002086,407.10229919996345,407.95425910002086,407.10229919996345,407.95425910002086,407.10229919996345,407.95425910002086,407.92016699997475,408.42083189997356,407.92016699997475,408.42083189997356,407.92016699997475,408.42083189997356,407.92016699997475,408.42083189997356,407.92016699997475,408.42083189997356,407.92016699997475,408.42083189997356,407.92016699997475,408.42083189997356,407.92016699997475,408.42083189997356,407.10229919996345,None,408.42083189997356,410.0565783000202,0.8400000000000005,410.0738760000095,None,410.82499509997433,None,,,,,,,[1.62267606],3.000000000000002,0.7323943661971831,11009,002,2024_Jan_02_1336,MFTM_A_new1021,2021.2.3,60.094528685834845,
,,,,,,,,stim/Instruction_adaptive.png,conditions/adaptive.xlsx,test,-0.6,-0.6,-0.6,0.6,0.6,left,L,,,,,0,1,1,1,0,71,71,11,,,,,,,,,,,,,,,,,,,,,,,,,,,,,,,,,,,,,,,,,,,,411.3250914000091,None,right,0,1.5551445999881253,411.82587649999186,413.1622867999831,411.82587649999186,412.6611083999742,411.82587649999186,412.6611083999742,411.82587649999186,412.6611083999742,411.82587649999186,412.6611083999742,411.82587649999186,412.6611083999742,412.6271065999754,413.1276423999807,412.6271065999754,413.1276423999807,412.6271065999754,413.1276423999807,412.6271065999754,413.1276423999807,412.6271065999754,413.1276423999807,412.6271065999754,413.1276423999807,412.6271065999754,413.1276423999807,412.6271065999754,413.1276423999807,411.82587649999186,None,413.1276423999807,414.7645645000157,0.8200000000000005,414.78009519999614,None,415.5319581999793,None,,,,,,,[1.62347222],2.920000000000002,0.7222222222222222,11009,002,2024_Jan_02_1336,MFTM_A_new1021,2021.2.3,60.094528685834845,
,,,,,,,,stim/Instruction_adaptive.png,conditions/adaptive.xlsx,test,0.6,0.6,0.6,-0.6,-0.6,right,R,,,,,0,1,1,1,0,72,72,60,,,,,,,,,,,,,,,,,,,,,,,,,,,,,,,,,,,,,,,,,,,,416.03224779997254,None,right,1,1.6163588999770582,416.5329207999748,417.91808450000826,416.5329207999748,417.4174160999828,416.5329207999748,417.4174160999828,416.5329207999748,417.4174160999828,416.5329207999748,417.4174160999828,416.5329207999748,417.4174160999828,417.38396399997873,417.8846556000062,417.38396399997873,417.8846556000062,417.38396399997873,417.8846556000062,417.38396399997873,417.8846556000062,417.38396399997873,417.8846556000062,417.38396399997873,417.8846556000062,417.38396399997873,417.8846556000062,417.38396399997873,417.8846556000062,416.5329207999748,None,417.8846556000062,419.5214535999694,0.8700000000000006,419.537121500005,None,420.2885049000033,None,,,,,,,[1.62356164],2.950000000000002,0.726027397260274,11009,002,2024_Jan_02_1336,MFTM_A_new1021,2021.2.3,60.094528685834845,
,,,,,,,,stim/Instruction_adaptive.png,conditions/adaptive.xlsx,test,0.6,0.6,0.6,-0.6,-0.6,right,R,,,,,0,1,1,1,0,73,73,28,,,,,,,,,,,,,,,,,,,,,,,,,,,,,,,,,,,,,,,,,,,,420.7897706999793,None,right,1,1.426942299993243,421.2898821000126,422.64174829999683,421.2898821000126,422.1413697999669,421.2898821000126,422.1413697999669,421.2898821000126,422.1413697999669,421.2898821000126,422.1413697999669,421.2898821000126,422.1413697999669,422.124135399994,422.62525809998624,422.124135399994,422.62525809998624,422.124135399994,422.62525809998624,422.124135399994,422.62525809998624,422.124135399994,422.62525809998624,422.124135399994,422.62525809998624,422.124135399994,422.62525809998624,422.124135399994,422.62525809998624,421.2898821000126,None,422.62525809998624,424.2617292999639,0.8500000000000005,424.2783138999948,None,425.0293910999899,None,,,,,,,[1.62391892],2.980000000000002,0.7297297297297297,11009,002,2024_Jan_02_1336,MFTM_A_new1021,2021.2.3,60.094528685834845,
,,,,,,,,stim/Instruction_adaptive.png,conditions/adaptive.xlsx,test,-0.6,-0.6,-0.6,0.6,0.6,left,L,,,,,0,1,1,1,0,74,74,53,,,,,,,,,,,,,,,,,,,,,,,,,,,,,,,,,,,,,,,,,,,,425.52967089996673,None,left,1,1.7349676000303589,426.03020669997204,427.36550279997755,426.03020669997204,426.86495169997215,426.03020669997204,426.86495169997215,426.03020669997204,426.86495169997215,426.03020669997204,426.86495169997215,426.03020669997204,426.86495169997215,426.84799480001675,427.34970339998836,426.84799480001675,427.34970339998836,426.84799480001675,427.34970339998836,426.84799480001675,427.34970339998836,426.84799480001675,427.34970339998836,426.84799480001675,427.34970339998836,426.84799480001675,427.34970339998836,426.84799480001675,427.34970339998836,426.03020669997204,None,427.34970339998836,None,0.8300000000000005,428.9845733999973,None,429.7366088000126,None,,,,,,,[1.62453333],3.000000000000002,0.7333333333333333,11009,002,2024_Jan_02_1336,MFTM_A_new1021,2021.2.3,60.094528685834845,
,,,,,,,,stim/Instruction_adaptive.png,conditions/adaptive.xlsx,test,-0.6,-0.6,-0.6,0.6,0.6,left,L,,,,,0,1,1,1,0,75,75,63,,,,,,,,,,,,,,,,,,,,,,,,,,,,,,,,,,,,,,,,,,,,430.2370538999676,None,left,1,1.3152275999891572,430.73807049996685,432.05650180001976,430.73807049996685,431.57239639997715,430.73807049996685,431.57239639997715,430.73807049996685,431.57239639997715,430.73807049996685,431.57239639997715,430.73807049996685,431.57239639997715,431.53845559997717,432.04040459997486,431.53845559997717,432.04040459997486,431.53845559997717,432.04040459997486,431.53845559997717,432.04040459997486,431.53845559997717,432.04040459997486,431.53845559997717,432.04040459997486,431.53845559997717,432.04040459997486,431.53845559997717,432.04040459997486,430.73807049996685,None,432.04040459997486,433.67551410000306,0.8200000000000005,433.69156030000886,None,434.4432437000214,None,,,,,,,[1.62526316],3.030000000000002,0.7368421052631579,11009,002,2024_Jan_02_1336,MFTM_A_new1021,2021.2.3,60.094528685834845,
,,,,,,,,stim/Instruction_adaptive.png,conditions/adaptive.xlsx,test,-0.6,-0.6,-0.6,0.6,0.6,left,L,,,,,0,1,1,1,0,76,76,73,,,,,,,,,,,,,,,,,,,,,,,,,,,,,,,,,,,,,,,,,,,,434.94332429999486,None,left,1,1.5923413000418805,435.44458509999095,436.76275719999103,435.44458509999095,436.2631665999652,435.44458509999095,436.2631665999652,435.44458509999095,436.2631665999652,435.44458509999095,436.2631665999652,435.44458509999095,436.2631665999652,436.22846840001876,436.7294283999945,436.22846840001876,436.7294283999945,436.22846840001876,436.7294283999945,436.22846840001876,436.7294283999945,436.22846840001876,436.7294283999945,436.22846840001876,436.7294283999945,436.22846840001876,436.7294283999945,436.22846840001876,436.7294283999945,435.44458509999095,None,436.7294283999945,438.36521329998504,0.8100000000000005,438.38192179996986,None,439.13353190000635,None,,,,,,,[1.6261039],3.0500000000000025,0.7402597402597403,11009,002,2024_Jan_02_1336,MFTM_A_new1021,2021.2.3,60.094528685834845,
,,,,,,,,stim/Instruction_adaptive.png,conditions/adaptive.xlsx,test,-0.6,-0.6,-0.6,0.6,0.6,left,L,,,,,0,1,1,1,0,77,77,97,,,,,,,,,,,,,,,,,,,,,,,,,,,,,,,,,,,,,,,,,,,,439.63448840001365,None,left,1,1.3667681999504566,440.13474509998923,441.436506500002,440.13474509998923,440.9364569999743,440.13474509998923,440.9364569999743,440.13474509998923,440.9364569999743,440.13474509998923,440.9364569999743,440.13474509998923,440.9364569999743,440.9029572000145,441.40304920001654,440.9029572000145,441.40304920001654,440.9029572000145,441.40304920001654,440.9029572000145,441.40304920001654,440.9029572000145,441.40304920001654,440.9029572000145,441.40304920001654,440.9029572000145,441.40304920001654,440.9029572000145,441.40304920001654,440.13474509998923,None,441.40304920001654,443.0386980000185,0.7900000000000005,443.0555142000085,None,443.8077438999899,None,,,,,,,[1.62717949],3.0800000000000023,0.7435897435897436,11009,002,2024_Jan_02_1336,MFTM_A_new1021,2021.2.3,60.094528685834845,
,,,,,,,,stim/Instruction_adaptive.png,conditions/adaptive.xlsx,test,-0.6,-0.6,-0.6,0.6,0.6,left,L,,,,,0,1,1,1,0,78,78,15,,,,,,,,,,,,,,,,,,,,,,,,,,,,,,,,,,,,,,,,,,,,444.30796100001317,None,left,1,1.7554969000048004,444.80940470000496,446.09356000000844,444.80940470000496,445.59322799998336,444.80940470000496,445.59322799998336,444.80940470000496,445.59322799998336,444.80940470000496,445.59322799998336,444.80940470000496,445.59322799998336,445.57586460001767,446.0772538000019,445.57586460001767,446.0772538000019,445.57586460001767,446.0772538000019,445.57586460001767,446.0772538000019,445.57586460001767,446.0772538000019,445.57586460001767,446.0772538000019,445.57586460001767,446.0772538000019,445.57586460001767,446.0772538000019,444.80940470000496,None,446.0772538000019,447.7123990000109,0.7800000000000005,447.7291092000087,None,448.4808347999933,None,,,,,,,[1.62835443],3.1000000000000023,0.7468354430379747,11009,002,2024_Jan_02_1336,MFTM_A_new1021,2021.2.3,60.094528685834845,
,,,,,,,,stim/Instruction_adaptive.png,conditions/adaptive.xlsx,test,-0.6,-0.6,-0.6,0.6,0.6,left,L,,,,,0,1,1,1,0,79,79,51,,,,,,,,,,,,,,,,,,,,,,,,,,,,,,,,,,,,,,,,,,,,448.98165849997895,None,left,1,1.2823851000284776,449.4823805000051,450.76671749999514,449.4823805000051,450.26607040001545,449.4823805000051,450.26607040001545,449.4823805000051,450.26607040001545,449.4823805000051,450.26607040001545,449.4823805000051,450.26607040001545,450.2328070999938,450.7333528000163,450.2328070999938,450.7333528000163,450.2328070999938,450.7333528000163,450.2328070999938,450.7333528000163,450.2328070999938,450.7333528000163,450.2328070999938,450.7333528000163,450.2328070999938,450.7333528000163,450.2328070999938,450.7333528000163,449.4823805000051,None,450.7333528000163,452.3700582999736,0.7700000000000005,452.38615460001165,None,453.13815219997196,None,,,,,,,[1.629625],3.1300000000000026,0.75,11009,002,2024_Jan_02_1336,MFTM_A_new1021,2021.2.3,60.094528685834845,
,,,,,,,,stim/Instruction_adaptive.png,conditions/adaptive.xlsx,test,0.6,0.6,0.6,-0.6,-0.6,right,R,,,,,0,1,1,1,0,80,80,34,,,,,,,,,,,,,,,,,,,,,,,,,,,,,,,,,,,,,,,,,,,,453.63837369997054,None,right,1,1.641919500019867,454.1390795999905,455.39045800000895,454.1390795999905,454.88978299999144,454.1390795999905,454.88978299999144,454.1390795999905,454.88978299999144,454.1390795999905,454.88978299999144,454.1390795999905,454.88978299999144,454.8738659999799,455.37368780002,454.8738659999799,455.37368780002,454.8738659999799,455.37368780002,454.8738659999799,455.37368780002,454.8738659999799,455.37368780002,454.8738659999799,455.37368780002,454.8738659999799,455.37368780002,454.8738659999799,455.37368780002,454.1390795999905,None,455.37368780002,457.00988269998925,0.7500000000000004,457.026932400011,None,457.7773247999721,None,,,,,,,[1.63111111],3.150000000000002,0.7530864197530864,11009,002,2024_Jan_02_1336,MFTM_A_new1021,2021.2.3,60.094528685834845,
,,,,,,,,stim/Instruction_adaptive.png,conditions/adaptive.xlsx,test,-0.6,-0.6,-0.6,0.6,0.6,left,L,,,,,0,1,1,1,0,81,81,1,,,,,,,,,,,,,,,,,,,,,,,,,,,,,,,,,,,,,,,,,,,,458.2780268000206,None,left,1,1.3383486000238918,458.7785858999705,460.0306546000065,458.7785858999705,459.5304924999946,458.7785858999705,459.5304924999946,458.7785858999705,459.5304924999946,458.7785858999705,459.5304924999946,458.7785858999705,459.5304924999946,459.49714920000406,459.9975042999722,459.49714920000406,459.9975042999722,459.49714920000406,459.9975042999722,459.49714920000406,459.9975042999722,459.49714920000406,459.9975042999722,459.49714920000406,459.9975042999722,459.49714920000406,459.9975042999722,459.49714920000406,459.9975042999722,458.7785858999705,None,459.9975042999722,461.63375340000493,0.7400000000000004,461.64968929998577,None,462.4017639000085,None,,,,,,,[1.63268293],3.1700000000000026,0.7560975609756098,11009,002,2024_Jan_02_1336,MFTM_A_new1021,2021.2.3,60.094528685834845,
,,,,,,,,stim/Instruction_adaptive.png,conditions/adaptive.xlsx,test,-0.6,-0.6,-0.6,0.6,0.6,left,L,,,,,0,1,1,1,0,82,82,7,,,,,,,,,,,,,,,,,,,,,,,,,,,,,,,,,,,,,,,,,,,,462.9014919999754,None,left,1,1.5148270999779925,463.4023512999993,464.6373775000102,463.4023512999993,464.13680239999667,463.4023512999993,464.13680239999667,463.4023512999993,464.13680239999667,463.4023512999993,464.13680239999667,463.4023512999993,464.13680239999667,464.1200536999968,464.6209451999748,464.1200536999968,464.6209451999748,464.1200536999968,464.6209451999748,464.1200536999968,464.6209451999748,464.1200536999968,464.6209451999748,464.1200536999968,464.6209451999748,464.1200536999968,464.6209451999748,464.1200536999968,464.6209451999748,463.4023512999993,None,464.6209451999748,466.25739400001476,0.7300000000000004,466.274084899982,None,467.025226400001,None,,,,,,,[1.63433735],3.190000000000002,0.7590361445783133,11009,002,2024_Jan_02_1336,MFTM_A_new1021,2021.2.3,60.094528685834845,
,,,,,,,,stim/Instruction_adaptive.png,conditions/adaptive.xlsx,test,-0.6,-0.6,-0.6,0.6,0.6,left,L,,,,,0,1,1,1,0,83,83,47,,,,,,,,,,,,,,,,,,,,,,,,,,,,,,,,,,,,,,,,,,,,467.52504849998513,None,right,0,1.6835859999991953,468.0256853000028,469.24495189997833,468.0256853000028,468.7603329999838,468.0256853000028,468.7603329999838,468.0256853000028,468.7603329999838,468.0256853000028,468.7603329999838,468.0256853000028,468.7603329999838,468.72686609998345,469.22844689997146,468.72686609998345,469.22844689997146,468.72686609998345,469.22844689997146,468.72686609998345,469.22844689997146,468.72686609998345,469.22844689997146,468.72686609998345,469.22844689997146,468.72686609998345,469.22844689997146,468.72686609998345,469.22844689997146,468.0256853000028,None,469.22844689997146,470.8806286000181,0.7200000000000004,470.8971660999814,None,471.6487524000113,None,,,,,,,[1.63607143],3.1300000000000026,0.75,11009,002,2024_Jan_02_1336,MFTM_A_new1021,2021.2.3,60.094528685834845,
,,,,,,,,stim/Instruction_adaptive.png,conditions/adaptive.xlsx,test,0.6,0.6,0.6,-0.6,-0.6,right,R,,,,,0,1,1,1,0,84,84,46,,,,,,,,,,,,,,,,,,,,,,,,,,,,,,,,,,,,,,,,,,,,472.14855169999646,None,right,1,1.6037627999903634,472.6496075000032,473.9018177000107,472.6496075000032,473.4003675999702,472.6496075000032,473.4003675999702,472.6496075000032,473.4003675999702,472.6496075000032,473.4003675999702,472.6496075000032,473.4003675999702,473.38367939996533,473.88507289998233,473.38367939996533,473.88507289998233,473.38367939996533,473.88507289998233,473.38367939996533,473.88507289998233,473.38367939996533,473.88507289998233,473.38367939996533,473.88507289998233,473.38367939996533,473.88507289998233,473.38367939996533,473.88507289998233,472.6496075000032,None,473.88507289998233,475.52097870002035,0.7500000000000004,475.53701969998656,None,476.2884862999781,None,,,,,,,[1.63741176],3.150000000000002,0.7529411764705882,11009,002,2024_Jan_02_1336,MFTM_A_new1021,2021.2.3,60.094528685834845,
,,,,,,,,stim/Instruction_adaptive.png,conditions/adaptive.xlsx,test,-0.6,-0.6,-0.6,0.6,0.6,left,L,,,,,0,1,1,1,0,85,85,27,,,,,,,,,,,,,,,,,,,,,,,,,,,,,,,,,,,,,,,,,,,,476.78864659997635,None,right,0,1.6524743000045419,477.28945380001096,478.54196860000957,477.28945380001096,478.0407078000135,477.28945380001096,478.0407078000135,477.28945380001096,478.0407078000135,477.28945380001096,478.0407078000135,477.28945380001096,478.0407078000135,478.0073069999926,478.5080858999863,478.0073069999926,478.5080858999863,478.0073069999926,478.5080858999863,478.0073069999926,478.5080858999863,478.0073069999926,478.5080858999863,478.0073069999926,478.5080858999863,478.0073069999926,478.5080858999863,478.0073069999926,478.5080858999863,477.28945380001096,None,478.5080858999863,480.16094909998355,0.7400000000000004,480.1772103999974,None,480.9282444000128,None,,,,,,,[1.63883721],3.0900000000000025,0.7441860465116279,11009,002,2024_Jan_02_1336,MFTM_A_new1021,2021.2.3,60.094528685834845,
,,,,,,,,stim/Instruction_adaptive.png,conditions/adaptive.xlsx,test,0.6,0.6,0.6,-0.6,-0.6,right,R,,,,,0,1,1,1,0,86,86,24,,,,,,,,,,,,,,,,,,,,,,,,,,,,,,,,,,,,,,,,,,,,481.429060800001,None,left,0,1.4106322000152431,481.9302477000165,483.21540919999825,481.9302477000165,482.71490029996494,481.9302477000165,482.71490029996494,481.9302477000165,482.71490029996494,481.9302477000165,482.71490029996494,481.9302477000165,482.71490029996494,482.6816032999777,483.1817452000105,482.6816032999777,483.1817452000105,482.6816032999777,483.1817452000105,482.6816032999777,483.1817452000105,482.6816032999777,483.1817452000105,482.6816032999777,483.1817452000105,482.6816032999777,483.1817452000105,482.6816032999777,483.1817452000105,481.9302477000165,None,483.1817452000105,484.83498599997256,0.7700000000000005,484.8506194999791,None,485.60302599996794,None,,,,,,,[1.63988506],3.0200000000000022,0.735632183908046,11009,002,2024_Jan_02_1336,MFTM_A_new1021,2021.2.3,60.094528685834845,
,,,,,,,,stim/Instruction_adaptive.png,conditions/adaptive.xlsx,test,0.6,0.6,0.6,-0.6,-0.6,right,R,,,,,0,1,1,1,0,87,87,86,,,,,,,,,,,,,,,,,,,,,,,,,,,,,,,,,,,,,,,,,,,,486.10365699999966,None,right,1,1.8181848999811336,486.6033474999713,487.9218107999768,486.6033474999713,487.4212792000035,486.6033474999713,487.4212792000035,486.6033474999713,487.4212792000035,486.6033474999713,487.4212792000035,486.6033474999713,487.4212792000035,487.4045438999892,487.905237399973,487.4045438999892,487.905237399973,487.4045438999892,487.905237399973,487.4045438999892,487.905237399973,487.4045438999892,487.905237399973,487.4045438999892,487.905237399973,487.4045438999892,487.905237399973,487.4045438999892,487.905237399973,486.6033474999713,None,487.8885911999969,489.54152879997855,0.8100000000000005,489.55770509998547,None,490.3096236999845,None,,,,,,,[1.64045455],3.0400000000000023,0.7386363636363636,11009,002,2024_Jan_02_1336,MFTM_A_new1021,2021.2.3,60.094528685834845,
,,,,,,,,stim/Instruction_adaptive.png,conditions/adaptive.xlsx,test,0.6,0.6,0.6,-0.6,-0.6,right,R,,,,,0,1,1,1,0,88,88,58,,,,,,,,,,,,,,,,,,,,,,,,,,,,,,,,,,,,,,,,,,,,490.8095946999965,None,right,1,1.3190262000425719,491.3101710000192,492.61257559998194,491.3101710000192,492.11223400000017,491.3101710000192,492.11223400000017,491.3101710000192,492.11223400000017,491.3101710000192,492.11223400000017,491.3101710000192,492.11223400000017,492.09476690000156,492.59540160000324,492.09476690000156,492.59540160000324,492.09476690000156,492.59540160000324,492.09476690000156,492.59540160000324,492.09476690000156,492.59540160000324,492.09476690000156,492.59540160000324,492.09476690000156,492.59540160000324,492.09476690000156,492.59540160000324,491.3101710000192,None,492.59540160000324,494.2486779000028,0.8000000000000005,494.265302099986,None,495.01598319999175,None,,,,,,,[1.6411236],3.070000000000002,0.7415730337078652,11009,002,2024_Jan_02_1336,MFTM_A_new1021,2021.2.3,60.094528685834845,
,,,,,,,,stim/Instruction_adaptive.png,conditions/adaptive.xlsx,test,-0.6,-0.6,-0.6,0.6,0.6,left,L,,,,,0,1,1,1,0,89,89,83,,,,,,,,,,,,,,,,,,,,,,,,,,,,,,,,,,,,,,,,,,,,495.5170430999715,None,left,1,1.5880536999902688,496.01715269999113,497.30257150001125,496.01715269999113,496.80161779996706,496.01715269999113,496.80161779996706,496.01715269999113,496.80161779996706,496.01715269999113,496.80161779996706,496.01715269999113,496.80161779996706,496.78490359999705,497.2862839999725,496.78490359999705,497.2862839999725,496.78490359999705,497.2862839999725,496.78490359999705,497.2862839999725,496.78490359999705,497.2862839999725,496.78490359999705,497.2862839999725,496.78490359999705,497.2862839999725,496.78490359999705,497.2862839999725,496.01715269999113,None,497.2862839999725,None,0.7800000000000005,498.9382303999737,None,499.68941160000395,None,,,,,,,[1.642],3.0900000000000025,0.7444444444444445,11009,002,2024_Jan_02_1336,MFTM_A_new1021,2021.2.3,60.094528685834845,
,,,,,,,,stim/Instruction_adaptive.png,conditions/adaptive.xlsx,test,0.6,0.6,0.6,-0.6,-0.6,right,R,,,,,0,1,1,1,0,90,90,72,,,,,,,,,,,,,,,,,,,,,,,,,,,,,,,,,,,,,,,,,,,,500.19109460001346,None,right,1,1.5313511000131257,500.69087880000006,501.97673829999985,500.69087880000006,501.4763295999728,500.69087880000006,501.4763295999728,500.69087880000006,501.4763295999728,500.69087880000006,501.4763295999728,500.69087880000006,501.4763295999728,501.4420687999809,501.9427602000069,501.4420687999809,501.9427602000069,501.4420687999809,501.9427602000069,501.4420687999809,501.9427602000069,501.4420687999809,501.9427602000069,501.4420687999809,501.9427602000069,501.4420687999809,501.9427602000069,501.4420687999809,501.9427602000069,500.69087880000006,None,501.9427602000069,503.59574829996563,0.7700000000000005,503.61219269997673,None,504.36357109999517,None,,,,,,,[1.64296703],3.110000000000002,0.7472527472527473,11009,002,2024_Jan_02_1336,MFTM_A_new1021,2021.2.3,60.094528685834845,
,,,,,,,,stim/Instruction_adaptive.png,conditions/adaptive.xlsx,test,0.6,0.6,0.6,-0.6,-0.6,right,R,,,,,0,1,1,1,0,91,91,12,,,,,,,,,,,,,,,,,,,,,,,,,,,,,,,,,,,,,,,,,,,,504.86481170001207,None,left,0,2.056826899992302,505.3642791999737,506.6336665999843,505.3642791999737,506.133507999999,505.3642791999737,506.133507999999,505.3642791999737,506.133507999999,505.3642791999737,506.133507999999,505.3642791999737,506.133507999999,506.11682769999607,506.6170559999882,506.11682769999607,506.6170559999882,506.11682769999607,506.6170559999882,506.11682769999607,506.6170559999882,506.11682769999607,506.6170559999882,506.11682769999607,506.6170559999882,506.11682769999607,506.6170559999882,506.11682769999607,506.6170559999882,505.3642791999737,None,506.6001392999897,508.2529125000001,0.7600000000000005,508.26875779998954,None,509.02073079999536,None,,,,,,,[1.64402174],3.0500000000000025,0.7391304347826086,11009,002,2024_Jan_02_1336,MFTM_A_new1021,2021.2.3,60.094528685834845,
,,,,,,,,stim/Instruction_adaptive.png,conditions/adaptive.xlsx,test,-0.6,-0.6,-0.6,0.6,0.6,left,L,,,,,0,1,1,1,0,92,92,61,,,,,,,,,,,,,,,,,,,,,,,,,,,,,,,,,,,,,,,,,,,,509.5211203999934,None,right,0,1.7755767999915406,510.02170569996815,511.32403600000544,510.02170569996815,510.8233331000083,510.02170569996815,510.8233331000083,510.02170569996815,510.8233331000083,510.02170569996815,510.8233331000083,510.02170569996815,510.8233331000083,510.78924989997176,511.2911139000207,510.78924989997176,511.2911139000207,510.78924989997176,511.2911139000207,510.78924989997176,511.2911139000207,510.78924989997176,511.2911139000207,510.78924989997176,511.2911139000207,510.78924989997176,511.2911139000207,510.78924989997176,511.2911139000207,510.02170569996815,None,511.2911139000207,512.9424098000163,0.7900000000000005,512.9591890000156,None,513.7104090999928,None,,,,,,,[1.64473118],2.980000000000002,0.7311827956989247,11009,002,2024_Jan_02_1336,MFTM_A_new1021,2021.2.3,60.094528685834845,
