arrwidth1,arrwidth2,arrwidth3,arrwidth4,arrwidth5,keyb,type,orientation,instruction_image,block_filename,block_type,arrow11,arrow22,arrow33,arrow44,arrow55,keyb_3,orientation3,trials.thisRepN,trials.thisTrialN,trials.thisN,trials.thisIndex,trials_3.thisRepN,trials_3.thisTrialN,trials_3.thisN,trials_3.thisIndex,trials_2.thisRepN,trials_2.thisTrialN,trials_2.thisN,trials_2.thisIndex,welcome.started,welcome.stopped,key_resp.keys,key_resp.rt,key_resp.started,key_resp.stopped,instruction_example.started,instruction_example.stopped,key_resp_3.keys,key_resp_3.rt,key_resp_3.started,key_resp_3.stopped,instruction_task.started,instruction_task.stopped,key_resp_2.keys,key_resp_2.rt,key_resp_2.started,key_resp_2.stopped,text_2.started,text_2.stopped,A1.started,A1.stopped,A2.started,A2.stopped,A3.started,A3.stopped,A4.started,A4.stopped,A5.started,A5.stopped,key_resp_4.keys,key_resp_4.corr,key_resp_4.rt,key_resp_4.started,key_resp_4.stopped,fb.started,fb.stopped,instruction_block.started,instruction_block.stopped,key_resp_8.keys,key_resp_8.rt,key_resp_8.started,key_resp_8.stopped,text_8.started,text_8.stopped,key_resp_9.keys,key_resp_9.corr,key_resp_9.rt,text_5.started,text_5.stopped,A11_3.started,A11_3.stopped,A22_2.started,A22_2.stopped,A33_2.started,A33_2.stopped,A44_2.started,A44_2.stopped,A55_2.started,A55_2.stopped,M1_3.started,M1_3.stopped,M2_2.started,M2_2.stopped,M3_2.started,M3_2.stopped,M4_2.started,M4_2.stopped,M5_2.started,M5_2.stopped,M6_2.started,M6_2.stopped,M7_2.started,M7_2.stopped,M8_2.started,M8_2.stopped,key_resp_9.started,key_resp_9.stopped,fixation.started,fixation.stopped,ET,fb_3.started,fb_3.stopped,text_9.started,text_9.stopped,fb_4.started,fb_4.stopped,text_7.started,text_7.stopped,endtext.started,endtext.stopped,fixation_ITI,CCC,Acc,participant,session,date,expName,psychopyVersion,frameRate,
,,,,,,,,,,,,,,,,,,,,,,,,,,,,,,15.21570729999803,None,left,16.25219670002116,15.21570729999803,None,,,,,,,,,,,,,,,,,,,,,,,,,,,,,,,,,,,,,,,,,,,,,,,,,,,,,,,,,,,,,,,,,,,,,,,,,,,,,,,,,,,,,,,,,11011,001,2024_Jan_02_1003,MFTM_A_new1021,2021.2.3,59.95685503966175,
,,,,,,,,,,,,,,,,,,,,,,,,,,,,,,,,,,,,31.489737200026866,None,right,28.07528520002961,31.489737200026866,None,,,,,,,,,,,,,,,,,,,,,,,,,,,,,,,,,,,,,,,,,,,,,,,,,,,,,,,,,,,,,,,,,,,,,,,,,,,,,,,,,,,11011,001,2024_Jan_02_1003,MFTM_A_new1021,2021.2.3,59.95685503966175,
,,,,,,,,,,,,,,,,,,,,,,,,,,,,,,,,,,,,,,,,,,59.58124760002829,None,right,10.2065583000076,59.58124760002829,None,,,,,,,,,,,,,,,,,,,,,,,,,,,,,,,,,,,,,,,,,,,,,,,,,,,,,,,,,,,,,,,,,,,,,,,,,,,,,11011,001,2024_Jan_02_1003,MFTM_A_new1021,2021.2.3,59.95685503966175,
0.6,0.6,0.6,-0.6,-0.6,right,3:2,R,,,,,,,,,,,0,0,0,0,,,,,,,,,,,,,,,,,,,,,,,,,,,69.83076860004803,None,69.83076860004803,None,69.83076860004803,None,69.83076860004803,None,69.83076860004803,None,69.83076860004803,None,right,1,1.0047057999763638,69.83076860004803,None,70.88185970002087,None,,,,,,,,,,,,,,,,,,,,,,,,,,,,,,,,,,,,,,,,,,,,,,,,,,,,,,,,,,11011,001,2024_Jan_02_1003,MFTM_A_new1021,2021.2.3,59.95685503966175,
-0.6,-0.6,-0.6,0.6,0.6,left,3:2,L,,,,,,,,,,,0,1,1,1,,,,,,,,,,,,,,,,,,,,,,,,,,,71.63243040000089,None,71.63243040000089,None,71.63243040000089,None,71.63243040000089,None,71.63243040000089,None,71.63243040000089,None,left,1,2.3553066000458784,71.63243040000089,None,74.00262910005404,None,,,,,,,,,,,,,,,,,,,,,,,,,,,,,,,,,,,,,,,,,,,,,,,,,,,,,,,,,,11011,001,2024_Jan_02_1003,MFTM_A_new1021,2021.2.3,59.95685503966175,
0.6,0.6,0.6,-0.6,-0.6,right,3:2,R,,,,,,,,,,,1,0,2,0,,,,,,,,,,,,,,,,,,,,,,,,,,,74.75377180002397,None,74.75377180002397,None,74.75377180002397,None,74.75377180002397,None,74.75377180002397,None,74.75377180002397,None,right,1,2.5220700000063516,74.75377180002397,None,77.2910922000301,None,,,,,,,,,,,,,,,,,,,,,,,,,,,,,,,,,,,,,,,,,,,,,,,,,,,,,,,,,,11011,001,2024_Jan_02_1003,MFTM_A_new1021,2021.2.3,59.95685503966175,
-0.6,-0.6,-0.6,0.6,0.6,left,3:2,L,,,,,,,,,,,1,1,3,1,,,,,,,,,,,,,,,,,,,,,,,,,,,78.04287400003523,None,78.04287400003523,None,78.04287400003523,None,78.04287400003523,None,78.04287400003523,None,78.04287400003523,None,left,1,2.6967693000333384,78.04287400003523,None,80.76322670001537,None,,,,,,,,,,,,,,,,,,,,,,,,,,,,,,,,,,,,,,,,,,,,,,,,,,,,,,,,,,11011,001,2024_Jan_02_1003,MFTM_A_new1021,2021.2.3,59.95685503966175,
,,,,,,,,stim/Instruction_mask.png,conditions/adaptive.xlsx,practice,-0.6,-0.6,-0.6,0.6,0.6,left,L,,,,,0,0,0,0,0,0,0,29,,,,,,,,,,,,,,,,,,,,,,,,,,,,,,,,,,,,,,81.697547400021,None,right,84.63423930003773,81.697547400021,None,166.44015420001233,None,right,0,2.1769326999783516,166.87458260002313,None,166.87458260002313,169.87826240004506,166.87458260002313,169.87826240004506,166.87458260002313,169.87826240004506,166.87458260002313,169.87826240004506,166.87458260002313,169.87826240004506,169.861676600005,170.36358490004204,169.861676600005,170.36358490004204,169.861676600005,170.36358490004204,169.861676600005,170.36358490004204,169.861676600005,170.36358490004204,169.861676600005,170.36358490004204,169.861676600005,170.36358490004204,169.861676600005,170.36358490004204,166.87458260002313,None,170.36358490004204,170.36358490004204,3,170.3795815000194,None,171.13061770005152,None,,,,,,,,,,11011,001,2024_Jan_02_1003,MFTM_A_new1021,2021.2.3,59.95685503966175,
,,,,,,,,stim/Instruction_mask.png,conditions/adaptive.xlsx,practice,-0.6,-0.6,-0.6,0.6,0.6,left,L,,,,,0,0,0,0,0,1,1,73,,,,,,,,,,,,,,,,,,,,,,,,,,,,,,,,,,,,,,,,,,,,171.6306537000346,None,left,1,2.240224900015164,172.13135940005304,174.13524940004572,172.13135940005304,173.63364160002675,172.13135940005304,173.63364160002675,172.13135940005304,173.63364160002675,172.13135940005304,173.63364160002675,172.13135940005304,173.63364160002675,173.6169121999992,174.1180990000139,173.6169121999992,174.1180990000139,173.6169121999992,174.1180990000139,173.6169121999992,174.1180990000139,173.6169121999992,174.1180990000139,173.6169121999992,174.1180990000139,173.6169121999992,174.1180990000139,173.6169121999992,174.1180990000139,172.13135940005304,None,174.1180990000139,175.62096460000612,1.5,175.63752620003652,None,176.38901840004837,None,,,,,,,,,,11011,001,2024_Jan_02_1003,MFTM_A_new1021,2021.2.3,59.95685503966175,
,,,,,,,,stim/Instruction_mask.png,conditions/adaptive.xlsx,practice,0.6,0.6,0.6,-0.6,-0.6,right,R,,,,,0,0,0,0,0,2,2,46,,,,,,,,,,,,,,,,,,,,,,,,,,,,,,,,,,,,,,,,,,,,176.88952190004056,None,left,0,1.4870418999926187,177.38939430000028,178.69164570001885,177.38939430000028,178.19131090003066,177.38939430000028,178.19131090003066,177.38939430000028,178.19131090003066,177.38939430000028,178.19131090003066,177.38939430000028,178.19131090003066,178.1737981000333,178.6755091000232,178.1737981000333,178.6755091000232,178.1737981000333,178.6755091000232,178.1737981000333,178.6755091000232,178.1737981000333,178.6755091000232,178.1737981000333,178.6755091000232,178.1737981000333,178.6755091000232,178.1737981000333,178.6755091000232,177.38939430000028,None,178.6755091000232,180.87970099999802,0.8,180.89553239999805,None,181.64583000005223,None,,,,,,,,,,11011,001,2024_Jan_02_1003,MFTM_A_new1021,2021.2.3,59.95685503966175,
,,,,,,,,stim/Instruction_mask.png,conditions/adaptive.xlsx,practice,-0.6,-0.6,-0.6,0.6,0.6,left,L,,,,,0,0,0,0,0,3,3,43,,,,,,,,,,,,,,,,,,,,,,,,,,,,,,,,,,,,,,,,,,,,182.14640720002353,None,right,0,1.180716399976518,182.64710980001837,183.39907440001843,182.64710980001837,182.89835200004745,182.64710980001837,182.89835200004745,182.64710980001837,182.89835200004745,182.64710980001837,182.89835200004745,182.64710980001837,182.89835200004745,182.88089240004774,183.38285110000288,182.88089240004774,183.38285110000288,182.88089240004774,183.38285110000288,182.88089240004774,183.38285110000288,182.88089240004774,183.38285110000288,182.88089240004774,183.38285110000288,182.88089240004774,183.38285110000288,182.88089240004774,183.38285110000288,182.64710980001837,None,183.38285110000288,186.1368476000498,3,186.1531580000301,None,186.90409980004188,None,,,,,,,,,,11011,001,2024_Jan_02_1003,MFTM_A_new1021,2021.2.3,59.95685503966175,
,,,,,,,,stim/Instruction_mask.png,conditions/adaptive.xlsx,practice,,,,,,,,,,,,0,0,0,0,,,,,,,,,,,,,,,,,,,,,,,,,,,,,,,,,,,,,,,,,,,,,,,,,,,,,,,,,,,,,,,,,,,,,,,,,,,,,,,,,,,,,,,,,,187.42087120003998,188.4233280000044,188.38971960003255,188.38971960003255,188.38971960003255,None,,,,11011,001,2024_Jan_02_1003,MFTM_A_new1021,2021.2.3,59.95685503966175,
,,,,,,,,stim/Instruction_adaptive.png,conditions/adaptive.xlsx,test,-0.6,-0.6,-0.6,0.6,0.6,left,L,,,,,0,1,1,1,0,0,0,9,,,,,,,,,,,,,,,,,,,,,,,,,,,,,,,,,,,,,,191.5110091000097,None,right,46.80489790003048,191.5110091000097,None,238.3628018000163,None,left,1,1.0678863000357524,238.86449590005213,None,238.86449590005213,241.8680695000221,238.86449590005213,241.8680695000221,238.86449590005213,241.8680695000221,238.86449590005213,241.8680695000221,238.86449590005213,241.8680695000221,241.8513687000377,242.3528424000251,241.8513687000377,242.3528424000251,241.8513687000377,242.3528424000251,241.8513687000377,242.3528424000251,241.8513687000377,242.3528424000251,241.8513687000377,242.3528424000251,241.8513687000377,242.3528424000251,241.8513687000377,242.3528424000251,238.86449590005213,None,242.3528424000251,242.3528424000251,3,242.36919660004787,None,243.12016140000196,None,,,,,,,0,6.000000000000005,1.0,11011,001,2024_Jan_02_1003,MFTM_A_new1021,2021.2.3,59.95685503966175,
,,,,,,,,stim/Instruction_adaptive.png,conditions/adaptive.xlsx,test,0.6,0.6,0.6,-0.6,-0.6,right,R,,,,,0,1,1,1,0,1,1,44,,,,,,,,,,,,,,,,,,,,,,,,,,,,,,,,,,,,,,,,,,,,243.6210850000498,None,right,1,1.3299737999914214,244.12201130000176,244.87298939999891,244.12201130000176,244.3728435000521,244.12201130000176,244.3728435000521,244.12201130000176,244.3728435000521,244.12201130000176,244.3728435000521,244.12201130000176,244.3728435000521,244.3559257000452,244.85685460001696,244.3559257000452,244.85685460001696,244.3559257000452,244.85685460001696,244.3559257000452,244.85685460001696,244.3559257000452,244.85685460001696,244.3559257000452,244.85685460001696,244.3559257000452,244.85685460001696,244.3559257000452,244.85685460001696,244.12201130000176,None,244.85685460001696,245.74070520000532,0.25,245.75729850004427,None,246.50918490003096,None,,,,,,,[0.875],6.000000000000005,1.0,11011,001,2024_Jan_02_1003,MFTM_A_new1021,2021.2.3,59.95685503966175,
,,,,,,,,stim/Instruction_adaptive.png,conditions/adaptive.xlsx,test,0.6,0.6,0.6,-0.6,-0.6,right,R,,,,,0,1,1,1,0,2,2,56,,,,,,,,,,,,,,,,,,,,,,,,,,,,,,,,,,,,,,,,,,,,247.01053420000244,None,right,1,0.9825668000266887,247.5098937000148,248.2623524000519,247.5098937000148,247.76034560002154,247.5098937000148,247.76034560002154,247.5098937000148,247.76034560002154,247.5098937000148,247.76034560002154,247.5098937000148,247.76034560002154,247.74482900003204,248.24510660005035,247.74482900003204,248.24510660005035,247.74482900003204,248.24510660005035,247.74482900003204,248.24510660005035,247.74482900003204,248.24510660005035,247.74482900003204,248.24510660005035,247.74482900003204,248.24510660005035,247.74482900003204,248.24510660005035,247.5098937000148,None,248.24510660005035,249.58065420005005,0.25,249.596322300029,None,250.34850340004778,None,,,,,,,[1.33333333],6.000000000000005,1.0,11011,001,2024_Jan_02_1003,MFTM_A_new1021,2021.2.3,59.95685503966175,
,,,,,,,,stim/Instruction_adaptive.png,conditions/adaptive.xlsx,test,0.6,0.6,0.6,-0.6,-0.6,right,R,,,,,0,1,1,1,0,3,3,32,,,,,,,,,,,,,,,,,,,,,,,,,,,,,,,,,,,,,,,,,,,,250.8493450000533,None,left,0,0.9186374999699183,251.34968450001907,252.10012830002233,251.34968450001907,251.59947519999696,251.34968450001907,251.59947519999696,251.34968450001907,251.59947519999696,251.34968450001907,251.59947519999696,251.34968450001907,251.59947519999696,251.58358910004608,252.08380420005415,251.58358910004608,252.08380420005415,251.58358910004608,252.08380420005415,251.58358910004608,252.08380420005415,251.58358910004608,252.08380420005415,251.58358910004608,252.08380420005415,251.58358910004608,252.08380420005415,251.58358910004608,252.08380420005415,251.34968450001907,None,252.08380420005415,253.65319230000023,0.25,253.66888650000328,None,254.4201465000515,None,,,,,,,[1.5625],4.030000000000003,0.75,11011,001,2024_Jan_02_1003,MFTM_A_new1021,2021.2.3,59.95685503966175,
,,,,,,,,stim/Instruction_adaptive.png,conditions/adaptive.xlsx,test,0.6,0.6,0.6,-0.6,-0.6,right,R,,,,,0,1,1,1,0,4,4,98,,,,,,,,,,,,,,,,,,,,,,,,,,,,,,,,,,,,,,,,,,,,254.92224770004395,None,right,1,0.7266373000456952,255.42144750000443,256.3228669000091,255.42144750000443,255.8221870000125,255.42144750000443,255.8221870000125,255.42144750000443,255.8221870000125,255.42144750000443,255.8221870000125,255.42144750000443,255.8221870000125,255.80587010004092,256.3066243000212,255.80587010004092,256.3066243000212,255.80587010004092,256.3066243000212,255.80587010004092,256.3066243000212,255.80587010004092,256.3066243000212,255.80587010004092,256.3066243000212,255.80587010004092,256.3066243000212,255.80587010004092,256.3066243000212,255.42144750000443,None,256.3066243000212,257.97638100001495,0.40000000000000013,257.9916361000505,None,258.7441231000121,None,,,,,,,[1.67],4.700000000000004,0.8,11011,001,2024_Jan_02_1003,MFTM_A_new1021,2021.2.3,59.95685503966175,
,,,,,,,,stim/Instruction_adaptive.png,conditions/adaptive.xlsx,test,-0.6,-0.6,-0.6,0.6,0.6,left,L,,,,,0,1,1,1,0,5,5,31,,,,,,,,,,,,,,,,,,,,,,,,,,,,,,,,,,,,,,,,,,,,259.24483260000125,None,left,1,0.8263553999713622,259.74552360002417,260.4965734000434,259.74552360002417,259.99595830001635,259.74552360002417,259.99595830001635,259.74552360002417,259.99595830001635,259.74552360002417,259.99595830001635,259.74552360002417,259.99595830001635,259.97832590003964,260.47995970002376,259.97832590003964,260.47995970002376,259.97832590003964,260.47995970002376,259.97832590003964,260.47995970002376,259.97832590003964,260.47995970002376,259.97832590003964,260.47995970002376,259.97832590003964,260.47995970002376,259.97832590003964,260.47995970002376,259.74552360002417,None,260.47995970002376,262.24868170003174,0.25,262.2652167000342,None,263.0172161000082,None,,,,,,,[1.76666667],5.070000000000004,0.8333333333333334,11011,001,2024_Jan_02_1003,MFTM_A_new1021,2021.2.3,59.95685503966175,
,,,,,,,,stim/Instruction_adaptive.png,conditions/adaptive.xlsx,test,-0.6,-0.6,-0.6,0.6,0.6,left,L,,,,,0,1,1,1,0,6,6,3,,,,,,,,,,,,,,,,,,,,,,,,,,,,,,,,,,,,,,,,,,,,263.5170046000276,None,right,0,0.7463376999949105,264.01772630005144,264.76943590003066,264.01772630005144,264.26854410005035,264.01772630005144,264.26854410005035,264.01772630005144,264.26854410005035,264.01772630005144,264.26854410005035,264.01772630005144,264.26854410005035,264.25236980000045,264.7528550000279,264.25236980000045,264.7528550000279,264.25236980000045,264.7528550000279,264.25236980000045,264.7528550000279,264.25236980000045,264.7528550000279,264.25236980000045,264.7528550000279,264.25236980000045,264.7528550000279,264.25236980000045,264.7528550000279,264.01772630005144,None,264.7528550000279,266.58897949999664,0.25,266.60474260000046,None,267.356763400021,None,,,,,,,[1.83571429],4.050000000000003,0.7142857142857143,11011,001,2024_Jan_02_1003,MFTM_A_new1021,2021.2.3,59.95685503966175,
,,,,,,,,stim/Instruction_adaptive.png,conditions/adaptive.xlsx,test,0.6,0.6,0.6,-0.6,-0.6,right,R,,,,,0,1,1,1,0,7,7,48,,,,,,,,,,,,,,,,,,,,,,,,,,,,,,,,,,,,,,,,,,,,267.8571368000121,None,right,1,0.8782365000224672,268.3576058000326,269.2590844000224,268.3576058000326,268.7588480000268,268.3576058000326,268.7588480000268,268.3576058000326,268.7588480000268,268.3576058000326,268.7588480000268,268.3576058000326,268.7588480000268,268.74224590003723,269.24271050002426,268.74224590003723,269.24271050002426,268.74224590003723,269.24271050002426,268.74224590003723,269.24271050002426,268.74224590003723,269.24271050002426,268.74224590003723,269.24271050002426,268.74224590003723,269.24271050002426,268.74224590003723,269.24271050002426,268.3576058000326,None,269.24271050002426,271.11197920003906,0.40000000000000013,271.128340700001,None,271.8794332999969,None,,,,,,,[1.86875],4.430000000000003,0.75,11011,001,2024_Jan_02_1003,MFTM_A_new1021,2021.2.3,59.95685503966175,
,,,,,,,,stim/Instruction_adaptive.png,conditions/adaptive.xlsx,test,0.6,0.6,0.6,-0.6,-0.6,right,R,,,,,0,1,1,1,0,8,8,78,,,,,,,,,,,,,,,,,,,,,,,,,,,,,,,,,,,,,,,,,,,,272.3807963000145,None,left,0,0.8591083000064828,272.88095140003134,273.6993453000323,272.88095140003134,273.19837880000705,272.88095140003134,273.19837880000705,272.88095140003134,273.19837880000705,272.88095140003134,273.19837880000705,272.88095140003134,273.19837880000705,273.18143560003955,273.68217990000267,273.18143560003955,273.68217990000267,273.18143560003955,273.68217990000267,273.18143560003955,273.68217990000267,273.18143560003955,273.68217990000267,273.18143560003955,273.68217990000267,273.18143560003955,273.68217990000267,273.18143560003955,273.68217990000267,272.88095140003134,None,273.68217990000267,None,0.31000000000000005,275.6013297000318,None,276.35264560004,None,,,,,,,[1.90444444],3.5800000000000027,0.6666666666666666,11011,001,2024_Jan_02_1003,MFTM_A_new1021,2021.2.3,59.95685503966175,
,,,,,,,,stim/Instruction_adaptive.png,conditions/adaptive.xlsx,test,-0.6,-0.6,-0.6,0.6,0.6,left,L,,,,,0,1,1,1,0,9,9,55,,,,,,,,,,,,,,,,,,,,,,,,,,,,,,,,,,,,,,,,,,,,276.8546147000161,None,right,0,1.6097070000250824,277.35423940001056,278.40734870004235,277.35423940001056,277.9051574000041,277.35423940001056,277.9051574000041,277.35423940001056,277.9051574000041,277.35423940001056,277.9051574000041,277.35423940001056,277.9051574000041,277.88885210000444,278.3903780000401,277.88885210000444,278.3903780000401,277.88885210000444,278.3903780000401,277.88885210000444,278.3903780000401,277.88885210000444,278.3903780000401,277.88885210000444,278.3903780000401,277.88885210000444,278.3903780000401,277.88885210000444,278.3903780000401,277.35423940001056,None,278.3903780000401,280.3092171000317,0.5500000000000003,280.3250059999991,None,281.07699940004386,None,,,,,,,[1.909],2.5000000000000018,0.6,11011,001,2024_Jan_02_1003,MFTM_A_new1021,2021.2.3,59.95685503966175,
,,,,,,,,stim/Instruction_adaptive.png,conditions/adaptive.xlsx,test,-0.6,-0.6,-0.6,0.6,0.6,left,L,,,,,0,1,1,1,0,10,10,15,,,,,,,,,,,,,,,,,,,,,,,,,,,,,,,,,,,,,,,,,,,,281.57724080001935,None,left,1,1.9743705000146292,282.0778930000379,283.74746340001,282.0778930000379,283.24696840002434,282.0778930000379,283.24696840002434,282.0778930000379,283.24696840002434,282.0778930000379,283.24696840002434,282.0778930000379,283.24696840002434,283.23048520000884,283.73089500004426,283.23048520000884,283.73089500004426,283.23048520000884,283.73089500004426,283.23048520000884,283.73089500004426,283.23048520000884,283.73089500004426,283.23048520000884,283.73089500004426,283.23048520000884,283.73089500004426,283.23048520000884,283.73089500004426,282.0778930000379,None,283.73089500004426,None,1.1600000000000008,285.08237830002327,None,285.8332773000002,None,,,,,,,[[1.34]],2.980000000000002,0.6363636363636364,11011,001,2024_Jan_02_1003,MFTM_A_new1021,2021.2.3,59.95685503966175,
,,,,,,,,stim/Instruction_adaptive.png,conditions/adaptive.xlsx,test,-0.6,-0.6,-0.6,0.6,0.6,left,L,,,,,0,1,1,1,0,11,11,85,,,,,,,,,,,,,,,,,,,,,,,,,,,,,,,,,,,,,,,,,,,,286.33497590001207,None,left,1,1.6341559999855235,286.8349257000373,288.1709791000467,286.8349257000373,287.6704831000534,286.8349257000373,287.6704831000534,286.8349257000373,287.6704831000534,286.8349257000373,287.6704831000534,286.8349257000373,287.6704831000534,287.65372910001315,288.154336000036,287.65372910001315,288.154336000036,287.65372910001315,288.154336000036,287.65372910001315,288.154336000036,287.65372910001315,288.154336000036,287.65372910001315,288.154336000036,287.65372910001315,288.154336000036,287.65372910001315,288.154336000036,286.8349257000373,None,288.154336000036,289.823234600015,0.8300000000000005,289.8394402000122,None,290.5902088000439,None,,,,,,,[[1.67]],3.3000000000000025,0.6666666666666666,11011,001,2024_Jan_02_1003,MFTM_A_new1021,2021.2.3,59.95685503966175,
,,,,,,,,stim/Instruction_adaptive.png,conditions/adaptive.xlsx,test,-0.6,-0.6,-0.6,0.6,0.6,left,L,,,,,0,1,1,1,0,12,12,49,,,,,,,,,,,,,,,,,,,,,,,,,,,,,,,,,,,,,,,,,,,,291.09222230000887,None,left,1,1.2031291000312194,291.5930215000408,292.77758290001657,291.5930215000408,292.27673480001977,291.5930215000408,292.27673480001977,291.5930215000408,292.27673480001977,291.5930215000408,292.27673480001977,291.5930215000408,292.27673480001977,292.24299360002624,292.74433200003114,292.24299360002624,292.74433200003114,292.24299360002624,292.74433200003114,292.24299360002624,292.74433200003114,292.24299360002624,292.74433200003114,292.24299360002624,292.74433200003114,292.24299360002624,292.74433200003114,292.24299360002624,292.74433200003114,291.5930215000408,None,292.74433200003114,294.58013390004635,0.6700000000000004,294.596718100016,None,295.34769680001773,None,,,,,,,[[1.83]],3.5400000000000027,0.6923076923076923,11011,001,2024_Jan_02_1003,MFTM_A_new1021,2021.2.3,59.95685503966175,
,,,,,,,,stim/Instruction_adaptive.png,conditions/adaptive.xlsx,test,0.6,0.6,0.6,-0.6,-0.6,right,R,,,,,0,1,1,1,0,13,13,42,,,,,,,,,,,,,,,,,,,,,,,,,,,,,,,,,,,,,,,,,,,,295.8488298000302,None,right,1,1.1428930999827571,296.3490298000397,297.4172091000364,296.3490298000397,296.9345410000533,296.3490298000397,296.9345410000533,296.3490298000397,296.9345410000533,296.3490298000397,296.9345410000533,296.3490298000397,296.9345410000533,296.8996807000367,297.40141790005146,296.8996807000367,297.40141790005146,296.8996807000367,297.40141790005146,296.8996807000367,297.40141790005146,296.8996807000367,297.40141790005146,296.8996807000367,297.40141790005146,296.8996807000367,297.40141790005146,296.8996807000367,297.40141790005146,296.3490298000397,None,297.40141790005146,299.2540142000071,0.5700000000000003,299.2698681000038,None,300.0220684000524,None,,,,,,,[1.84714286],3.730000000000003,0.7142857142857143,11011,001,2024_Jan_02_1003,MFTM_A_new1021,2021.2.3,59.95685503966175,
,,,,,,,,stim/Instruction_adaptive.png,conditions/adaptive.xlsx,test,-0.6,-0.6,-0.6,0.6,0.6,left,L,,,,,0,1,1,1,0,14,14,33,,,,,,,,,,,,,,,,,,,,,,,,,,,,,,,,,,,,,,,,,,,,300.52187910000794,None,right,0,1.1729563000262715,301.0231742000324,302.02395430003526,301.0231742000324,301.5240060000215,301.0231742000324,301.5240060000215,301.0231742000324,301.5240060000215,301.0231742000324,301.5240060000215,301.0231742000324,301.5240060000215,301.5079026000458,302.00718240003334,301.5079026000458,302.00718240003334,301.5079026000458,302.00718240003334,301.5079026000458,302.00718240003334,301.5079026000458,302.00718240003334,301.5079026000458,302.00718240003334,301.5079026000458,302.00718240003334,301.5079026000458,302.00718240003334,301.0231742000324,None,302.00718240003334,303.8767953000497,0.5000000000000002,303.8948079000111,None,304.64529460004997,None,,,,,,,[1.85733333],3.2500000000000027,0.6666666666666666,11011,001,2024_Jan_02_1003,MFTM_A_new1021,2021.2.3,59.95685503966175,
,,,,,,,,stim/Instruction_adaptive.png,conditions/adaptive.xlsx,test,0.6,0.6,0.6,-0.6,-0.6,right,R,,,,,0,1,1,1,0,15,15,34,,,,,,,,,,,,,,,,,,,,,,,,,,,,,,,,,,,,,,,,,,,,305.14580090000527,None,left,0,1.2699210999999195,305.6461796000367,306.8479572000215,305.6461796000367,306.3472602000111,305.6461796000367,306.3472602000111,305.6461796000367,306.3472602000111,305.6461796000367,306.3472602000111,305.6461796000367,306.3472602000111,306.3143866000464,306.8156859000446,306.3143866000464,306.8156859000446,306.3143866000464,306.8156859000446,306.3143866000464,306.8156859000446,306.3143866000464,306.8156859000446,306.3143866000464,306.8156859000446,306.3143866000464,306.8156859000446,306.3143866000464,306.8156859000446,305.6461796000367,None,306.8156859000446,308.63376759999665,0.6900000000000004,308.65054880001117,None,309.40225179999834,None,,,,,,,[[1.81]],2.6700000000000017,0.625,11011,001,2024_Jan_02_1003,MFTM_A_new1021,2021.2.3,59.95685503966175,
,,,,,,,,stim/Instruction_adaptive.png,conditions/adaptive.xlsx,test,0.6,0.6,0.6,-0.6,-0.6,right,R,,,,,0,1,1,1,0,16,16,2,,,,,,,,,,,,,,,,,,,,,,,,,,,,,,,,,,,,,,,,,,,,309.9031684000511,None,right,1,1.496624100022018,310.4031994000543,311.9400197000359,310.4031994000543,311.4383465000428,310.4031994000543,311.4383465000428,310.4031994000543,311.4383465000428,310.4031994000543,311.4383465000428,310.4031994000543,311.4383465000428,311.42175280000083,311.92269090004265,311.42175280000083,311.92269090004265,311.42175280000083,311.92269090004265,311.42175280000083,311.92269090004265,311.42175280000083,311.92269090004265,311.42175280000083,311.92269090004265,311.42175280000083,311.92269090004265,311.42175280000083,311.92269090004265,310.4031994000543,None,311.92269090004265,None,1.0300000000000007,313.4075387000339,None,314.15874140005326,None,,,,,,,[[1.47]],2.910000000000002,0.6470588235294118,11011,001,2024_Jan_02_1003,MFTM_A_new1021,2021.2.3,59.95685503966175,
,,,,,,,,stim/Instruction_adaptive.png,conditions/adaptive.xlsx,test,-0.6,-0.6,-0.6,0.6,0.6,left,L,,,,,0,1,1,1,0,17,17,93,,,,,,,,,,,,,,,,,,,,,,,,,,,,,,,,,,,,,,,,,,,,314.65968260000227,None,right,0,1.4915833999984898,315.1606466000085,316.54637550003827,315.1606466000085,316.0454665000434,315.1606466000085,316.0454665000434,315.1606466000085,316.0454665000434,315.1606466000085,316.0454665000434,315.1606466000085,316.0454665000434,316.0284785000258,316.5299908000161,316.0284785000258,316.5299908000161,316.0284785000258,316.5299908000161,316.0284785000258,316.5299908000161,316.0284785000258,316.5299908000161,316.0284785000258,316.5299908000161,316.0284785000258,316.5299908000161,316.0284785000258,316.5299908000161,315.1606466000085,None,316.5299908000161,318.1489033999969,0.8800000000000006,318.16489830001956,None,318.9164712000056,None,,,,,,,[[1.62]],2.3200000000000016,0.6111111111111112,11011,001,2024_Jan_02_1003,MFTM_A_new1021,2021.2.3,59.95685503966175,
,,,,,,,,stim/Instruction_adaptive.png,conditions/adaptive.xlsx,test,0.6,0.6,0.6,-0.6,-0.6,right,R,,,,,0,1,1,1,0,18,18,60,,,,,,,,,,,,,,,,,,,,,,,,,,,,,,,,,,,,,,,,,,,,319.41643360001035,None,right,1,1.8300950999837369,319.91804210003465,321.73674350004876,319.91804210003465,321.25248030002695,319.91804210003465,321.25248030002695,319.91804210003465,321.25248030002695,319.91804210003465,321.25248030002695,319.91804210003465,321.25248030002695,321.2197872000397,321.72073560004355,321.2197872000397,321.72073560004355,321.2197872000397,321.72073560004355,321.2197872000397,321.72073560004355,321.2197872000397,321.72073560004355,321.2197872000397,321.72073560004355,321.2197872000397,321.72073560004355,321.2197872000397,321.72073560004355,319.91804210003465,None,321.72073560004355,322.9056008000043,1.320000000000001,322.9215529000503,None,323.6736729000113,None,,,,,,,[[1.18]],2.560000000000002,0.631578947368421,11011,001,2024_Jan_02_1003,MFTM_A_new1021,2021.2.3,59.95685503966175,
,,,,,,,,stim/Instruction_adaptive.png,conditions/adaptive.xlsx,test,0.6,0.6,0.6,-0.6,-0.6,right,R,,,,,0,1,1,1,0,19,19,94,,,,,,,,,,,,,,,,,,,,,,,,,,,,,,,,,,,,,,,,,,,,324.17426160001196,None,right,1,1.5702761999564245,324.6743361999979,326.29412150004646,324.6743361999979,325.81027350004297,324.6743361999979,325.81027350004297,324.6743361999979,325.81027350004297,324.6743361999979,325.81027350004297,324.6743361999979,325.81027350004297,325.77656280004885,326.2777308000368,325.77656280004885,326.2777308000368,325.77656280004885,326.2777308000368,325.77656280004885,326.2777308000368,325.77656280004885,326.2777308000368,325.77656280004885,326.2777308000368,325.77656280004885,326.2777308000368,325.77656280004885,326.2777308000368,324.6743361999979,None,326.2777308000368,327.66292319999775,1.1200000000000008,327.67948320001597,None,328.43029310001293,None,,,,,,,[[1.38]],2.7500000000000018,0.65,11011,001,2024_Jan_02_1003,MFTM_A_new1021,2021.2.3,59.95685503966175,
,,,,,,,,stim/Instruction_adaptive.png,conditions/adaptive.xlsx,test,-0.6,-0.6,-0.6,0.6,0.6,left,L,,,,,0,1,1,1,0,20,20,1,,,,,,,,,,,,,,,,,,,,,,,,,,,,,,,,,,,,,,,,,,,,328.93158830003813,None,right,0,2.220847300020978,329.4319861000404,330.9174089000444,329.4319861000404,330.41695000004256,329.4319861000404,330.41695000004256,329.4319861000404,330.41695000004256,329.4319861000404,330.41695000004256,329.4319861000404,330.41695000004256,330.4004004000453,330.9006220000447,330.4004004000453,330.9006220000447,330.4004004000453,330.9006220000447,330.4004004000453,330.9006220000447,330.4004004000453,330.9006220000447,330.4004004000453,330.9006220000447,330.4004004000453,330.9006220000447,330.4004004000453,330.9006220000447,329.4319861000404,None,330.9006220000447,332.41995380003937,0.9800000000000006,332.43574159999844,None,333.1866705000284,None,,,,,,,[[1.52]],2.2600000000000016,0.6190476190476191,11011,001,2024_Jan_02_1003,MFTM_A_new1021,2021.2.3,59.95685503966175,
,,,,,,,,stim/Instruction_adaptive.png,conditions/adaptive.xlsx,test,0.6,0.6,0.6,-0.6,-0.6,right,R,,,,,0,1,1,1,0,21,21,10,,,,,,,,,,,,,,,,,,,,,,,,,,,,,,,,,,,,,,,,,,,,333.6886283000349,None,right,1,1.878701000008732,334.18917770002736,336.0745416000136,334.18917770002736,335.5739013000275,334.18917770002736,335.5739013000275,334.18917770002736,335.5739013000275,334.18917770002736,335.5739013000275,334.18917770002736,335.5739013000275,335.5409690000233,336.0411091000424,335.5409690000233,336.0411091000424,335.5409690000233,336.0411091000424,335.5409690000233,336.0411091000424,335.5409690000233,336.0411091000424,335.5409690000233,336.0411091000424,335.5409690000233,336.0411091000424,335.5409690000233,336.0411091000424,334.18917770002736,None,336.0411091000424,337.17633560003014,1.370000000000001,337.1928259000415,None,337.94391910004197,None,,,,,,,[[1.13]],2.4600000000000017,0.6363636363636364,11011,001,2024_Jan_02_1003,MFTM_A_new1021,2021.2.3,59.95685503966175,
,,,,,,,,stim/Instruction_adaptive.png,conditions/adaptive.xlsx,test,-0.6,-0.6,-0.6,0.6,0.6,left,L,,,,,0,1,1,1,0,22,22,29,,,,,,,,,,,,,,,,,,,,,,,,,,,,,,,,,,,,,,,,,,,,338.44576640002197,None,left,1,1.9542874000035226,338.9454952000524,340.64888260001317,338.9454952000524,340.1470195000293,338.9454952000524,340.1470195000293,338.9454952000524,340.1470195000293,338.9454952000524,340.1470195000293,338.9454952000524,340.1470195000293,340.130654800043,340.63096840004437,340.130654800043,340.63096840004437,340.130654800043,340.63096840004437,340.130654800043,340.63096840004437,340.130654800043,340.63096840004437,340.130654800043,340.63096840004437,340.130654800043,340.63096840004437,340.130654800043,340.63096840004437,338.9454952000524,None,340.63096840004437,341.9337369000423,1.2000000000000008,341.9499554000213,None,342.70166690001497,None,,,,,,,[[1.3]],2.610000000000002,0.6521739130434783,11011,001,2024_Jan_02_1003,MFTM_A_new1021,2021.2.3,59.95685503966175,
,,,,,,,,stim/Instruction_adaptive.png,conditions/adaptive.xlsx,test,-0.6,-0.6,-0.6,0.6,0.6,left,L,,,,,0,1,1,1,0,23,23,77,,,,,,,,,,,,,,,,,,,,,,,,,,,,,,,,,,,,,,,,,,,,343.20172830001684,None,right,0,1.8927674000151455,343.70310080004856,345.2887839000323,343.70310080004856,344.7875748000224,343.70310080004856,344.7875748000224,343.70310080004856,344.7875748000224,343.70310080004856,344.7875748000224,343.70310080004856,344.7875748000224,344.7714854000369,345.27231710002525,344.7714854000369,345.27231710002525,344.7714854000369,345.27231710002525,344.7714854000369,345.27231710002525,344.7714854000369,345.27231710002525,344.7714854000369,345.27231710002525,344.7714854000369,345.27231710002525,344.7714854000369,345.27231710002525,343.70310080004856,None,345.27231710002525,346.6910505000269,1.0800000000000007,346.7069848999963,None,347.4582483000122,None,,,,,,,[[1.42]],2.2000000000000015,0.625,11011,001,2024_Jan_02_1003,MFTM_A_new1021,2021.2.3,59.95685503966175,
,,,,,,,,stim/Instruction_adaptive.png,conditions/adaptive.xlsx,test,-0.6,-0.6,-0.6,0.6,0.6,left,L,,,,,0,1,1,1,0,24,24,59,,,,,,,,,,,,,,,,,,,,,,,,,,,,,,,,,,,,,,,,,,,,347.9594666000339,None,right,0,1.9682041999767534,348.46004299999913,350.39660640002694,348.46004299999913,349.8959220999968,348.46004299999913,349.8959220999968,348.46004299999913,349.8959220999968,348.46004299999913,349.8959220999968,348.46004299999913,349.8959220999968,349.87877550005214,350.379246800032,349.87877550005214,350.379246800032,349.87877550005214,350.379246800032,349.87877550005214,350.379246800032,349.87877550005214,350.379246800032,349.87877550005214,350.379246800032,349.87877550005214,350.379246800032,349.87877550005214,350.379246800032,348.46004299999913,None,350.379246800032,None,1.430000000000001,351.46442400000524,None,352.2151402000454,None,,,,,,,[[1.07]],1.660000000000001,0.6,11011,001,2024_Jan_02_1003,MFTM_A_new1021,2021.2.3,59.95685503966175,
,,,,,,,,stim/Instruction_adaptive.png,conditions/adaptive.xlsx,test,0.6,0.6,0.6,-0.6,-0.6,right,R,,,,,0,1,1,1,0,25,25,6,,,,,,,,,,,,,,,,,,,,,,,,,,,,,,,,,,,,,,,,,,,,352.7165203000186,None,right,1,2.5623773999977857,353.2176434000139,355.8043527000118,353.2176434000139,355.3032999000279,353.2176434000139,355.3032999000279,353.2176434000139,355.3032999000279,353.2176434000139,355.3032999000279,353.2176434000139,355.3032999000279,355.2702743000118,355.77141750004375,355.2702743000118,355.77141750004375,355.2702743000118,355.77141750004375,355.2702743000118,355.77141750004375,355.2702743000118,355.77141750004375,355.2702743000118,355.77141750004375,355.2702743000118,355.77141750004375,355.2702743000118,355.77141750004375,353.2176434000139,None,355.77141750004375,356.2051159000257,2.080000000000002,356.2211019000388,None,356.97277120000217,None,,,,,,,[[0.42]],1.8800000000000012,0.6153846153846154,11011,001,2024_Jan_02_1003,MFTM_A_new1021,2021.2.3,59.95685503966175,
,,,,,,,,stim/Instruction_adaptive.png,conditions/adaptive.xlsx,test,0.6,0.6,0.6,-0.6,-0.6,right,R,,,,,0,1,1,1,0,26,26,72,,,,,,,,,,,,,,,,,,,,,,,,,,,,,,,,,,,,,,,,,,,,357.4735325000365,None,right,1,2.1825170000083745,357.9737077000318,360.2776229000301,357.9737077000318,359.776274200005,357.9737077000318,359.776274200005,357.9737077000318,359.776274200005,357.9737077000318,359.776274200005,357.9737077000318,359.776274200005,359.7439147999976,360.2441187000368,359.7439147999976,360.2441187000368,359.7439147999976,360.2441187000368,359.7439147999976,360.2441187000368,359.7439147999976,360.2441187000368,359.7439147999976,360.2441187000368,359.7439147999976,360.2441187000368,359.7439147999976,360.2441187000368,357.9737077000318,None,360.2441187000368,360.96198620001087,1.7900000000000014,360.9781146000023,None,361.7299717999995,None,,,,,,,[[0.71]],2.0600000000000014,0.6296296296296297,11011,001,2024_Jan_02_1003,MFTM_A_new1021,2021.2.3,59.95685503966175,
,,,,,,,,stim/Instruction_adaptive.png,conditions/adaptive.xlsx,test,-0.6,-0.6,-0.6,0.6,0.6,left,L,,,,,0,1,1,1,0,27,27,43,,,,,,,,,,,,,,,,,,,,,,,,,,,,,,,,,,,,,,,,,,,,362.22983170003863,None,left,1,1.9289076999993995,362.73103140003514,364.81781390000833,362.73103140003514,364.3170181000023,362.73103140003514,364.3170181000023,362.73103140003514,364.3170181000023,362.73103140003514,364.3170181000023,362.73103140003514,364.3170181000023,364.3006420000456,364.8010196000105,364.3006420000456,364.8010196000105,364.3006420000456,364.8010196000105,364.3006420000456,364.8010196000105,364.3006420000456,364.8010196000105,364.3006420000456,364.8010196000105,364.3006420000456,364.8010196000105,364.3006420000456,364.8010196000105,362.73103140003514,None,364.8010196000105,None,1.5800000000000012,365.73518080002395,None,366.4868815000518,None,,,,,,,[[0.92]],2.2000000000000015,0.6428571428571429,11011,001,2024_Jan_02_1003,MFTM_A_new1021,2021.2.3,59.95685503966175,
,,,,,,,,stim/Instruction_adaptive.png,conditions/adaptive.xlsx,test,-0.6,-0.6,-0.6,0.6,0.6,left,L,,,,,0,1,1,1,0,28,28,87,,,,,,,,,,,,,,,,,,,,,,,,,,,,,,,,,,,,,,,,,,,,366.98814560001483,None,left,1,1.6284097000025213,367.4875624999986,369.4245388000272,367.4875624999986,368.9236185000045,367.4875624999986,368.9236185000045,367.4875624999986,368.9236185000045,367.4875624999986,368.9236185000045,367.4875624999986,368.9236185000045,368.9065815000213,369.40794530004496,368.9065815000213,369.40794530004496,368.9065815000213,369.40794530004496,368.9065815000213,369.40794530004496,368.9065815000213,369.40794530004496,368.9065815000213,369.40794530004496,368.9065815000213,369.40794530004496,368.9065815000213,369.40794530004496,367.4875624999986,None,369.40794530004496,None,1.430000000000001,370.4927717000246,None,371.2438235000009,None,,,,,,,[[1.07]],2.3200000000000016,0.6551724137931034,11011,001,2024_Jan_02_1003,MFTM_A_new1021,2021.2.3,59.95685503966175,
,,,,,,,,stim/Instruction_adaptive.png,conditions/adaptive.xlsx,test,0.6,0.6,0.6,-0.6,-0.6,right,R,,,,,0,1,1,1,0,29,29,84,,,,,,,,,,,,,,,,,,,,,,,,,,,,,,,,,,,,,,,,,,,,371.74526130000595,None,right,1,2.43911360000493,372.24486800003797,374.0648293000413,372.24486800003797,373.58082570001716,372.24486800003797,373.58082570001716,372.24486800003797,373.58082570001716,372.24486800003797,373.58082570001716,372.24486800003797,373.58082570001716,373.5467381000053,374.0480962000438,373.5467381000053,374.0480962000438,373.5467381000053,374.0480962000438,373.5467381000053,374.0480962000438,373.5467381000053,374.0480962000438,373.5467381000053,374.0480962000438,373.5467381000053,374.0480962000438,373.5467381000053,374.0480962000438,372.24486800003797,None,374.0480962000438,375.2350381000433,1.320000000000001,375.24925839999923,None,376.0003853000235,None,,,,,,,[[1.18]],2.4200000000000017,0.6666666666666666,11011,001,2024_Jan_02_1003,MFTM_A_new1021,2021.2.3,59.95685503966175,
,,,,,,,,stim/Instruction_adaptive.png,conditions/adaptive.xlsx,test,0.6,0.6,0.6,-0.6,-0.6,right,R,,,,,0,1,1,1,0,30,30,28,,,,,,,,,,,,,,,,,,,,,,,,,,,,,,,,,,,,,,,,,,,,376.5020527000306,None,right,1,2.122285199991893,377.0018463000306,378.73846640001284,377.0018463000306,378.237107700028,377.0018463000306,378.237107700028,377.0018463000306,378.237107700028,377.0018463000306,378.237107700028,377.0018463000306,378.237107700028,378.2204247000045,378.72210630000336,378.2204247000045,378.72210630000336,378.2204247000045,378.72210630000336,378.2204247000045,378.72210630000336,378.2204247000045,378.72210630000336,378.2204247000045,378.72210630000336,378.2204247000045,378.72210630000336,378.2204247000045,378.72210630000336,377.0018463000306,None,378.72210630000336,None,1.2300000000000009,380.0063870000304,None,380.7590314000263,None,,,,,,,[[1.27]],2.5100000000000016,0.6774193548387096,11011,001,2024_Jan_02_1003,MFTM_A_new1021,2021.2.3,59.95685503966175,
,,,,,,,,stim/Instruction_adaptive.png,conditions/adaptive.xlsx,test,0.6,0.6,0.6,-0.6,-0.6,right,R,,,,,0,1,1,1,0,31,31,14,,,,,,,,,,,,,,,,,,,,,,,,,,,,,,,,,,,,,,,,,,,,381.25921780004865,None,left,0,1.676578900020104,381.759514400037,383.4130198000348,381.759514400037,382.91062390001025,381.759514400037,382.91062390001025,381.759514400037,382.91062390001025,381.759514400037,382.91062390001025,381.759514400037,382.91062390001025,382.89463640004396,383.39524010004243,382.89463640004396,383.39524010004243,382.89463640004396,383.39524010004243,382.89463640004396,383.39524010004243,382.89463640004396,383.39524010004243,382.89463640004396,383.39524010004243,382.89463640004396,383.39524010004243,382.89463640004396,383.39524010004243,381.759514400037,None,383.39524010004243,384.747652799997,1.1500000000000008,384.76337990001775,None,385.5157409000094,None,,,,,,,[[1.35]],2.2600000000000016,0.65625,11011,001,2024_Jan_02_1003,MFTM_A_new1021,2021.2.3,59.95685503966175,
,,,,,,,,stim/Instruction_adaptive.png,conditions/adaptive.xlsx,test,0.6,0.6,0.6,-0.6,-0.6,right,R,,,,,0,1,1,1,0,32,32,0,,,,,,,,,,,,,,,,,,,,,,,,,,,,,,,,,,,,,,,,,,,,386.01621760003036,None,right,1,1.7113330999854952,386.51657390000764,388.38622520002536,386.51657390000764,387.90212630003225,386.51657390000764,387.90212630003225,386.51657390000764,387.90212630003225,386.51657390000764,387.90212630003225,386.51657390000764,387.90212630003225,387.8678547000163,388.3694053000072,387.8678547000163,388.3694053000072,387.8678547000163,388.3694053000072,387.8678547000163,388.3694053000072,387.8678547000163,388.3694053000072,387.8678547000163,388.3694053000072,387.8678547000163,388.3694053000072,387.8678547000163,388.3694053000072,386.51657390000764,None,388.3694053000072,389.5044291000231,1.370000000000001,389.52127780002775,None,390.2727156000328,None,,,,,,,[[1.13]],2.3500000000000014,0.6666666666666666,11011,001,2024_Jan_02_1003,MFTM_A_new1021,2021.2.3,59.95685503966175,
,,,,,,,,stim/Instruction_adaptive.png,conditions/adaptive.xlsx,test,-0.6,-0.6,-0.6,0.6,0.6,left,L,,,,,0,1,1,1,0,33,33,91,,,,,,,,,,,,,,,,,,,,,,,,,,,,,,,,,,,,,,,,,,,,390.7730556000024,None,left,1,2.22688069997821,391.2733935000142,393.07620280003175,391.2733935000142,392.5759639000171,391.2733935000142,392.5759639000171,391.2733935000142,392.5759639000171,391.2733935000142,392.5759639000171,391.2733935000142,392.5759639000171,392.54260870005237,393.043115700013,392.54260870005237,393.043115700013,392.54260870005237,393.043115700013,392.54260870005237,393.043115700013,392.54260870005237,393.043115700013,392.54260870005237,393.043115700013,392.54260870005237,393.043115700013,392.54260870005237,393.043115700013,391.2733935000142,None,393.043115700013,394.2605548000429,1.290000000000001,394.27727070002584,None,395.0297386000166,None,,,,,,,[[1.21]],2.4400000000000017,0.6764705882352942,11011,001,2024_Jan_02_1003,MFTM_A_new1021,2021.2.3,59.95685503966175,
,,,,,,,,stim/Instruction_adaptive.png,conditions/adaptive.xlsx,test,-0.6,-0.6,-0.6,0.6,0.6,left,L,,,,,0,1,1,1,0,34,34,57,,,,,,,,,,,,,,,,,,,,,,,,,,,,,,,,,,,,,,,,,,,,395.52966719999677,None,left,1,1.246192599995993,396.03004959999816,397.74993340001674,396.03004959999816,397.2484236000455,396.03004959999816,397.2484236000455,396.03004959999816,397.2484236000455,396.03004959999816,397.2484236000455,396.03004959999816,397.2484236000455,397.2159218000015,397.7168261000188,397.2159218000015,397.7168261000188,397.2159218000015,397.7168261000188,397.2159218000015,397.7168261000188,397.2159218000015,397.7168261000188,397.2159218000015,397.7168261000188,397.2159218000015,397.7168261000188,397.2159218000015,397.7168261000188,396.03004959999816,None,397.7168261000188,399.01861440000357,1.2100000000000009,399.03421980002895,None,399.7864972000243,None,,,,,,,[[1.29]],2.5100000000000016,0.6857142857142857,11011,001,2024_Jan_02_1003,MFTM_A_new1021,2021.2.3,59.95685503966175,
,,,,,,,,stim/Instruction_adaptive.png,conditions/adaptive.xlsx,test,-0.6,-0.6,-0.6,0.6,0.6,left,L,,,,,0,1,1,1,0,35,35,45,,,,,,,,,,,,,,,,,,,,,,,,,,,,,,,,,,,,,,,,,,,,400.28660110000055,None,left,1,1.7291924000019208,400.78717860003235,402.43966050003655,400.78717860003235,401.9399059000425,400.78717860003235,401.9399059000425,400.78717860003235,401.9399059000425,400.78717860003235,401.9399059000425,400.78717860003235,401.9399059000425,401.92261950002285,402.4229195000371,401.92261950002285,402.4229195000371,401.92261950002285,402.4229195000371,401.92261950002285,402.4229195000371,401.92261950002285,402.4229195000371,401.92261950002285,402.4229195000371,401.92261950002285,402.4229195000371,401.92261950002285,402.4229195000371,400.78717860003235,None,402.4229195000371,403.77558350004256,1.1500000000000008,403.79148350004107,None,404.5433708000346,None,,,,,,,[[1.35]],2.580000000000002,0.6944444444444444,11011,001,2024_Jan_02_1003,MFTM_A_new1021,2021.2.3,59.95685503966175,
,,,,,,,,stim/Instruction_adaptive.png,conditions/adaptive.xlsx,test,-0.6,-0.6,-0.6,0.6,0.6,left,L,,,,,0,1,1,1,0,36,36,13,,,,,,,,,,,,,,,,,,,,,,,,,,,,,,,,,,,,,,,,,,,,405.0443651000387,None,right,0,2.1394996999879368,405.54425740003353,407.1468036000151,405.54425740003353,406.6465072000283,405.54425740003353,406.6465072000283,405.54425740003353,406.6465072000283,405.54425740003353,406.6465072000283,405.54425740003353,406.6465072000283,406.6291611000197,407.1308610000415,406.6291611000197,407.1308610000415,406.6291611000197,407.1308610000415,406.6291611000197,407.1308610000415,406.6291611000197,407.1308610000415,406.6291611000197,407.1308610000415,406.6291611000197,407.1308610000415,406.6291611000197,407.1308610000415,405.54425740003353,None,407.1308610000415,408.5330525000463,1.1000000000000008,408.5480716000311,None,409.3004335000296,None,,,,,,,[[1.4]],2.3800000000000017,0.6756756756756757,11011,001,2024_Jan_02_1003,MFTM_A_new1021,2021.2.3,59.95685503966175,
,,,,,,,,stim/Instruction_adaptive.png,conditions/adaptive.xlsx,test,-0.6,-0.6,-0.6,0.6,0.6,left,L,,,,,0,1,1,1,0,37,37,19,,,,,,,,,,,,,,,,,,,,,,,,,,,,,,,,,,,,,,,,,,,,409.8013135000365,None,right,0,1.590697200037539,410.30114930000855,412.07141580001917,410.30114930000855,411.5704776000348,410.30114930000855,411.5704776000348,410.30114930000855,411.5704776000348,410.30114930000855,411.5704776000348,410.30114930000855,411.5704776000348,411.55324090004433,412.05415310000535,411.55324090004433,412.05415310000535,411.55324090004433,412.05415310000535,411.55324090004433,412.05415310000535,411.55324090004433,412.05415310000535,411.55324090004433,412.05415310000535,411.55324090004433,412.05415310000535,411.55324090004433,412.05415310000535,410.30114930000855,None,412.0378331000102,413.28978710004594,1.260000000000001,413.3063530000509,None,414.0574152000481,None,,,,,,,[[1.24]],2.1600000000000015,0.6578947368421053,11011,001,2024_Jan_02_1003,MFTM_A_new1021,2021.2.3,59.95685503966175,
,,,,,,,,stim/Instruction_adaptive.png,conditions/adaptive.xlsx,test,0.6,0.6,0.6,-0.6,-0.6,right,R,,,,,0,1,1,1,0,38,38,46,,,,,,,,,,,,,,,,,,,,,,,,,,,,,,,,,,,,,,,,,,,,414.558134699997,None,right,1,1.705467099964153,415.0586775999982,417.0276718000532,415.0586775999982,416.5438727000146,415.0586775999982,416.5438727000146,415.0586775999982,416.5438727000146,415.0586775999982,416.5438727000146,415.0586775999982,416.5438727000146,416.51049870002316,417.0110761000542,416.51049870002316,417.0110761000542,416.51049870002316,417.0110761000542,416.51049870002316,417.0110761000542,416.51049870002316,417.0110761000542,416.51049870002316,417.0110761000542,416.51049870002316,417.0110761000542,416.51049870002316,417.0110761000542,415.0586775999982,None,417.0110761000542,418.04677970003104,1.470000000000001,418.0622133000288,None,418.81453220004914,None,,,,,,,[[1.03]],2.2400000000000015,0.6666666666666666,11011,001,2024_Jan_02_1003,MFTM_A_new1021,2021.2.3,59.95685503966175,
,,,,,,,,stim/Instruction_adaptive.png,conditions/adaptive.xlsx,test,0.6,0.6,0.6,-0.6,-0.6,right,R,,,,,0,1,1,1,0,39,39,22,,,,,,,,,,,,,,,,,,,,,,,,,,,,,,,,,,,,,,,,,,,,419.31541680003284,None,right,1,1.6205339999869466,419.81537870003376,421.71909470000537,419.81537870003376,421.2180264000199,419.81537870003376,421.2180264000199,419.81537870003376,421.2180264000199,419.81537870003376,421.2180264000199,419.81537870003376,421.2180264000199,421.18430180003634,421.68482260004384,421.18430180003634,421.68482260004384,421.18430180003634,421.68482260004384,421.18430180003634,421.68482260004384,421.18430180003634,421.68482260004384,421.18430180003634,421.68482260004384,421.18430180003634,421.68482260004384,421.18430180003634,421.68482260004384,419.81537870003376,None,421.68482260004384,422.8040236000088,1.390000000000001,422.819831300003,None,423.5719114000094,None,,,,,,,[[1.11]],2.3200000000000016,0.675,11011,001,2024_Jan_02_1003,MFTM_A_new1021,2021.2.3,59.95685503966175,
,,,,,,,,stim/Instruction_adaptive.png,conditions/adaptive.xlsx,test,0.6,0.6,0.6,-0.6,-0.6,right,R,,,,,0,1,1,1,0,40,40,8,,,,,,,,,,,,,,,,,,,,,,,,,,,,,,,,,,,,,,,,,,,,424.0724669000483,None,right,1,2.2640979000134394,424.5723316000076,426.39173970004776,424.5723316000076,425.8917178999982,424.5723316000076,425.8917178999982,424.5723316000076,425.8917178999982,424.5723316000076,425.8917178999982,424.5723316000076,425.8917178999982,425.8755989000201,426.3760634000064,425.8755989000201,426.3760634000064,425.8755989000201,426.3760634000064,425.8755989000201,426.3760634000064,425.8755989000201,426.3760634000064,425.8755989000201,426.3760634000064,425.8755989000201,426.3760634000064,425.8755989000201,426.3760634000064,424.5723316000076,None,426.3760634000064,427.5608170000487,1.320000000000001,427.57737230003113,None,428.3287226000102,None,,,,,,,[[1.18]],2.3800000000000017,0.6829268292682927,11011,001,2024_Jan_02_1003,MFTM_A_new1021,2021.2.3,59.95685503966175,
,,,,,,,,stim/Instruction_adaptive.png,conditions/adaptive.xlsx,test,-0.6,-0.6,-0.6,0.6,0.6,left,L,,,,,0,1,1,1,0,41,41,17,,,,,,,,,,,,,,,,,,,,,,,,,,,,,,,,,,,,,,,,,,,,428.8291089000413,None,right,0,1.7941736999782734,429.3297120000352,431.099617400032,429.3297120000352,430.59789340000134,429.3297120000352,430.59789340000134,429.3297120000352,430.59789340000134,429.3297120000352,430.59789340000134,429.3297120000352,430.59789340000134,430.58117220003624,431.0827715000487,430.58117220003624,431.0827715000487,430.58117220003624,431.0827715000487,430.58117220003624,431.0827715000487,430.58117220003624,431.0827715000487,430.58117220003624,431.0827715000487,430.58117220003624,431.0827715000487,430.58117220003624,431.0827715000487,429.3297120000352,None,431.06534590001684,432.31776960002026,1.260000000000001,432.33376050001243,None,433.0854817000218,None,,,,,,,[[1.24]],2.1900000000000013,0.6666666666666666,11011,001,2024_Jan_02_1003,MFTM_A_new1021,2021.2.3,59.95685503966175,
,,,,,,,,stim/Instruction_adaptive.png,conditions/adaptive.xlsx,test,-0.6,-0.6,-0.6,0.6,0.6,left,L,,,,,0,1,1,1,0,42,42,11,,,,,,,,,,,,,,,,,,,,,,,,,,,,,,,,,,,,,,,,,,,,433.58594720001565,None,left,1,2.029947799979709,434.0862645000452,436.04031950002536,434.0862645000452,435.5385854000342,434.0862645000452,435.5385854000342,434.0862645000452,435.5385854000342,434.0862645000452,435.5385854000342,434.0862645000452,435.5385854000342,435.505954799999,436.00653920002514,435.505954799999,436.00653920002514,435.505954799999,436.00653920002514,435.505954799999,436.00653920002514,435.505954799999,436.00653920002514,435.505954799999,436.00653920002514,435.505954799999,436.00653920002514,435.505954799999,436.00653920002514,434.0862645000452,None,436.00653920002514,437.0748603999964,1.440000000000001,437.09092170000076,None,437.8427881000098,None,,,,,,,[[1.06]],2.2600000000000016,0.6744186046511628,11011,001,2024_Jan_02_1003,MFTM_A_new1021,2021.2.3,59.95685503966175,
,,,,,,,,stim/Instruction_adaptive.png,conditions/adaptive.xlsx,test,-0.6,-0.6,-0.6,0.6,0.6,left,L,,,,,0,1,1,1,0,43,43,39,,,,,,,,,,,,,,,,,,,,,,,,,,,,,,,,,,,,,,,,,,,,438.34290180000244,None,left,1,1.7276297000353225,438.84438580001006,440.7308248000336,438.84438580001006,440.22950120002497,438.84438580001006,440.22950120002497,438.84438580001006,440.22950120002497,438.84438580001006,440.22950120002497,438.84438580001006,440.22950120002497,440.19558900000993,440.6963365999982,440.19558900000993,440.6963365999982,440.19558900000993,440.6963365999982,440.19558900000993,440.6963365999982,440.19558900000993,440.6963365999982,440.19558900000993,440.6963365999982,440.19558900000993,440.6963365999982,440.19558900000993,440.6963365999982,438.84438580001006,None,440.6963365999982,441.8313138000085,1.370000000000001,441.8479895000346,None,442.5991817000322,None,,,,,,,[[1.13]],2.3200000000000016,0.6818181818181818,11011,001,2024_Jan_02_1003,MFTM_A_new1021,2021.2.3,59.95685503966175,
,,,,,,,,stim/Instruction_adaptive.png,conditions/adaptive.xlsx,test,-0.6,-0.6,-0.6,0.6,0.6,left,L,,,,,0,1,1,1,0,44,44,99,,,,,,,,,,,,,,,,,,,,,,,,,,,,,,,,,,,,,,,,,,,,443.0999647999997,None,right,0,1.6364681999548338,443.6003641000134,445.42070600000443,443.6003641000134,444.9191615000018,443.6003641000134,444.9191615000018,443.6003641000134,444.9191615000018,443.6003641000134,444.9191615000018,443.6003641000134,444.9191615000018,444.9032353000366,445.4040237000445,444.9032353000366,445.4040237000445,444.9032353000366,445.4040237000445,444.9032353000366,445.4040237000445,444.9032353000366,445.4040237000445,444.9032353000366,445.4040237000445,444.9032353000366,445.4040237000445,444.9032353000366,445.4040237000445,443.6003641000134,None,445.4040237000445,446.5884011000162,1.320000000000001,446.60507460002555,None,447.3568340000347,None,,,,,,,[[1.18]],2.1400000000000015,0.6666666666666666,11011,001,2024_Jan_02_1003,MFTM_A_new1021,2021.2.3,59.95685503966175,
,,,,,,,,stim/Instruction_adaptive.png,conditions/adaptive.xlsx,test,0.6,0.6,0.6,-0.6,-0.6,right,R,,,,,0,1,1,1,0,45,45,24,,,,,,,,,,,,,,,,,,,,,,,,,,,,,,,,,,,,,,,,,,,,447.8575164000504,None,right,1,1.751759700011462,448.3576716000098,450.3617842000094,448.3576716000098,449.86028640001314,448.3576716000098,449.86028640001314,448.3576716000098,449.86028640001314,448.3576716000098,449.86028640001314,448.3576716000098,449.86028640001314,449.8263890000526,450.3278347000014,449.8263890000526,450.3278347000014,449.8263890000526,450.3278347000014,449.8263890000526,450.3278347000014,449.8263890000526,450.3278347000014,449.8263890000526,450.3278347000014,449.8263890000526,450.3278347000014,449.8263890000526,450.3278347000014,448.3576716000098,None,450.3278347000014,451.34607870003674,1.490000000000001,451.3620101000415,None,452.1132205000031,None,,,,,,,[[1.01]],2.2100000000000017,0.6739130434782609,11011,001,2024_Jan_02_1003,MFTM_A_new1021,2021.2.3,59.95685503966175,
,,,,,,,,stim/Instruction_adaptive.png,conditions/adaptive.xlsx,test,-0.6,-0.6,-0.6,0.6,0.6,left,L,,,,,0,1,1,1,0,46,46,61,,,,,,,,,,,,,,,,,,,,,,,,,,,,,,,,,,,,,,,,,,,,452.6153162000119,None,left,1,1.6021238000248559,453.11478920001537,455.0357022000244,453.11478920001537,454.5334771000198,453.11478920001537,454.5334771000198,453.11478920001537,454.5334771000198,453.11478920001537,454.5334771000198,453.11478920001537,454.5334771000198,454.51751299999887,455.0175877000438,454.51751299999887,455.0175877000438,454.51751299999887,455.0175877000438,454.51751299999887,455.0175877000438,454.51751299999887,455.0175877000438,454.51751299999887,455.0175877000438,454.51751299999887,455.0175877000438,454.51751299999887,455.0175877000438,453.11478920001537,None,455.0175877000438,456.1027736000251,1.420000000000001,456.1190480000223,None,456.871521699999,None,,,,,,,[[1.08]],2.2700000000000014,0.6808510638297872,11011,001,2024_Jan_02_1003,MFTM_A_new1021,2021.2.3,59.95685503966175,
,,,,,,,,stim/Instruction_adaptive.png,conditions/adaptive.xlsx,test,0.6,0.6,0.6,-0.6,-0.6,right,R,,,,,0,1,1,1,0,47,47,54,,,,,,,,,,,,,,,,,,,,,,,,,,,,,,,,,,,,,,,,,,,,457.3709654000122,None,right,1,1.355907000019215,457.8720275000087,459.7411355000222,457.8720275000087,459.2417911000084,457.8720275000087,459.2417911000084,457.8720275000087,459.2417911000084,457.8720275000087,459.2417911000084,457.8720275000087,459.2417911000084,459.20838820002973,459.70839900005376,459.20838820002973,459.70839900005376,459.20838820002973,459.70839900005376,459.20838820002973,459.70839900005376,459.20838820002973,459.70839900005376,459.20838820002973,459.70839900005376,459.20838820002973,459.70839900005376,459.20838820002973,459.70839900005376,457.8720275000087,None,459.70839900005376,460.8602580000297,1.360000000000001,460.8771986000356,None,461.62733440002194,None,,,,,,,[[1.14]],2.3200000000000016,0.6875,11011,001,2024_Jan_02_1003,MFTM_A_new1021,2021.2.3,59.95685503966175,
,,,,,,,,stim/Instruction_adaptive.png,conditions/adaptive.xlsx,test,-0.6,-0.6,-0.6,0.6,0.6,left,L,,,,,0,1,1,1,0,48,48,51,,,,,,,,,,,,,,,,,,,,,,,,,,,,,,,,,,,,,,,,,,,,462.1288820000482,None,left,1,2.2468019999796525,462.62918090005405,464.44804250000743,462.62918090005405,463.96399650000967,462.62918090005405,463.96399650000967,462.62918090005405,463.96399650000967,462.62918090005405,463.96399650000967,462.62918090005405,463.96399650000967,463.9313182000187,464.43149560003076,463.9313182000187,464.43149560003076,463.9313182000187,464.43149560003076,463.9313182000187,464.43149560003076,463.9313182000187,464.43149560003076,463.9313182000187,464.43149560003076,463.9313182000187,464.43149560003076,463.9313182000187,464.43149560003076,462.62918090005405,None,464.43149560003076,465.61746760003734,1.320000000000001,465.63302790001035,None,466.3843587000156,None,,,,,,,[[1.18]],2.3800000000000017,0.6938775510204082,11011,001,2024_Jan_02_1003,MFTM_A_new1021,2021.2.3,59.95685503966175,
,,,,,,,,stim/Instruction_adaptive.png,conditions/adaptive.xlsx,test,-0.6,-0.6,-0.6,0.6,0.6,left,L,,,,,0,1,1,1,0,49,49,53,,,,,,,,,,,,,,,,,,,,,,,,,,,,,,,,,,,,,,,,,,,,466.8861483000219,None,right,0,1.7614185999846086,467.38643690000754,469.15528870001435,467.38643690000754,468.6545796000282,467.38643690000754,468.6545796000282,467.38643690000754,468.6545796000282,467.38643690000754,468.6545796000282,467.38643690000754,468.6545796000282,468.62141630001133,469.12250390002737,468.62141630001133,469.12250390002737,468.62141630001133,469.12250390002737,468.62141630001133,469.12250390002737,468.62141630001133,469.12250390002737,468.62141630001133,469.12250390002737,468.62141630001133,469.12250390002737,468.62141630001133,469.12250390002737,467.38643690000754,None,469.12250390002737,470.3743772000307,1.260000000000001,470.39007610001136,None,471.141202000028,None,,,,,,,[[1.24]],2.2300000000000013,0.68,11011,001,2024_Jan_02_1003,MFTM_A_new1021,2021.2.3,59.95685503966175,
,,,,,,,,stim/Instruction_adaptive.png,conditions/adaptive.xlsx,test,-0.6,-0.6,-0.6,0.6,0.6,left,L,,,,,0,1,1,1,0,50,50,21,,,,,,,,,,,,,,,,,,,,,,,,,,,,,,,,,,,,,,,,,,,,471.6418209000258,None,right,0,1.4532134999753907,472.14337260002503,474.0465348000289,472.14337260002503,473.54598540003644,472.14337260002503,473.54598540003644,472.14337260002503,473.54598540003644,472.14337260002503,473.54598540003644,472.14337260002503,473.54598540003644,473.5284252000274,474.0297305000131,473.5284252000274,474.0297305000131,473.5284252000274,474.0297305000131,473.5284252000274,474.0297305000131,473.5284252000274,474.0297305000131,473.5284252000274,474.0297305000131,473.5284252000274,474.0297305000131,473.5284252000274,474.0297305000131,472.14337260002503,None,474.0297305000131,475.1318552000448,1.400000000000001,475.1474323000293,None,475.8983746000449,None,,,,,,,[[1.1]],2.0600000000000014,0.6666666666666666,11011,001,2024_Jan_02_1003,MFTM_A_new1021,2021.2.3,59.95685503966175,
,,,,,,,,stim/Instruction_adaptive.png,conditions/adaptive.xlsx,test,0.6,0.6,0.6,-0.6,-0.6,right,R,,,,,0,1,1,1,0,51,51,36,,,,,,,,,,,,,,,,,,,,,,,,,,,,,,,,,,,,,,,,,,,,476.3995578000322,None,right,1,2.1116642000270076,476.90035200002603,478.98705740005244,476.90035200002603,478.48568900005193,476.90035200002603,478.48568900005193,476.90035200002603,478.48568900005193,476.90035200002603,478.48568900005193,476.90035200002603,478.48568900005193,478.4697645000415,478.97068570001284,478.4697645000415,478.97068570001284,478.4697645000415,478.97068570001284,478.4697645000415,478.97068570001284,478.4697645000415,478.97068570001284,478.4697645000415,478.97068570001284,478.4697645000415,478.97068570001284,478.4697645000415,478.97068570001284,476.90035200002603,None,478.97068570001284,None,1.5800000000000012,479.9046762000071,None,480.6557921000058,None,,,,,,,[[0.92]],2.1200000000000014,0.6730769230769231,11011,001,2024_Jan_02_1003,MFTM_A_new1021,2021.2.3,59.95685503966175,
,,,,,,,,stim/Instruction_adaptive.png,conditions/adaptive.xlsx,test,0.6,0.6,0.6,-0.6,-0.6,right,R,,,,,0,1,1,1,0,52,52,50,,,,,,,,,,,,,,,,,,,,,,,,,,,,,,,,,,,,,,,,,,,,481.1563610000303,None,right,1,1.138823000015691,481.65720150002744,483.67668620002223,481.65720150002744,483.1759507000097,481.65720150002744,483.1759507000097,481.65720150002744,483.1759507000097,481.65720150002744,483.1759507000097,481.65720150002744,483.1759507000097,483.14262820000295,483.6431114000152,483.14262820000295,483.6431114000152,483.14262820000295,483.6431114000152,483.14262820000295,483.6431114000152,483.14262820000295,483.6431114000152,483.14262820000295,483.6431114000152,483.14262820000295,483.6431114000152,483.14262820000295,483.6431114000152,481.65720150002744,None,483.6431114000152,484.6456084000529,1.5100000000000011,484.6613710000529,None,485.4125989000313,None,,,,,,,[[0.99]],2.1700000000000017,0.6792452830188679,11011,001,2024_Jan_02_1003,MFTM_A_new1021,2021.2.3,59.95685503966175,
,,,,,,,,stim/Instruction_adaptive.png,conditions/adaptive.xlsx,test,-0.6,-0.6,-0.6,0.6,0.6,left,L,,,,,0,1,1,1,0,53,53,73,,,,,,,,,,,,,,,,,,,,,,,,,,,,,,,,,,,,,,,,,,,,485.91423180000857,None,left,1,1.7740157999796793,486.413956400007,488.38483980001183,486.413956400007,487.88400230003754,486.413956400007,487.88400230003754,486.413956400007,487.88400230003754,486.413956400007,487.88400230003754,486.413956400007,487.88400230003754,487.86640110000735,488.36771440005396,487.86640110000735,488.36771440005396,487.86640110000735,488.36771440005396,487.86640110000735,488.36771440005396,487.86640110000735,488.36771440005396,487.86640110000735,488.36771440005396,487.86640110000735,488.36771440005396,487.86640110000735,488.36771440005396,486.413956400007,None,488.36771440005396,None,1.460000000000001,489.41907930001616,None,490.16998000000603,None,,,,,,,[[1.04]],2.2300000000000013,0.6851851851851852,11011,001,2024_Jan_02_1003,MFTM_A_new1021,2021.2.3,59.95685503966175,
,,,,,,,,stim/Instruction_adaptive.png,conditions/adaptive.xlsx,test,-0.6,-0.6,-0.6,0.6,0.6,left,L,,,,,0,1,1,1,0,54,54,89,,,,,,,,,,,,,,,,,,,,,,,,,,,,,,,,,,,,,,,,,,,,490.6708103000419,None,left,1,1.5691493999911472,491.17128060001414,493.07389990001684,491.17128060001414,492.5735502000316,491.17128060001414,492.5735502000316,491.17128060001414,492.5735502000316,491.17128060001414,492.5735502000316,491.17128060001414,492.5735502000316,492.55643019999843,493.0572097999975,492.55643019999843,493.0572097999975,492.55643019999843,493.0572097999975,492.55643019999843,493.0572097999975,492.55643019999843,493.0572097999975,492.55643019999843,493.0572097999975,492.55643019999843,493.0572097999975,492.55643019999843,493.0572097999975,491.17128060001414,None,493.0572097999975,494.1590833000373,1.400000000000001,494.17558060004376,None,494.9277139000478,None,,,,,,,[[1.1]],2.2800000000000016,0.6909090909090909,11011,001,2024_Jan_02_1003,MFTM_A_new1021,2021.2.3,59.95685503966175,
,,,,,,,,stim/Instruction_adaptive.png,conditions/adaptive.xlsx,test,0.6,0.6,0.6,-0.6,-0.6,right,R,,,,,0,1,1,1,0,55,55,30,,,,,,,,,,,,,,,,,,,,,,,,,,,,,,,,,,,,,,,,,,,,495.42819190002047,None,right,1,1.8518666999880224,495.9285276000155,497.7808487000293,495.9285276000155,497.2805453000474,495.9285276000155,497.2805453000474,495.9285276000155,497.2805453000474,495.9285276000155,497.2805453000474,495.9285276000155,497.2805453000474,497.26384070003405,497.7643125000177,497.26384070003405,497.7643125000177,497.26384070003405,497.7643125000177,497.26384070003405,497.7643125000177,497.26384070003405,497.7643125000177,497.26384070003405,497.7643125000177,497.26384070003405,497.7643125000177,497.26384070003405,497.7643125000177,495.9285276000155,None,497.7643125000177,498.91649289999623,1.350000000000001,498.9324822000344,None,499.6841834000079,None,,,,,,,[[1.15]],2.3200000000000016,0.6964285714285714,11011,001,2024_Jan_02_1003,MFTM_A_new1021,2021.2.3,59.95685503966175,
,,,,,,,,stim/Instruction_adaptive.png,conditions/adaptive.xlsx,test,-0.6,-0.6,-0.6,0.6,0.6,left,L,,,,,0,1,1,1,0,56,56,41,,,,,,,,,,,,,,,,,,,,,,,,,,,,,,,,,,,,,,,,,,,,500.1849679000443,None,left,1,1.7268445999943651,500.6852846000111,502.5045430000173,500.6852846000111,502.02131989999907,500.6852846000111,502.02131989999907,500.6852846000111,502.02131989999907,500.6852846000111,502.02131989999907,500.6852846000111,502.02131989999907,501.98722040001303,502.4885294000269,501.98722040001303,502.4885294000269,501.98722040001303,502.4885294000269,501.98722040001303,502.4885294000269,501.98722040001303,502.4885294000269,501.98722040001303,502.4885294000269,501.98722040001303,502.4885294000269,501.98722040001303,502.4885294000269,500.6852846000111,None,502.4885294000269,503.6735697000404,1.320000000000001,503.6896241000504,None,504.4408526000334,None,,,,,,,[[1.18]],2.370000000000002,0.7017543859649122,11011,001,2024_Jan_02_1003,MFTM_A_new1021,2021.2.3,59.95685503966175,
,,,,,,,,stim/Instruction_adaptive.png,conditions/adaptive.xlsx,test,-0.6,-0.6,-0.6,0.6,0.6,left,L,,,,,0,1,1,1,0,57,57,81,,,,,,,,,,,,,,,,,,,,,,,,,,,,,,,,,,,,,,,,,,,,504.94210860005114,None,right,0,1.8250108999782242,505.4430546000367,507.21241960005136,505.4430546000367,506.72838430001866,505.4430546000367,506.72838430001866,505.4430546000367,506.72838430001866,505.4430546000367,506.72838430001866,505.4430546000367,506.72838430001866,506.69449640001403,507.19565080001485,506.69449640001403,507.19565080001485,506.69449640001403,507.19565080001485,506.69449640001403,507.19565080001485,506.69449640001403,507.19565080001485,506.69449640001403,507.19565080001485,506.69449640001403,507.19565080001485,506.69449640001403,507.19565080001485,505.4430546000367,None,507.19565080001485,508.43082480004523,1.270000000000001,508.4466117999982,None,509.19849030004116,None,,,,,,,[[1.23]],2.2400000000000015,0.6896551724137931,11011,001,2024_Jan_02_1003,MFTM_A_new1021,2021.2.3,59.95685503966175,
,,,,,,,,stim/Instruction_adaptive.png,conditions/adaptive.xlsx,test,0.6,0.6,0.6,-0.6,-0.6,right,R,,,,,0,1,1,1,0,58,58,64,,,,,,,,,,,,,,,,,,,,,,,,,,,,,,,,,,,,,,,,,,,,509.6994312000461,None,right,1,2.165394799958449,510.1990187000483,512.1020883000456,510.1990187000483,511.60196830000496,510.1990187000483,511.60196830000496,510.1990187000483,511.60196830000496,510.1990187000483,511.60196830000496,510.1990187000483,511.60196830000496,511.5679977000109,512.0687429000391,511.5679977000109,512.0687429000391,511.5679977000109,512.0687429000391,511.5679977000109,512.0687429000391,511.5679977000109,512.0687429000391,511.5679977000109,512.0687429000391,511.5679977000109,512.0687429000391,511.5679977000109,512.0687429000391,510.1990187000483,None,512.0687429000391,513.1871390000451,1.390000000000001,513.2036762000062,None,513.9547338000266,None,,,,,,,[[1.11]],2.2800000000000016,0.6949152542372882,11011,001,2024_Jan_02_1003,MFTM_A_new1021,2021.2.3,59.95685503966175,
,,,,,,,,stim/Instruction_adaptive.png,conditions/adaptive.xlsx,test,0.6,0.6,0.6,-0.6,-0.6,right,R,,,,,0,1,1,1,0,59,59,40,,,,,,,,,,,,,,,,,,,,,,,,,,,,,,,,,,,,,,,,,,,,514.456178500026,None,right,1,2.0709769999957643,514.9572844000068,516.8099881000235,514.9572844000068,516.3099128000322,514.9572844000068,516.3099128000322,514.9572844000068,516.3099128000322,514.9572844000068,516.3099128000322,514.9572844000068,516.3099128000322,516.2929747000453,516.7931303000078,516.2929747000453,516.7931303000078,516.2929747000453,516.7931303000078,516.2929747000453,516.7931303000078,516.2929747000453,516.7931303000078,516.2929747000453,516.7931303000078,516.2929747000453,516.7931303000078,516.2929747000453,516.7931303000078,514.9572844000068,None,516.7931303000078,517.944733900018,1.350000000000001,517.9610871000332,None,518.7124121000525,None,,,,,,,[[1.15]],2.330000000000002,0.7,11011,001,2024_Jan_02_1003,MFTM_A_new1021,2021.2.3,59.95685503966175,
,,,,,,,,stim/Instruction_adaptive.png,conditions/adaptive.xlsx,test,0.6,0.6,0.6,-0.6,-0.6,right,R,,,,,0,1,1,1,0,60,60,26,,,,,,,,,,,,,,,,,,,,,,,,,,,,,,,,,,,,,,,,,,,,519.2127288000192,None,right,1,1.514559899980668,519.7140426000115,521.5333697000169,519.7140426000115,521.0331874000258,519.7140426000115,521.0331874000258,519.7140426000115,521.0331874000258,519.7140426000115,521.0331874000258,519.7140426000115,521.0331874000258,520.9992950000451,521.5002080000122,520.9992950000451,521.5002080000122,520.9992950000451,521.5002080000122,520.9992950000451,521.5002080000122,520.9992950000451,521.5002080000122,520.9992950000451,521.5002080000122,520.9992950000451,521.5002080000122,520.9992950000451,521.5002080000122,519.7140426000115,None,521.5002080000122,522.7010069000535,1.310000000000001,522.7177203000174,None,523.469651899999,None,,,,,,,[[1.19]],2.370000000000002,0.7049180327868853,11011,001,2024_Jan_02_1003,MFTM_A_new1021,2021.2.3,59.95685503966175,
,,,,,,,,stim/Instruction_adaptive.png,conditions/adaptive.xlsx,test,-0.6,-0.6,-0.6,0.6,0.6,left,L,,,,,0,1,1,1,0,61,61,27,,,,,,,,,,,,,,,,,,,,,,,,,,,,,,,,,,,,,,,,,,,,523.9706044000341,None,left,1,1.5892381999874488,524.4711409000447,526.2571202000254,524.4711409000447,525.7568848000374,524.4711409000447,525.7568848000374,524.4711409000447,525.7568848000374,524.4711409000447,525.7568848000374,524.4711409000447,525.7568848000374,525.7224291000166,526.2231245000148,525.7224291000166,526.2231245000148,525.7224291000166,526.2231245000148,525.7224291000166,526.2231245000148,525.7224291000166,526.2231245000148,525.7224291000166,526.2231245000148,525.7224291000166,526.2231245000148,525.7224291000166,526.2231245000148,524.4711409000447,None,526.2231245000148,527.4592940000002,1.270000000000001,527.4760484000435,None,528.2268470000126,None,,,,,,,[[1.23]],2.4000000000000017,0.7096774193548387,11011,001,2024_Jan_02_1003,MFTM_A_new1021,2021.2.3,59.95685503966175,
,,,,,,,,stim/Instruction_adaptive.png,conditions/adaptive.xlsx,test,0.6,0.6,0.6,-0.6,-0.6,right,R,,,,,0,1,1,1,0,62,62,76,,,,,,,,,,,,,,,,,,,,,,,,,,,,,,,,,,,,,,,,,,,,528.728082900052,None,right,1,1.66398890002165,529.2285871000495,530.9807642000378,529.2285871000495,530.4799350000103,529.2285871000495,530.4799350000103,529.2285871000495,530.4799350000103,529.2285871000495,530.4799350000103,529.2285871000495,530.4799350000103,530.463393300015,530.9644458999974,530.463393300015,530.9644458999974,530.463393300015,530.9644458999974,530.463393300015,530.9644458999974,530.463393300015,530.9644458999974,530.463393300015,530.9644458999974,530.463393300015,530.9644458999974,530.463393300015,530.9644458999974,529.2285871000495,None,530.9644458999974,532.2150596000138,1.2500000000000009,532.2321736000013,None,532.9843853000202,None,,,,,,,[[1.25]],2.4400000000000017,0.7142857142857143,11011,001,2024_Jan_02_1003,MFTM_A_new1021,2021.2.3,59.95685503966175,
,,,,,,,,stim/Instruction_adaptive.png,conditions/adaptive.xlsx,test,0.6,0.6,0.6,-0.6,-0.6,right,R,,,,,0,1,1,1,0,63,63,88,,,,,,,,,,,,,,,,,,,,,,,,,,,,,,,,,,,,,,,,,,,,533.4845449000131,None,right,1,1.434869799995795,533.9853869000217,535.7044528000406,533.9853869000217,535.2028939000447,533.9853869000217,535.2028939000447,533.9853869000217,535.2028939000447,533.9853869000217,535.2028939000447,533.9853869000217,535.2028939000447,535.1701760000433,535.6711541000404,535.1701760000433,535.6711541000404,535.1701760000433,535.6711541000404,535.1701760000433,535.6711541000404,535.1701760000433,535.6711541000404,535.1701760000433,535.6711541000404,535.1701760000433,535.6711541000404,535.1701760000433,535.6711541000404,533.9853869000217,None,535.6711541000404,536.9729333000141,1.2100000000000009,536.9887793000089,None,537.7400648000184,None,,,,,,,[[1.29]],2.4800000000000018,0.71875,11011,001,2024_Jan_02_1003,MFTM_A_new1021,2021.2.3,59.95685503966175,
,,,,,,,,stim/Instruction_adaptive.png,conditions/adaptive.xlsx,test,0.6,0.6,0.6,-0.6,-0.6,right,R,,,,,0,1,1,1,0,64,64,16,,,,,,,,,,,,,,,,,,,,,,,,,,,,,,,,,,,,,,,,,,,,538.2416017000214,None,right,1,1.3589979999815114,538.7416300000041,540.4280755000073,538.7416300000041,539.9275021000067,538.7416300000041,539.9275021000067,538.7416300000041,539.9275021000067,538.7416300000041,539.9275021000067,538.7416300000041,539.9275021000067,539.9106260000262,540.4114699000493,539.9106260000262,540.4114699000493,539.9106260000262,540.4114699000493,539.9106260000262,540.4114699000493,539.9106260000262,540.4114699000493,539.9106260000262,540.4114699000493,539.9106260000262,540.4114699000493,539.9106260000262,540.4114699000493,538.7416300000041,None,540.4114699000493,541.7301697000512,1.1800000000000008,541.7459409000003,None,542.4977472000173,None,,,,,,,[[1.32]],2.5100000000000016,0.7230769230769231,11011,001,2024_Jan_02_1003,MFTM_A_new1021,2021.2.3,59.95685503966175,
,,,,,,,,stim/Instruction_adaptive.png,conditions/adaptive.xlsx,test,0.6,0.6,0.6,-0.6,-0.6,right,R,,,,,0,1,1,1,0,65,65,68,,,,,,,,,,,,,,,,,,,,,,,,,,,,,,,,,,,,,,,,,,,,542.9984745000256,None,right,1,1.5929466999950819,543.4991890000529,545.1517805000185,543.4991890000529,544.6502570000011,543.4991890000529,544.6502570000011,543.4991890000529,544.6502570000011,543.4991890000529,544.6502570000011,543.4991890000529,544.6502570000011,544.6338246000232,545.1350531000062,544.6338246000232,545.1350531000062,544.6338246000232,545.1350531000062,544.6338246000232,545.1350531000062,544.6338246000232,545.1350531000062,544.6338246000232,545.1350531000062,544.6338246000232,545.1350531000062,544.6338246000232,545.1350531000062,543.4991890000529,None,545.1350531000062,546.4866214000504,1.1500000000000008,546.5037611000007,None,547.25534230005,None,,,,,,,[1.34060606],2.540000000000002,0.7272727272727273,11011,001,2024_Jan_02_1003,MFTM_A_new1021,2021.2.3,59.95685503966175,
,,,,,,,,stim/Instruction_adaptive.png,conditions/adaptive.xlsx,test,-0.6,-0.6,-0.6,0.6,0.6,left,L,,,,,0,1,1,1,0,66,66,63,,,,,,,,,,,,,,,,,,,,,,,,,,,,,,,,,,,,,,,,,,,,547.7557048000162,None,left,1,1.5240217999671586,548.2562171000172,549.892399400007,548.2562171000172,549.3915451000212,548.2562171000172,549.3915451000212,548.2562171000172,549.3915451000212,548.2562171000172,549.3915451000212,548.2562171000172,549.3915451000212,549.3743546000333,549.8752965000458,549.3743546000333,549.8752965000458,549.3743546000333,549.8752965000458,549.3743546000333,549.8752965000458,549.3743546000333,549.8752965000458,549.3743546000333,549.8752965000458,549.3743546000333,549.8752965000458,549.3743546000333,549.8752965000458,548.2562171000172,None,549.8752965000458,None,1.1300000000000008,551.2273412000504,None,551.9786651000031,None,,,,,,,[1.34104478],2.570000000000002,0.7313432835820896,11011,001,2024_Jan_02_1003,MFTM_A_new1021,2021.2.3,59.95685503966175,
,,,,,,,,stim/Instruction_adaptive.png,conditions/adaptive.xlsx,test,0.6,0.6,0.6,-0.6,-0.6,right,R,,,,,0,1,1,1,0,67,67,74,,,,,,,,,,,,,,,,,,,,,,,,,,,,,,,,,,,,,,,,,,,,552.4790306000505,None,right,1,1.6248770999955013,552.9792733000359,554.5982137000537,552.9792733000359,554.098338700016,552.9792733000359,554.098338700016,552.9792733000359,554.098338700016,552.9792733000359,554.098338700016,552.9792733000359,554.098338700016,554.0641779000289,554.5654579999973,554.0641779000289,554.5654579999973,554.0641779000289,554.5654579999973,554.0641779000289,554.5654579999973,554.0641779000289,554.5654579999973,554.0641779000289,554.5654579999973,554.0641779000289,554.5654579999973,554.0641779000289,554.5654579999973,552.9792733000359,None,554.5654579999973,555.9183945000404,1.1100000000000008,555.9338099000161,None,556.6852613000083,None,,,,,,,[1.34176471],2.600000000000002,0.7352941176470589,11011,001,2024_Jan_02_1003,MFTM_A_new1021,2021.2.3,59.95685503966175,
,,,,,,,,stim/Instruction_adaptive.png,conditions/adaptive.xlsx,test,-0.6,-0.6,-0.6,0.6,0.6,left,L,,,,,0,1,1,1,0,68,68,67,,,,,,,,,,,,,,,,,,,,,,,,,,,,,,,,,,,,,,,,,,,,557.1857261999976,None,right,0,1.630050499981735,557.6861722000176,559.2897414000472,557.6861722000176,558.7885821000091,557.6861722000176,558.7885821000091,557.6861722000176,558.7885821000091,557.6861722000176,558.7885821000091,557.6861722000176,558.7885821000091,558.7548455000506,559.2560449000448,558.7548455000506,559.2560449000448,558.7548455000506,559.2560449000448,558.7548455000506,559.2560449000448,558.7548455000506,559.2560449000448,558.7548455000506,559.2560449000448,558.7548455000506,559.2560449000448,558.7548455000506,559.2560449000448,557.6861722000176,None,559.2560449000448,560.6080415000324,1.0900000000000007,560.6237434000359,None,561.3761151000508,None,,,,,,,[1.34275362],2.520000000000002,0.7246376811594203,11011,001,2024_Jan_02_1003,MFTM_A_new1021,2021.2.3,59.95685503966175,
,,,,,,,,stim/Instruction_adaptive.png,conditions/adaptive.xlsx,test,-0.6,-0.6,-0.6,0.6,0.6,left,L,,,,,0,1,1,1,0,69,69,7,,,,,,,,,,,,,,,,,,,,,,,,,,,,,,,,,,,,,,,,,,,,561.8764652000391,None,left,1,1.2750408999854699,562.3771658000187,564.0289459000342,562.3771658000187,563.5283866000245,562.3771658000187,563.5283866000245,562.3771658000187,563.5283866000245,562.3771658000187,563.5283866000245,562.3771658000187,563.5283866000245,563.5122822000412,564.0129115000018,563.5122822000412,564.0129115000018,563.5122822000412,564.0129115000018,563.5122822000412,564.0129115000018,563.5122822000412,564.0129115000018,563.5122822000412,564.0129115000018,563.5122822000412,564.0129115000018,563.5122822000412,564.0129115000018,562.3771658000187,None,564.0129115000018,565.3643770000199,1.1500000000000008,565.3816695000278,None,566.1330475000432,None,,,,,,,[1.34285714],2.5500000000000016,0.7285714285714285,11011,001,2024_Jan_02_1003,MFTM_A_new1021,2021.2.3,59.95685503966175,
,,,,,,,,stim/Instruction_adaptive.png,conditions/adaptive.xlsx,test,0.6,0.6,0.6,-0.6,-0.6,right,R,,,,,0,1,1,1,0,70,70,80,,,,,,,,,,,,,,,,,,,,,,,,,,,,,,,,,,,,,,,,,,,,566.6335161000025,None,right,1,1.5745732000214048,567.1338304000092,568.7699560000328,567.1338304000092,568.2686478000251,567.1338304000092,568.2686478000251,567.1338304000092,568.2686478000251,567.1338304000092,568.2686478000251,567.1338304000092,568.2686478000251,568.2352317000041,568.7359909000224,568.2352317000041,568.7359909000224,568.2352317000041,568.7359909000224,568.2352317000041,568.7359909000224,568.2352317000041,568.7359909000224,568.2352317000041,568.7359909000224,568.2352317000041,568.7359909000224,568.2352317000041,568.7359909000224,567.1338304000092,None,568.7359909000224,570.0880898000323,1.1200000000000008,570.1053278000327,None,570.8566417000256,None,,,,,,,[1.34338028],2.580000000000002,0.7323943661971831,11011,001,2024_Jan_02_1003,MFTM_A_new1021,2021.2.3,59.95685503966175,
,,,,,,,,stim/Instruction_adaptive.png,conditions/adaptive.xlsx,test,-0.6,-0.6,-0.6,0.6,0.6,left,L,,,,,0,1,1,1,0,71,71,95,,,,,,,,,,,,,,,,,,,,,,,,,,,,,,,,,,,,,,,,,,,,571.3571672000107,None,left,1,1.3783630999969319,571.8578187000239,573.4598364999983,571.8578187000239,572.959971000033,571.8578187000239,572.959971000033,571.8578187000239,572.959971000033,571.8578187000239,572.959971000033,571.8578187000239,572.959971000033,572.9432594000245,573.4436079000006,572.9432594000245,573.4436079000006,572.9432594000245,573.4436079000006,572.9432594000245,573.4436079000006,572.9432594000245,573.4436079000006,572.9432594000245,573.4436079000006,572.9432594000245,573.4436079000006,572.9432594000245,573.4436079000006,571.8578187000239,None,573.4436079000006,574.7959970000084,1.1000000000000008,574.8116641000379,None,575.5634006000473,None,,,,,,,[1.34416667],2.600000000000002,0.7361111111111112,11011,001,2024_Jan_02_1003,MFTM_A_new1021,2021.2.3,59.95685503966175,
,,,,,,,,stim/Instruction_adaptive.png,conditions/adaptive.xlsx,test,-0.6,-0.6,-0.6,0.6,0.6,left,L,,,,,0,1,1,1,0,72,72,71,,,,,,,,,,,,,,,,,,,,,,,,,,,,,,,,,,,,,,,,,,,,576.064797900035,None,left,1,1.8955823000287637,576.5645067000296,578.16744260001,576.5645067000296,577.6666779000079,576.5645067000296,577.6666779000079,576.5645067000296,577.6666779000079,576.5645067000296,577.6666779000079,576.5645067000296,577.6666779000079,577.6330890000099,578.1332390000462,577.6330890000099,578.1332390000462,577.6330890000099,578.1332390000462,577.6330890000099,578.1332390000462,577.6330890000099,578.1332390000462,577.6330890000099,578.1332390000462,577.6330890000099,578.1332390000462,577.6330890000099,578.1332390000462,576.5645067000296,None,578.1332390000462,579.485847300035,1.0900000000000007,579.5019433000125,None,580.2536843999987,None,,,,,,,[1.34506849],2.6300000000000017,0.7397260273972602,11011,001,2024_Jan_02_1003,MFTM_A_new1021,2021.2.3,59.95685503966175,
,,,,,,,,stim/Instruction_adaptive.png,conditions/adaptive.xlsx,test,0.6,0.6,0.6,-0.6,-0.6,right,R,,,,,0,1,1,1,0,73,73,12,,,,,,,,,,,,,,,,,,,,,,,,,,,,,,,,,,,,,,,,,,,,580.7545027000015,None,right,1,1.318215000035707,581.2546987000387,582.8236518000485,581.2546987000387,582.3240255000419,581.2546987000387,582.3240255000419,581.2546987000387,582.3240255000419,581.2546987000387,582.3240255000419,581.2546987000387,582.3240255000419,582.2894307000097,582.7902493000147,582.2894307000097,582.7902493000147,582.2894307000097,582.7902493000147,582.2894307000097,582.7902493000147,582.2894307000097,582.7902493000147,582.2894307000097,582.7902493000147,582.2894307000097,582.7902493000147,582.2894307000097,582.7902493000147,581.2546987000387,None,582.7902493000147,584.1436337000341,1.0600000000000007,584.1589064000291,None,584.9107555000228,None,,,,,,,[1.34635135],2.660000000000002,0.7432432432432432,11011,001,2024_Jan_02_1003,MFTM_A_new1021,2021.2.3,59.95685503966175,
,,,,,,,,stim/Instruction_adaptive.png,conditions/adaptive.xlsx,test,0.6,0.6,0.6,-0.6,-0.6,right,R,,,,,0,1,1,1,0,74,74,82,,,,,,,,,,,,,,,,,,,,,,,,,,,,,,,,,,,,,,,,,,,,585.4116178000113,None,left,0,1.5327925000456162,585.9116248000064,587.4642672000336,585.9116248000064,586.9636919000186,585.9116248000064,586.9636919000186,585.9116248000064,586.9636919000186,585.9116248000064,586.9636919000186,585.9116248000064,586.9636919000186,586.9304097000277,587.4305141000077,586.9304097000277,587.4305141000077,586.9304097000277,587.4305141000077,586.9304097000277,587.4305141000077,586.9304097000277,587.4305141000077,586.9304097000277,587.4305141000077,586.9304097000277,587.4305141000077,586.9304097000277,587.4305141000077,585.9116248000064,None,587.4305141000077,588.7830027000164,1.0400000000000007,588.7990816000383,None,589.5507402000367,None,,,,,,,[1.34786667],2.580000000000002,0.7333333333333333,11011,001,2024_Jan_02_1003,MFTM_A_new1021,2021.2.3,59.95685503966175,
,,,,,,,,stim/Instruction_adaptive.png,conditions/adaptive.xlsx,test,0.6,0.6,0.6,-0.6,-0.6,right,R,,,,,0,1,1,1,0,75,75,52,,,,,,,,,,,,,,,,,,,,,,,,,,,,,,,,,,,,,,,,,,,,590.0509579000063,None,right,1,1.7234752000076696,590.5531078000204,592.154811000044,590.5531078000204,591.6538521000184,590.5531078000204,591.6538521000184,590.5531078000204,591.6538521000184,590.5531078000204,591.6538521000184,590.5531078000204,591.6538521000184,591.6364506000536,592.137973600009,591.6364506000536,592.137973600009,591.6364506000536,592.137973600009,591.6364506000536,592.137973600009,591.6364506000536,592.137973600009,591.6364506000536,592.137973600009,591.6364506000536,592.137973600009,591.6364506000536,592.137973600009,590.5531078000204,None,592.137973600009,593.4904899999965,1.1000000000000008,593.5059513000306,None,594.2578586000018,None,,,,,,,[1.34855263],2.610000000000002,0.7368421052631579,11011,001,2024_Jan_02_1003,MFTM_A_new1021,2021.2.3,59.95685503966175,
,,,,,,,,stim/Instruction_adaptive.png,conditions/adaptive.xlsx,test,-0.6,-0.6,-0.6,0.6,0.6,left,L,,,,,0,1,1,1,0,76,76,23,,,,,,,,,,,,,,,,,,,,,,,,,,,,,,,,,,,,,,,,,,,,594.7590899000061,None,left,1,1.6969718000036664,595.259366400016,596.845083400025,595.259366400016,596.3444311000057,595.259366400016,596.3444311000057,595.259366400016,596.3444311000057,595.259366400016,596.3444311000057,595.259366400016,596.3444311000057,596.3278277000063,596.8279752000235,596.3278277000063,596.8279752000235,596.3278277000063,596.8279752000235,596.3278277000063,596.8279752000235,596.3278277000063,596.8279752000235,596.3278277000063,596.8279752000235,596.3278277000063,596.8279752000235,596.3278277000063,596.8279752000235,595.259366400016,None,596.8279752000235,598.1797002000385,1.0800000000000007,598.1964204999967,None,598.9482106000069,None,,,,,,,[1.34948052],2.6300000000000017,0.7402597402597403,11011,001,2024_Jan_02_1003,MFTM_A_new1021,2021.2.3,59.95685503966175,
,,,,,,,,stim/Instruction_adaptive.png,conditions/adaptive.xlsx,test,0.6,0.6,0.6,-0.6,-0.6,right,R,,,,,0,1,1,1,0,77,77,20,,,,,,,,,,,,,,,,,,,,,,,,,,,,,,,,,,,,,,,,,,,,599.4489582000533,None,right,1,1.070617499994114,599.9496620999998,601.5178472000407,599.9496620999998,601.0181233000476,599.9496620999998,601.0181233000476,599.9496620999998,601.0181233000476,599.9496620999998,601.0181233000476,599.9496620999998,601.0181233000476,600.9846773000318,601.4850940000033,600.9846773000318,601.4850940000033,600.9846773000318,601.4850940000033,600.9846773000318,601.4850940000033,600.9846773000318,601.4850940000033,600.9846773000318,601.4850940000033,600.9846773000318,601.4850940000033,600.9846773000318,601.4850940000033,599.9496620999998,None,601.4850940000033,602.8371453,1.0600000000000007,602.8697197000147,None,603.6215845000115,None,,,,,,,[1.35064103],2.660000000000002,0.7435897435897436,11011,001,2024_Jan_02_1003,MFTM_A_new1021,2021.2.3,59.95685503966175,
,,,,,,,,stim/Instruction_adaptive.png,conditions/adaptive.xlsx,test,-0.6,-0.6,-0.6,0.6,0.6,left,L,,,,,0,1,1,1,0,78,78,5,,,,,,,,,,,,,,,,,,,,,,,,,,,,,,,,,,,,,,,,,,,,604.1216959000449,None,left,1,1.3974647999857552,604.623425400001,606.1748212000239,604.623425400001,605.6741321000154,604.623425400001,605.6741321000154,604.623425400001,605.6741321000154,604.623425400001,605.6741321000154,604.623425400001,605.6741321000154,605.6413177000359,606.1414786000387,605.6413177000359,606.1414786000387,605.6413177000359,606.1414786000387,605.6413177000359,606.1414786000387,605.6413177000359,606.1414786000387,605.6413177000359,606.1414786000387,605.6413177000359,606.1414786000387,605.6413177000359,606.1414786000387,604.623425400001,None,606.1414786000387,607.4939885000349,1.0400000000000007,607.5271267000353,None,608.2787592000095,None,,,,,,,[1.35202532],2.680000000000002,0.7468354430379747,11011,001,2024_Jan_02_1003,MFTM_A_new1021,2021.2.3,59.95685503966175,
,,,,,,,,stim/Instruction_adaptive.png,conditions/adaptive.xlsx,test,0.6,0.6,0.6,-0.6,-0.6,right,R,,,,,0,1,1,1,0,79,79,4,,,,,,,,,,,,,,,,,,,,,,,,,,,,,,,,,,,,,,,,,,,,608.7794309000019,None,right,1,0.8767481000395492,609.2795010000118,610.81565340003,609.2795010000118,610.3143064000178,609.2795010000118,610.3143064000178,609.2795010000118,610.3143064000178,609.2795010000118,610.3143064000178,609.2795010000118,610.3143064000178,610.2985445000231,610.7990454000537,610.2985445000231,610.7990454000537,610.2985445000231,610.7990454000537,610.2985445000231,610.7990454000537,610.2985445000231,610.7990454000537,610.2985445000231,610.7990454000537,610.2985445000231,610.7990454000537,610.2985445000231,610.7990454000537,609.2795010000118,None,610.7990454000537,None,1.0300000000000007,612.1673668000149,None,612.9179422000307,None,,,,,,,[1.3535],2.7100000000000017,0.75,11011,001,2024_Jan_02_1003,MFTM_A_new1021,2021.2.3,59.95685503966175,
,,,,,,,,stim/Instruction_adaptive.png,conditions/adaptive.xlsx,test,0.6,0.6,0.6,-0.6,-0.6,right,R,,,,,0,1,1,1,0,80,80,86,,,,,,,,,,,,,,,,,,,,,,,,,,,,,,,,,,,,,,,,,,,,613.4196625000332,None,right,1,0.9725416000001132,613.9196590000065,615.4393532000249,613.9196590000065,614.9385547999991,613.9196590000065,614.9385547999991,613.9196590000065,614.9385547999991,613.9196590000065,614.9385547999991,613.9196590000065,614.9385547999991,614.9209631000413,615.4222926000366,614.9209631000413,615.4222926000366,614.9209631000413,615.4222926000366,614.9209631000413,615.4222926000366,614.9209631000413,615.4222926000366,614.9209631000413,615.4222926000366,614.9209631000413,615.4222926000366,614.9209631000413,615.4222926000366,613.9196590000065,None,615.4222926000366,None,1.0100000000000007,616.7908102000365,None,617.5428788000136,None,,,,,,,[1.35518519],2.730000000000002,0.7530864197530864,11011,001,2024_Jan_02_1003,MFTM_A_new1021,2021.2.3,59.95685503966175,
,,,,,,,,stim/Instruction_adaptive.png,conditions/adaptive.xlsx,test,-0.6,-0.6,-0.6,0.6,0.6,left,L,,,,,0,1,1,1,0,81,81,25,,,,,,,,,,,,,,,,,,,,,,,,,,,,,,,,,,,,,,,,,,,,618.0427223000443,None,left,1,1.3896260000183247,618.543138900015,620.0456686000107,618.543138900015,619.545623700018,618.543138900015,619.545623700018,618.543138900015,619.545623700018,618.543138900015,619.545623700018,618.543138900015,619.545623700018,619.5120372000383,620.0120645000134,619.5120372000383,620.0120645000134,619.5120372000383,620.0120645000134,619.5120372000383,620.0120645000134,619.5120372000383,620.0120645000134,619.5120372000383,620.0120645000134,619.5120372000383,620.0120645000134,619.5120372000383,620.0120645000134,618.543138900015,None,620.0120645000134,621.3806411999976,0.9900000000000007,621.3974097000319,None,622.1491970000206,None,,,,,,,[1.35707317],2.7500000000000018,0.7560975609756098,11011,001,2024_Jan_02_1003,MFTM_A_new1021,2021.2.3,59.95685503966175,
,,,,,,,,stim/Instruction_adaptive.png,conditions/adaptive.xlsx,test,-0.6,-0.6,-0.6,0.6,0.6,left,L,,,,,0,1,1,1,0,82,82,37,,,,,,,,,,,,,,,,,,,,,,,,,,,,,,,,,,,,,,,,,,,,622.6495395000093,None,right,0,1.3174267000285909,623.1510581000475,624.6357539000455,623.1510581000475,624.1360473000095,623.1510581000475,624.1360473000095,623.1510581000475,624.1360473000095,623.1510581000475,624.1360473000095,623.1510581000475,624.1360473000095,624.1182722000522,624.6195537000312,624.1182722000522,624.6195537000312,624.1182722000522,624.6195537000312,624.1182722000522,624.6195537000312,624.1182722000522,624.6195537000312,624.1182722000522,624.6195537000312,624.1182722000522,624.6195537000312,624.1182722000522,624.6195537000312,623.1510581000475,None,624.6195537000312,625.9889189000241,0.9800000000000006,626.0040506000514,None,626.7555816000095,None,,,,,,,[1.35903614],2.690000000000002,0.7469879518072289,11011,001,2024_Jan_02_1003,MFTM_A_new1021,2021.2.3,59.95685503966175,
,,,,,,,,stim/Instruction_adaptive.png,conditions/adaptive.xlsx,test,0.6,0.6,0.6,-0.6,-0.6,right,R,,,,,0,1,1,1,0,83,83,58,,,,,,,,,,,,,,,,,,,,,,,,,,,,,,,,,,,,,,,,,,,,627.2573008000036,None,right,1,1.4784440000075847,627.7577028000378,629.2939015000011,627.7577028000378,628.7927944000112,627.7577028000378,628.7927944000112,627.7577028000378,628.7927944000112,627.7577028000378,628.7927944000112,627.7577028000378,628.7927944000112,628.7592685000272,629.2600048000459,628.7592685000272,629.2600048000459,628.7592685000272,629.2600048000459,628.7592685000272,629.2600048000459,628.7592685000272,629.2600048000459,628.7592685000272,629.2600048000459,628.7592685000272,629.2600048000459,628.7592685000272,629.2600048000459,627.7577028000378,None,629.2600048000459,630.62853430002,1.0200000000000007,630.6439286000095,None,631.3957898000372,None,,,,,,,[1.36047619],2.7100000000000017,0.75,11011,001,2024_Jan_02_1003,MFTM_A_new1021,2021.2.3,59.95685503966175,
,,,,,,,,stim/Instruction_adaptive.png,conditions/adaptive.xlsx,test,-0.6,-0.6,-0.6,0.6,0.6,left,L,,,,,0,1,1,1,0,84,84,47,,,,,,,,,,,,,,,,,,,,,,,,,,,,,,,,,,,,,,,,,,,,631.896395000047,None,left,1,1.1275315000093542,632.3970234000008,633.9164007000509,632.3970234000008,633.4158839000156,632.3970234000008,633.4158839000156,632.3970234000008,633.4158839000156,632.3970234000008,633.4158839000156,632.3970234000008,633.4158839000156,633.3985770000145,633.8999412000412,633.3985770000145,633.8999412000412,633.3985770000145,633.8999412000412,633.3985770000145,633.8999412000412,633.3985770000145,633.8999412000412,633.3985770000145,633.8999412000412,633.3985770000145,633.8999412000412,633.3985770000145,633.8999412000412,632.3970234000008,None,633.8999412000412,None,1.0100000000000007,635.2678907000227,None,636.0200775000267,None,,,,,,,[1.362],2.730000000000002,0.7529411764705882,11011,001,2024_Jan_02_1003,MFTM_A_new1021,2021.2.3,59.95685503966175,
,,,,,,,,stim/Instruction_adaptive.png,conditions/adaptive.xlsx,test,0.6,0.6,0.6,-0.6,-0.6,right,R,,,,,0,1,1,1,0,85,85,66,,,,,,,,,,,,,,,,,,,,,,,,,,,,,,,,,,,,,,,,,,,,636.5203997000353,None,right,1,1.3838414999772795,637.0205682000378,638.5235704000224,637.0205682000378,638.0220060000429,637.0205682000378,638.0220060000429,637.0205682000378,638.0220060000429,637.0205682000378,638.0220060000429,637.0205682000378,638.0220060000429,637.9887273000204,638.4900380000472,637.9887273000204,638.4900380000472,637.9887273000204,638.4900380000472,637.9887273000204,638.4900380000472,637.9887273000204,638.4900380000472,637.9887273000204,638.4900380000472,637.9887273000204,638.4900380000472,637.9887273000204,638.4900380000472,637.0205682000378,None,638.4900380000472,639.8589331000112,0.9900000000000007,639.875456800044,None,640.6260829000385,None,,,,,,,[1.36372093],2.7500000000000018,0.7558139534883721,11011,001,2024_Jan_02_1003,MFTM_A_new1021,2021.2.3,59.95685503966175,
,,,,,,,,stim/Instruction_adaptive.png,conditions/adaptive.xlsx,test,0.6,0.6,0.6,-0.6,-0.6,right,R,,,,,0,1,1,1,0,86,86,92,,,,,,,,,,,,,,,,,,,,,,,,,,,,,,,,,,,,,,,,,,,,641.1270950000035,None,right,1,1.2166975000291131,641.6277160000172,643.1128511000425,641.6277160000172,642.6123983000289,641.6277160000172,642.6123983000289,641.6277160000172,642.6123983000289,641.6277160000172,642.6123983000289,641.6277160000172,642.6123983000289,642.596013900009,643.0961494000512,642.596013900009,643.0961494000512,642.596013900009,643.0961494000512,642.596013900009,643.0961494000512,642.596013900009,643.0961494000512,642.596013900009,643.0961494000512,642.596013900009,643.0961494000512,642.596013900009,643.0961494000512,641.6277160000172,None,643.0961494000512,644.4661578000523,0.9800000000000006,644.4816082000034,None,645.233761200041,None,,,,,,,[1.36551724],2.780000000000002,0.7586206896551724,11011,001,2024_Jan_02_1003,MFTM_A_new1021,2021.2.3,59.95685503966175,
,,,,,,,,stim/Instruction_adaptive.png,conditions/adaptive.xlsx,test,-0.6,-0.6,-0.6,0.6,0.6,left,L,,,,,0,1,1,1,0,87,87,75,,,,,,,,,,,,,,,,,,,,,,,,,,,,,,,,,,,,,,,,,,,,645.7333565000445,None,left,1,0.9621202000416815,646.2342529000016,647.7037085000193,646.2342529000016,647.202075200039,646.2342529000016,647.202075200039,646.2342529000016,647.202075200039,646.2342529000016,647.202075200039,646.2342529000016,647.202075200039,647.1856651999988,647.6867744000047,647.1856651999988,647.6867744000047,647.1856651999988,647.6867744000047,647.1856651999988,647.6867744000047,647.1856651999988,647.6867744000047,647.1856651999988,647.6867744000047,647.1856651999988,647.6867744000047,647.1856651999988,647.6867744000047,646.2342529000016,None,647.6702260000166,649.0389565000078,0.9600000000000006,649.0719846000429,None,649.8239397000289,None,,,,,,,[1.3675],2.800000000000002,0.7613636363636364,11011,001,2024_Jan_02_1003,MFTM_A_new1021,2021.2.3,59.95685503966175,
,,,,,,,,stim/Instruction_adaptive.png,conditions/adaptive.xlsx,test,0.6,0.6,0.6,-0.6,-0.6,right,R,,,,,0,1,1,1,0,88,88,38,,,,,,,,,,,,,,,,,,,,,,,,,,,,,,,,,,,,,,,,,,,,650.3235403000144,None,right,1,1.3632600999553688,650.8249843000085,652.2771200000425,650.8249843000085,651.7768842000514,650.8249843000085,651.7768842000514,650.8249843000085,651.7768842000514,650.8249843000085,651.7768842000514,650.8249843000085,651.7768842000514,651.7424667000305,652.2437354000285,651.7424667000305,652.2437354000285,651.7424667000305,652.2437354000285,651.7424667000305,652.2437354000285,651.7424667000305,652.2437354000285,651.7424667000305,652.2437354000285,651.7424667000305,652.2437354000285,651.7424667000305,652.2437354000285,650.8249843000085,None,652.2437354000285,653.6124811000191,0.9400000000000006,653.6450109000434,None,654.3963157000253,None,,,,,,,[1.36966292],2.820000000000002,0.7640449438202247,11011,001,2024_Jan_02_1003,MFTM_A_new1021,2021.2.3,59.95685503966175,
,,,,,,,,stim/Instruction_adaptive.png,conditions/adaptive.xlsx,test,0.6,0.6,0.6,-0.6,-0.6,right,R,,,,,0,1,1,1,0,89,89,90,,,,,,,,,,,,,,,,,,,,,,,,,,,,,,,,,,,,,,,,,,,,654.8969689000514,None,right,1,1.9661253999802284,655.3984605000005,656.8340033999993,655.3984605000005,656.3333257000195,655.3984605000005,656.3333257000195,655.3984605000005,656.3333257000195,655.3984605000005,656.3333257000195,655.3984605000005,656.3333257000195,656.3164352000458,656.816853300028,656.3164352000458,656.816853300028,656.3164352000458,656.816853300028,656.3164352000458,656.816853300028,656.3164352000458,656.816853300028,656.3164352000458,656.816853300028,656.3164352000458,656.816853300028,656.3164352000458,656.816853300028,655.3984605000005,None,656.816853300028,None,0.9300000000000006,658.2018855000497,None,658.9536616000114,None,,,,,,,[1.37188889],2.840000000000002,0.7666666666666667,11011,001,2024_Jan_02_1003,MFTM_A_new1021,2021.2.3,59.95685503966175,
,,,,,,,,stim/Instruction_adaptive.png,conditions/adaptive.xlsx,test,0.6,0.6,0.6,-0.6,-0.6,right,R,,,,,0,1,1,1,0,90,90,18,,,,,,,,,,,,,,,,,,,,,,,,,,,,,,,,,,,,,,,,,,,,659.4544001000468,None,left,0,1.497732299962081,659.954453900049,661.3740433000494,659.954453900049,660.8901030000416,659.954453900049,660.8901030000416,659.954453900049,660.8901030000416,659.954453900049,660.8901030000416,659.954453900049,660.8901030000416,660.8565953000216,661.3572600000189,660.8565953000216,661.3572600000189,660.8565953000216,661.3572600000189,660.8565953000216,661.3572600000189,660.8565953000216,661.3572600000189,660.8565953000216,661.3572600000189,660.8565953000216,661.3572600000189,660.8565953000216,661.3572600000189,659.954453900049,None,661.3572600000189,662.7426925000036,0.9200000000000006,662.7582347000134,None,663.5101213000016,None,,,,,,,[1.37417582],2.780000000000002,0.7582417582417582,11011,001,2024_Jan_02_1003,MFTM_A_new1021,2021.2.3,59.95685503966175,
,,,,,,,,stim/Instruction_adaptive.png,conditions/adaptive.xlsx,test,-0.6,-0.6,-0.6,0.6,0.6,left,L,,,,,0,1,1,1,0,91,91,79,,,,,,,,,,,,,,,,,,,,,,,,,,,,,,,,,,,,,,,,,,,,664.0114050999982,None,left,1,1.4209346999996342,664.5113616000162,665.9817090000142,664.5113616000162,665.478897700028,664.5113616000162,665.478897700028,664.5113616000162,665.478897700028,664.5113616000162,665.478897700028,664.5113616000162,665.478897700028,665.463430600008,665.9645424000337,665.463430600008,665.9645424000337,665.463430600008,665.9645424000337,665.463430600008,665.9645424000337,665.463430600008,665.9645424000337,665.463430600008,665.9645424000337,665.463430600008,665.9645424000337,665.463430600008,665.9645424000337,664.5113616000162,None,665.9645424000337,None,0.9600000000000006,667.3487651000032,None,668.1005613000016,None,,,,,,,[1.37597826],2.800000000000002,0.7608695652173914,11011,001,2024_Jan_02_1003,MFTM_A_new1021,2021.2.3,59.95685503966175,
,,,,,,,,stim/Instruction_adaptive.png,conditions/adaptive.xlsx,test,-0.6,-0.6,-0.6,0.6,0.6,left,L,,,,,0,1,1,1,0,92,92,65,,,,,,,,,,,,,,,,,,,,,,,,,,,,,,,,,,,,,,,,,,,,668.6015774999978,None,left,1,1.3268984999740496,669.1014399999985,670.5546778000426,669.1014399999985,670.0534883000073,669.1014399999985,670.0534883000073,669.1014399999985,670.0534883000073,669.1014399999985,670.0534883000073,669.1014399999985,670.0534883000073,670.0194825000362,670.5210715000285,670.0194825000362,670.5210715000285,670.0194825000362,670.5210715000285,670.0194825000362,670.5210715000285,670.0194825000362,670.5210715000285,670.0194825000362,670.5210715000285,670.0194825000362,670.5210715000285,670.0194825000362,670.5210715000285,669.1014399999985,None,670.5210715000285,671.9060977000045,0.9400000000000006,671.9223623000435,None,672.6741973000462,None,,,,,,,[1.37795699],2.820000000000002,0.7634408602150538,11011,001,2024_Jan_02_1003,MFTM_A_new1021,2021.2.3,59.95685503966175,
,,,,,,,,stim/Instruction_adaptive.png,conditions/adaptive.xlsx,test,-0.6,-0.6,-0.6,0.6,0.6,left,L,,,,,0,1,1,1,0,93,93,35,,,,,,,,,,,,,,,,,,,,,,,,,,,,,,,,,,,,,,,,,,,,673.174301800027,None,left,1,1.3292900000233203,673.6754125000443,675.1100459000445,673.6754125000443,674.6102008000016,673.6754125000443,674.6102008000016,673.6754125000443,674.6102008000016,673.6754125000443,674.6102008000016,673.6754125000443,674.6102008000016,674.5941470999969,675.0935617000214,674.5941470999969,675.0935617000214,674.5941470999969,675.0935617000214,674.5941470999969,675.0935617000214,674.5941470999969,675.0935617000214,674.5941470999969,675.0935617000214,674.5941470999969,675.0935617000214,674.5941470999969,675.0935617000214,673.6754125000443,None,675.0935617000214,676.4796581999981,0.9300000000000006,676.4965378000052,None,677.2475672000437,None,,,,,,,[1.38],2.840000000000002,0.7659574468085106,11011,001,2024_Jan_02_1003,MFTM_A_new1021,2021.2.3,59.95685503966175,
