arrwidth1,arrwidth2,arrwidth3,arrwidth4,arrwidth5,keyb,type,orientation,instruction_image,block_filename,block_type,arrow11,arrow22,arrow33,arrow44,arrow55,keyb_3,orientation3,trials.thisRepN,trials.thisTrialN,trials.thisN,trials.thisIndex,trials_3.thisRepN,trials_3.thisTrialN,trials_3.thisN,trials_3.thisIndex,trials_2.thisRepN,trials_2.thisTrialN,trials_2.thisN,trials_2.thisIndex,welcome.started,welcome.stopped,key_resp.keys,key_resp.rt,key_resp.started,key_resp.stopped,instruction_example.started,instruction_example.stopped,key_resp_3.keys,key_resp_3.rt,key_resp_3.started,key_resp_3.stopped,instruction_task.started,instruction_task.stopped,key_resp_2.keys,key_resp_2.rt,key_resp_2.started,key_resp_2.stopped,text_2.started,text_2.stopped,A1.started,A1.stopped,A2.started,A2.stopped,A3.started,A3.stopped,A4.started,A4.stopped,A5.started,A5.stopped,key_resp_4.keys,key_resp_4.corr,key_resp_4.rt,key_resp_4.started,key_resp_4.stopped,fb.started,fb.stopped,instruction_block.started,instruction_block.stopped,key_resp_8.keys,key_resp_8.rt,key_resp_8.started,key_resp_8.stopped,text_8.started,text_8.stopped,key_resp_9.keys,key_resp_9.corr,key_resp_9.rt,text_5.started,text_5.stopped,A11_3.started,A11_3.stopped,A22_2.started,A22_2.stopped,A33_2.started,A33_2.stopped,A44_2.started,A44_2.stopped,A55_2.started,A55_2.stopped,M1_3.started,M1_3.stopped,M2_2.started,M2_2.stopped,M3_2.started,M3_2.stopped,M4_2.started,M4_2.stopped,M5_2.started,M5_2.stopped,M6_2.started,M6_2.stopped,M7_2.started,M7_2.stopped,M8_2.started,M8_2.stopped,key_resp_9.started,key_resp_9.stopped,fixation.started,fixation.stopped,ET,fb_3.started,fb_3.stopped,text_9.started,text_9.stopped,fb_4.started,fb_4.stopped,text_7.started,text_7.stopped,endtext.started,endtext.stopped,fixation_ITI,CCC,Acc,participant,session,date,expName,psychopyVersion,frameRate,
,,,,,,,,,,,,,,,,,,,,,,,,,,,,,,10.016387599986047,None,space,2.046658099978231,10.016387599986047,None,,,,,,,,,,,,,,,,,,,,,,,,,,,,,,,,,,,,,,,,,,,,,,,,,,,,,,,,,,,,,,,,,,,,,,,,,,,,,,,,,,,,,,,,,11019,001,2024_Jan_05_0918,MFTM_A_new1021,2021.2.3,59.96595131093479,
,,,,,,,,,,,,,,,,,,,,,,,,,,,,,,,,,,,,12.086437799967825,None,right,24.472646299982443,12.086437799967825,None,,,,,,,,,,,,,,,,,,,,,,,,,,,,,,,,,,,,,,,,,,,,,,,,,,,,,,,,,,,,,,,,,,,,,,,,,,,,,,,,,,,11019,001,2024_Jan_05_0918,MFTM_A_new1021,2021.2.3,59.96595131093479,
,,,,,,,,,,,,,,,,,,,,,,,,,,,,,,,,,,,,,,,,,,36.590032099979,None,right,5.248958499985747,36.590032099979,None,,,,,,,,,,,,,,,,,,,,,,,,,,,,,,,,,,,,,,,,,,,,,,,,,,,,,,,,,,,,,,,,,,,,,,,,,,,,,11019,001,2024_Jan_05_0918,MFTM_A_new1021,2021.2.3,59.96595131093479,
0.6,0.6,0.6,-0.6,-0.6,right,3:2,R,,,,,,,,,,,0,0,0,0,,,,,,,,,,,,,,,,,,,,,,,,,,,41.88114810001571,None,41.88114810001571,None,41.88114810001571,None,41.88114810001571,None,41.88114810001571,None,41.88114810001571,None,right,1,4.790157899959013,41.88114810001571,None,46.705692399991676,None,,,,,,,,,,,,,,,,,,,,,,,,,,,,,,,,,,,,,,,,,,,,,,,,,,,,,,,,,,11019,001,2024_Jan_05_0918,MFTM_A_new1021,2021.2.3,59.96595131093479,
-0.6,-0.6,-0.6,0.6,0.6,left,3:2,L,,,,,,,,,,,0,1,1,1,,,,,,,,,,,,,,,,,,,,,,,,,,,47.45536500005983,None,47.45536500005983,None,47.45536500005983,None,47.45536500005983,None,47.45536500005983,None,47.45536500005983,None,right,0,3.3598339000018314,47.45536500005983,None,50.8437865000451,None,,,,,,,,,,,,,,,,,,,,,,,,,,,,,,,,,,,,,,,,,,,,,,,,,,,,,,,,,,11019,001,2024_Jan_05_0918,MFTM_A_new1021,2021.2.3,59.96595131093479,
-0.6,-0.6,-0.6,0.6,0.6,left,3:2,L,,,,,,,,,,,1,0,2,1,,,,,,,,,,,,,,,,,,,,,,,,,,,51.59537640004419,None,51.59537640004419,None,51.59537640004419,None,51.59537640004419,None,51.59537640004419,None,51.59537640004419,None,left,1,3.2275936999358237,51.59537640004419,None,54.84979999996722,None,,,,,,,,,,,,,,,,,,,,,,,,,,,,,,,,,,,,,,,,,,,,,,,,,,,,,,,,,,11019,001,2024_Jan_05_0918,MFTM_A_new1021,2021.2.3,59.96595131093479,
0.6,0.6,0.6,-0.6,-0.6,right,3:2,R,,,,,,,,,,,1,1,3,0,,,,,,,,,,,,,,,,,,,,,,,,,,,55.6007919999538,None,55.6007919999538,None,55.6007919999538,None,55.6007919999538,None,55.6007919999538,None,55.6007919999538,None,right,1,2.838280100026168,55.6007919999538,None,58.455914200050756,None,,,,,,,,,,,,,,,,,,,,,,,,,,,,,,,,,,,,,,,,,,,,,,,,,,,,,,,,,,11019,001,2024_Jan_05_0918,MFTM_A_new1021,2021.2.3,59.96595131093479,
,,,,,,,,stim/Instruction_mask.png,conditions/adaptive.xlsx,practice,0.6,0.6,0.6,-0.6,-0.6,right,R,,,,,0,0,0,0,0,0,0,80,,,,,,,,,,,,,,,,,,,,,,,,,,,,,,,,,,,,,,59.388932800036855,None,right,48.018065799959004,59.388932800036855,None,107.51171039999463,None,None,0,0,107.94581740000285,None,107.94581740000285,110.94925439998042,107.94581740000285,110.94925439998042,107.94581740000285,110.94925439998042,107.94581740000285,110.94925439998042,107.94581740000285,110.94925439998042,110.93307839997578,111.43367090006359,110.93307839997578,111.43367090006359,110.93307839997578,111.43367090006359,110.93307839997578,111.43367090006359,110.93307839997578,111.43367090006359,110.93307839997578,111.43367090006359,110.93307839997578,111.43367090006359,110.93307839997578,111.43367090006359,107.94581740000285,None,111.43367090006359,111.43367090006359,3,111.4500789999729,None,112.20220080006402,None,,,,,,,,,,11019,001,2024_Jan_05_0918,MFTM_A_new1021,2021.2.3,59.96595131093479,
,,,,,,,,stim/Instruction_mask.png,conditions/adaptive.xlsx,practice,-0.6,-0.6,-0.6,0.6,0.6,left,L,,,,,0,0,0,0,0,1,1,95,,,,,,,,,,,,,,,,,,,,,,,,,,,,,,,,,,,,,,,,,,,,112.70272970001679,None,right,0,2.156296599889174,113.20281509996857,115.20620640006382,113.20281509996857,114.70573130005505,113.20281509996857,114.70573130005505,113.20281509996857,114.70573130005505,113.20281509996857,114.70573130005505,113.20281509996857,114.70573130005505,114.68842889997177,115.18974659999367,114.68842889997177,115.18974659999367,114.68842889997177,115.18974659999367,114.68842889997177,115.18974659999367,114.68842889997177,115.18974659999367,114.68842889997177,115.18974659999367,114.68842889997177,115.18974659999367,114.68842889997177,115.18974659999367,113.20281509996857,None,115.18974659999367,116.69188010005746,1.5,116.70820740005001,None,117.45973090000916,None,,,,,,,,,,11019,001,2024_Jan_05_0918,MFTM_A_new1021,2021.2.3,59.96595131093479,
,,,,,,,,stim/Instruction_mask.png,conditions/adaptive.xlsx,practice,-0.6,-0.6,-0.6,0.6,0.6,left,L,,,,,0,0,0,0,0,2,2,61,,,,,,,,,,,,,,,,,,,,,,,,,,,,,,,,,,,,,,,,,,,,117.96027739997953,None,right,0,1.60269050009083,118.46061299997382,119.76266500004567,118.46061299997382,119.26257600006647,118.46061299997382,119.26257600006647,118.46061299997382,119.26257600006647,118.46061299997382,119.26257600006647,118.46061299997382,119.26257600006647,119.24591830000281,119.74612240004353,119.24591830000281,119.74612240004353,119.24591830000281,119.74612240004353,119.24591830000281,119.74612240004353,119.24591830000281,119.74612240004353,119.24591830000281,119.74612240004353,119.24591830000281,119.74612240004353,119.24591830000281,119.74612240004353,118.46061299997382,None,119.74612240004353,121.94919289997779,0.8,121.96617450006306,None,122.71757560002152,None,,,,,,,,,,11019,001,2024_Jan_05_0918,MFTM_A_new1021,2021.2.3,59.96595131093479,
,,,,,,,,stim/Instruction_mask.png,conditions/adaptive.xlsx,practice,-0.6,-0.6,-0.6,0.6,0.6,left,L,,,,,0,0,0,0,0,3,3,87,,,,,,,,,,,,,,,,,,,,,,,,,,,,,,,,,,,,,,,,,,,,123.21816809999291,None,left,1,1.7524593999842182,123.71897419996094,124.47035660000984,123.71897419996094,123.96901989995968,123.71897419996094,123.96901989995968,123.71897419996094,123.96901989995968,123.71897419996094,123.96901989995968,123.71897419996094,123.96901989995968,123.95251950004604,124.45444260002114,123.95251950004604,124.45444260002114,123.95251950004604,124.45444260002114,123.95251950004604,124.45444260002114,123.95251950004604,124.45444260002114,123.95251950004604,124.45444260002114,123.95251950004604,124.45444260002114,123.95251950004604,124.45444260002114,123.71897419996094,None,124.45444260002114,127.20764370006509,3,127.22455080004875,None,127.97536979999859,None,,,,,,,,,,11019,001,2024_Jan_05_0918,MFTM_A_new1021,2021.2.3,59.96595131093479,
,,,,,,,,stim/Instruction_mask.png,conditions/adaptive.xlsx,practice,,,,,,,,,,,,0,0,0,0,,,,,,,,,,,,,,,,,,,,,,,,,,,,,,,,,,,,,,,,,,,,,,,,,,,,,,,,,,,,,,,,,,,,,,,,,,,,,,,,,,,,,,,,,,128.492362900055,129.49375909997616,129.47854989999905,129.47854989999905,129.47854989999905,None,,,,11019,001,2024_Jan_05_0918,MFTM_A_new1021,2021.2.3,59.96595131093479,
,,,,,,,,stim/Instruction_adaptive.png,conditions/adaptive.xlsx,test,-0.6,-0.6,-0.6,0.6,0.6,left,L,,,,,0,1,1,1,0,0,0,97,,,,,,,,,,,,,,,,,,,,,,,,,,,,,,,,,,,,,,132.59830169996712,None,space,14.480710600037128,132.59830169996712,None,147.11922170000616,None,right,0,3.018009399995208,147.62133860005997,None,147.62133860005997,150.62561170000117,147.62133860005997,150.62561170000117,147.62133860005997,150.62561170000117,147.62133860005997,150.62561170000117,147.62133860005997,150.62561170000117,150.60886410006788,151.1089723999612,150.60886410006788,151.1089723999612,150.60886410006788,151.1089723999612,150.60886410006788,151.1089723999612,150.60886410006788,151.1089723999612,150.60886410006788,151.1089723999612,150.60886410006788,151.1089723999612,150.60886410006788,151.1089723999612,147.62133860005997,None,151.09289059997536,151.09289059997536,3,151.12588309997227,None,151.87740080000367,None,,,,,,,0,0.5,0.0,11019,001,2024_Jan_05_0918,MFTM_A_new1021,2021.2.3,59.96595131093479,
,,,,,,,,stim/Instruction_adaptive.png,conditions/adaptive.xlsx,test,0.6,0.6,0.6,-0.6,-0.6,right,R,,,,,0,1,1,1,0,1,1,50,,,,,,,,,,,,,,,,,,,,,,,,,,,,,,,,,,,,,,,,,,,,152.37892160005867,None,right,1,3.3927879000548273,152.87847800005693,None,152.87847800005693,155.88388720003422,152.87847800005693,155.88388720003422,152.87847800005693,155.88388720003422,152.87847800005693,155.88388720003422,152.87847800005693,155.88388720003422,155.86611159995664,156.3674245000584,155.86611159995664,156.3674245000584,155.86611159995664,156.3674245000584,155.86611159995664,156.3674245000584,155.86611159995664,156.3674245000584,155.86611159995664,156.3674245000584,155.86611159995664,156.3674245000584,155.86611159995664,156.3674245000584,152.87847800005693,None,156.3674245000584,156.3674245000584,3.0000000000000027,156.38334880000912,None,157.13468140002806,None,,,,,,,0,0.5,0.5,11019,001,2024_Jan_05_0918,MFTM_A_new1021,2021.2.3,59.96595131093479,
,,,,,,,,stim/Instruction_adaptive.png,conditions/adaptive.xlsx,test,0.6,0.6,0.6,-0.6,-0.6,right,R,,,,,0,1,1,1,0,2,2,74,,,,,,,,,,,,,,,,,,,,,,,,,,,,,,,,,,,,,,,,,,,,157.63593310001306,None,left,0,3.359155699959956,158.13622570002917,None,158.13622570002917,161.14112869999371,158.13622570002917,161.14112869999371,158.13622570002917,161.14112869999371,158.13622570002917,161.14112869999371,158.13622570002917,161.14112869999371,161.1239628000185,161.62498309998773,161.1239628000185,161.62498309998773,161.1239628000185,161.62498309998773,161.1239628000185,161.62498309998773,161.1239628000185,161.62498309998773,161.1239628000185,161.62498309998773,161.1239628000185,161.62498309998773,161.1239628000185,161.62498309998773,158.13622570002917,None,161.62498309998773,161.62498309998773,3.0000000000000027,161.6420161999995,None,162.3936460999539,None,,,,,,,0,0.5,0.3333333333333333,11019,001,2024_Jan_05_0918,MFTM_A_new1021,2021.2.3,59.96595131093479,
,,,,,,,,stim/Instruction_adaptive.png,conditions/adaptive.xlsx,test,0.6,0.6,0.6,-0.6,-0.6,right,R,,,,,0,1,1,1,0,3,3,52,,,,,,,,,,,,,,,,,,,,,,,,,,,,,,,,,,,,,,,,,,,,162.8933062000433,None,right,1,3.4542583000147715,163.39406419999432,None,163.39406419999432,166.39837209996767,163.39406419999432,166.39837209996767,163.39406419999432,166.39837209996767,163.39406419999432,166.39837209996767,163.39406419999432,166.39837209996767,166.38209860003553,166.8825401000213,166.38209860003553,166.8825401000213,166.38209860003553,166.8825401000213,166.38209860003553,166.8825401000213,166.38209860003553,166.8825401000213,166.38209860003553,166.8825401000213,166.38209860003553,166.8825401000213,166.38209860003553,166.8825401000213,163.39406419999432,None,166.8825401000213,166.8825401000213,3.0000000000000027,166.8989691999741,None,167.65083319996484,None,,,,,,,0,0.5,0.5,11019,001,2024_Jan_05_0918,MFTM_A_new1021,2021.2.3,59.96595131093479,
,,,,,,,,stim/Instruction_adaptive.png,conditions/adaptive.xlsx,test,0.6,0.6,0.6,-0.6,-0.6,right,R,,,,,0,1,1,1,0,4,4,64,,,,,,,,,,,,,,,,,,,,,,,,,,,,,,,,,,,,,,,,,,,,168.1521733000409,None,right,1,3.3389302000869066,168.6522541999584,None,168.6522541999584,171.65727139997762,168.6522541999584,171.65727139997762,168.6522541999584,171.65727139997762,168.6522541999584,171.65727139997762,168.6522541999584,171.65727139997762,171.63947040005587,172.14160329999868,171.63947040005587,172.14160329999868,171.63947040005587,172.14160329999868,171.63947040005587,172.14160329999868,171.63947040005587,172.14160329999868,171.63947040005587,172.14160329999868,171.63947040005587,172.14160329999868,171.63947040005587,172.14160329999868,168.6522541999584,None,172.14160329999868,172.14160329999868,3.0000000000000027,172.1566279999679,None,172.9090683000395,None,,,,,,,0,0.5,0.6,11019,001,2024_Jan_05_0918,MFTM_A_new1021,2021.2.3,59.96595131093479,
,,,,,,,,stim/Instruction_adaptive.png,conditions/adaptive.xlsx,test,-0.6,-0.6,-0.6,0.6,0.6,left,L,,,,,0,1,1,1,0,5,5,59,,,,,,,,,,,,,,,,,,,,,,,,,,,,,,,,,,,,,,,,,,,,173.408947500051,None,left,1,3.4655913000460714,173.9095237000147,None,173.9095237000147,176.91394160001073,173.9095237000147,176.91394160001073,173.9095237000147,176.91394160001073,173.9095237000147,176.91394160001073,173.9095237000147,176.91394160001073,176.89743170002475,177.39871109998785,176.89743170002475,177.39871109998785,176.89743170002475,177.39871109998785,176.89743170002475,177.39871109998785,176.89743170002475,177.39871109998785,176.89743170002475,177.39871109998785,176.89743170002475,177.39871109998785,176.89743170002475,177.39871109998785,173.9095237000147,None,177.39871109998785,177.39871109998785,3.0000000000000027,177.41469340003096,None,178.16597540001385,None,,,,,,,0,0.5,0.6666666666666666,11019,001,2024_Jan_05_0918,MFTM_A_new1021,2021.2.3,59.96595131093479,
,,,,,,,,stim/Instruction_adaptive.png,conditions/adaptive.xlsx,test,-0.6,-0.6,-0.6,0.6,0.6,left,L,,,,,0,1,1,1,0,6,6,85,,,,,,,,,,,,,,,,,,,,,,,,,,,,,,,,,,,,,,,,,,,,178.66692800004967,None,None,0,0,179.1671517000068,None,179.1671517000068,182.17204800003674,179.1671517000068,182.17204800003674,179.1671517000068,182.17204800003674,179.1671517000068,182.17204800003674,179.1671517000068,182.17204800003674,182.15506150003057,182.65592749998905,182.15506150003057,182.65592749998905,182.15506150003057,182.65592749998905,182.15506150003057,182.65592749998905,182.15506150003057,182.65592749998905,182.15506150003057,182.65592749998905,182.15506150003057,182.65592749998905,182.15506150003057,182.65592749998905,179.1671517000068,None,182.65592749998905,182.65592749998905,3.0000000000000027,182.67222439998295,None,183.42418550001457,None,,,,,,,0,0.5,0.5714285714285714,11019,001,2024_Jan_05_0918,MFTM_A_new1021,2021.2.3,59.96595131093479,
,,,,,,,,stim/Instruction_adaptive.png,conditions/adaptive.xlsx,test,0.6,0.6,0.6,-0.6,-0.6,right,R,,,,,0,1,1,1,0,7,7,70,,,,,,,,,,,,,,,,,,,,,,,,,,,,,,,,,,,,,,,,,,,,183.92437570006587,None,right,1,3.2780213999794796,184.42513820005115,None,184.42513820005115,187.43023639998864,184.42513820005115,187.43023639998864,184.42513820005115,187.43023639998864,184.42513820005115,187.43023639998864,184.42513820005115,187.43023639998864,187.4134224000154,187.91362800006755,187.4134224000154,187.91362800006755,187.4134224000154,187.91362800006755,187.4134224000154,187.91362800006755,187.4134224000154,187.91362800006755,187.4134224000154,187.91362800006755,187.4134224000154,187.91362800006755,187.4134224000154,187.91362800006755,184.42513820005115,None,187.91362800006755,187.91362800006755,3.0000000000000027,187.9300835999893,None,188.68140770005994,None,,,,,,,0,0.5,0.625,11019,001,2024_Jan_05_0918,MFTM_A_new1021,2021.2.3,59.96595131093479,
,,,,,,,,stim/Instruction_adaptive.png,conditions/adaptive.xlsx,test,0.6,0.6,0.6,-0.6,-0.6,right,R,,,,,0,1,1,1,0,8,8,66,,,,,,,,,,,,,,,,,,,,,,,,,,,,,,,,,,,,,,,,,,,,189.1827295999974,None,right,1,3.2759301000041887,189.6832022999879,None,189.6832022999879,192.68802330002654,189.6832022999879,192.68802330002654,189.6832022999879,192.68802330002654,189.6832022999879,192.68802330002654,189.6832022999879,192.68802330002654,192.67062600003555,193.17141309997533,192.67062600003555,193.17141309997533,192.67062600003555,193.17141309997533,192.67062600003555,193.17141309997533,192.67062600003555,193.17141309997533,192.67062600003555,193.17141309997533,192.67062600003555,193.17141309997533,192.67062600003555,193.17141309997533,189.6832022999879,None,193.17141309997533,193.17141309997533,3.0000000000000027,193.18816630006768,None,193.93986589997075,None,,,,,,,0,0.5,0.6666666666666666,11019,001,2024_Jan_05_0918,MFTM_A_new1021,2021.2.3,59.96595131093479,
,,,,,,,,stim/Instruction_adaptive.png,conditions/adaptive.xlsx,test,0.6,0.6,0.6,-0.6,-0.6,right,R,,,,,0,1,1,1,0,9,9,30,,,,,,,,,,,,,,,,,,,,,,,,,,,,,,,,,,,,,,,,,,,,194.44038240006194,None,right,1,3.2659473000094295,194.94128769997042,None,194.94128769997042,197.9451974000549,194.94128769997042,197.9451974000549,194.94128769997042,197.9451974000549,194.94128769997042,197.9451974000549,194.94128769997042,197.9451974000549,197.92838709999342,198.43060429999605,197.92838709999342,198.43060429999605,197.92838709999342,198.43060429999605,197.92838709999342,198.43060429999605,197.92838709999342,198.43060429999605,197.92838709999342,198.43060429999605,197.92838709999342,198.43060429999605,197.92838709999342,198.43060429999605,194.94128769997042,None,198.43060429999605,198.43060429999605,3.0000000000000027,198.4465186999878,None,199.19697309995536,None,,,,,,,0,0.6900000000000002,0.7,11019,001,2024_Jan_05_0918,MFTM_A_new1021,2021.2.3,59.96595131093479,
,,,,,,,,stim/Instruction_adaptive.png,conditions/adaptive.xlsx,test,-0.6,-0.6,-0.6,0.6,0.6,left,L,,,,,0,1,1,1,0,10,10,81,,,,,,,,,,,,,,,,,,,,,,,,,,,,,,,,,,,,,,,,,,,,199.69777860003524,None,left,1,3.2486618000548333,200.19851100002415,None,200.19851100002415,203.20289269997738,200.19851100002415,203.20289269997738,200.19851100002415,203.20289269997738,200.19851100002415,203.20289269997738,200.19851100002415,203.20289269997738,203.18624459998682,203.6868673999561,203.18624459998682,203.6868673999561,203.18624459998682,203.6868673999561,203.18624459998682,203.6868673999561,203.18624459998682,203.6868673999561,203.18624459998682,203.6868673999561,203.18624459998682,203.6868673999561,203.18624459998682,203.6868673999561,200.19851100002415,None,203.6868673999561,203.6868673999561,3.0000000000000027,203.7035923000658,None,204.45553849998396,None,,,,,,,0,0.9400000000000004,0.7272727272727273,11019,001,2024_Jan_05_0918,MFTM_A_new1021,2021.2.3,59.96595131093479,
,,,,,,,,stim/Instruction_adaptive.png,conditions/adaptive.xlsx,test,0.6,0.6,0.6,-0.6,-0.6,right,R,,,,,0,1,1,1,0,11,11,94,,,,,,,,,,,,,,,,,,,,,,,,,,,,,,,,,,,,,,,,,,,,204.95630790002178,None,None,0,0,205.45648100005928,None,205.45648100005928,208.46077899995726,205.45648100005928,208.46077899995726,205.45648100005928,208.46077899995726,205.45648100005928,208.46077899995726,205.45648100005928,208.46077899995726,208.4454706000397,208.94472599995788,208.4454706000397,208.94472599995788,208.4454706000397,208.94472599995788,208.4454706000397,208.94472599995788,208.4454706000397,208.94472599995788,208.4454706000397,208.94472599995788,208.4454706000397,208.94472599995788,208.4454706000397,208.94472599995788,205.45648100005928,None,208.94472599995788,208.94472599995788,3.0000000000000027,208.96143490006216,None,209.7133098000195,None,,,,,,,0,0.5,0.6666666666666666,11019,001,2024_Jan_05_0918,MFTM_A_new1021,2021.2.3,59.96595131093479,
,,,,,,,,stim/Instruction_adaptive.png,conditions/adaptive.xlsx,test,-0.6,-0.6,-0.6,0.6,0.6,left,L,,,,,0,1,1,1,0,12,12,93,,,,,,,,,,,,,,,,,,,,,,,,,,,,,,,,,,,,,,,,,,,,210.21366280002985,None,left,1,3.2373330999398604,210.71395620005205,None,210.71395620005205,213.7191244000569,210.71395620005205,213.7191244000569,210.71395620005205,213.7191244000569,210.71395620005205,213.7191244000569,210.71395620005205,213.7191244000569,213.70180439995602,214.20311919995584,213.70180439995602,214.20311919995584,213.70180439995602,214.20311919995584,213.70180439995602,214.20311919995584,213.70180439995602,214.20311919995584,213.70180439995602,214.20311919995584,213.70180439995602,214.20311919995584,213.70180439995602,214.20311919995584,210.71395620005205,None,214.20311919995584,214.20311919995584,3.0000000000000027,214.21938859997317,None,214.9703954999568,None,,,,,,,0,0.6200000000000001,0.6923076923076923,11019,001,2024_Jan_05_0918,MFTM_A_new1021,2021.2.3,59.96595131093479,
,,,,,,,,stim/Instruction_adaptive.png,conditions/adaptive.xlsx,test,0.6,0.6,0.6,-0.6,-0.6,right,R,,,,,0,1,1,1,0,13,13,96,,,,,,,,,,,,,,,,,,,,,,,,,,,,,,,,,,,,,,,,,,,,215.4709967999952,None,right,1,3.2674107999773696,215.9719458000036,None,215.9719458000036,218.97682970005553,215.9719458000036,218.97682970005553,215.9719458000036,218.97682970005553,215.9719458000036,218.97682970005553,215.9719458000036,218.97682970005553,218.95997229998466,219.46039350004867,218.95997229998466,219.46039350004867,218.95997229998466,219.46039350004867,218.95997229998466,219.46039350004867,218.95997229998466,219.46039350004867,218.95997229998466,219.46039350004867,218.95997229998466,219.46039350004867,218.95997229998466,219.46039350004867,215.9719458000036,None,219.46039350004867,219.46039350004867,3.0000000000000027,219.47705600003246,None,220.22804479999468,None,,,,,,,0,0.8200000000000003,0.7142857142857143,11019,001,2024_Jan_05_0918,MFTM_A_new1021,2021.2.3,59.96595131093479,
,,,,,,,,stim/Instruction_adaptive.png,conditions/adaptive.xlsx,test,-0.6,-0.6,-0.6,0.6,0.6,left,L,,,,,0,1,1,1,0,14,14,89,,,,,,,,,,,,,,,,,,,,,,,,,,,,,,,,,,,,,,,,,,,,220.72973979997914,None,left,1,3.2409906000830233,221.2301446000347,None,221.2301446000347,224.23488530004397,221.2301446000347,224.23488530004397,221.2301446000347,224.23488530004397,221.2301446000347,224.23488530004397,221.2301446000347,224.23488530004397,224.21812149998732,224.7187694000313,224.21812149998732,224.7187694000313,224.21812149998732,224.7187694000313,224.21812149998732,224.7187694000313,224.21812149998732,224.7187694000313,224.21812149998732,224.7187694000313,224.21812149998732,224.7187694000313,224.21812149998732,224.7187694000313,221.2301446000347,None,224.7187694000313,224.7187694000313,3.0000000000000027,224.73483349999879,None,225.48636129999068,None,,,,,,,0,0.9900000000000004,0.7333333333333333,11019,001,2024_Jan_05_0918,MFTM_A_new1021,2021.2.3,59.96595131093479,
,,,,,,,,stim/Instruction_adaptive.png,conditions/adaptive.xlsx,test,0.6,0.6,0.6,-0.6,-0.6,right,R,,,,,0,1,1,1,0,15,15,44,,,,,,,,,,,,,,,,,,,,,,,,,,,,,,,,,,,,,,,,,,,,225.98723379999865,None,right,1,3.3841790000442415,226.4873338000616,None,226.4873338000616,229.4918672000058,226.4873338000616,229.4918672000058,226.4873338000616,229.4918672000058,226.4873338000616,229.4918672000058,226.4873338000616,229.4918672000058,229.47514100000262,229.97692250006367,229.47514100000262,229.97692250006367,229.47514100000262,229.97692250006367,229.47514100000262,229.97692250006367,229.47514100000262,229.97692250006367,229.47514100000262,229.97692250006367,229.47514100000262,229.97692250006367,229.47514100000262,229.97692250006367,226.4873338000616,None,229.97692250006367,229.97692250006367,3.0000000000000027,229.9928307000082,None,230.74367460003123,None,,,,,,,0,1.1300000000000006,0.75,11019,001,2024_Jan_05_0918,MFTM_A_new1021,2021.2.3,59.96595131093479,
,,,,,,,,stim/Instruction_adaptive.png,conditions/adaptive.xlsx,test,-0.6,-0.6,-0.6,0.6,0.6,left,L,,,,,0,1,1,1,0,16,16,1,,,,,,,,,,,,,,,,,,,,,,,,,,,,,,,,,,,,,,,,,,,,231.2450114999665,None,left,1,3.2861978000728413,231.74522559996694,None,231.74522559996694,234.74964910000563,231.74522559996694,234.74964910000563,231.74522559996694,234.74964910000563,231.74522559996694,234.74964910000563,231.74522559996694,234.74964910000563,234.73328849999234,235.23366540006828,234.73328849999234,235.23366540006828,234.73328849999234,235.23366540006828,234.73328849999234,235.23366540006828,234.73328849999234,235.23366540006828,234.73328849999234,235.23366540006828,234.73328849999234,235.23366540006828,234.73328849999234,235.23366540006828,231.74522559996694,None,235.23366540006828,235.23366540006828,3.0000000000000027,235.2502453000052,None,236.00224489998072,None,,,,,,,0,1.2500000000000007,0.7647058823529411,11019,001,2024_Jan_05_0918,MFTM_A_new1021,2021.2.3,59.96595131093479,
,,,,,,,,stim/Instruction_adaptive.png,conditions/adaptive.xlsx,test,0.6,0.6,0.6,-0.6,-0.6,right,R,,,,,0,1,1,1,0,17,17,86,,,,,,,,,,,,,,,,,,,,,,,,,,,,,,,,,,,,,,,,,,,,236.50290690001566,None,right,1,3.204551800037734,237.00302159995772,None,237.00302159995772,239.77483919996303,237.00302159995772,239.77483919996303,237.00302159995772,239.77483919996303,237.00302159995772,239.77483919996303,237.00302159995772,239.77483919996303,239.75717610004358,240.25904989999253,239.75717610004358,240.25904989999253,239.75717610004358,240.25904989999253,239.75717610004358,240.25904989999253,239.75717610004358,240.25904989999253,239.75717610004358,240.25904989999253,239.75717610004358,240.25904989999253,239.75717610004358,240.25904989999253,237.00302159995772,None,240.25904989999253,240.25904989999253,2.7700000000000022,240.27444710000418,None,241.0256961999694,None,,,,,,,0,1.3600000000000008,0.7777777777777778,11019,001,2024_Jan_05_0918,MFTM_A_new1021,2021.2.3,59.96595131093479,
,,,,,,,,stim/Instruction_adaptive.png,conditions/adaptive.xlsx,test,0.6,0.6,0.6,-0.6,-0.6,right,R,,,,,0,1,1,1,0,18,18,18,,,,,,,,,,,,,,,,,,,,,,,,,,,,,,,,,,,,,,,,,,,,241.52743520005606,None,right,1,2.868194399983622,242.0277965000132,None,242.0277965000132,244.598294800031,242.0277965000132,244.598294800031,242.0277965000132,244.598294800031,242.0277965000132,244.598294800031,242.0277965000132,244.598294800031,244.56507929996587,245.0654513000045,244.56507929996587,245.0654513000045,244.56507929996587,245.0654513000045,244.56507929996587,245.0654513000045,244.56507929996587,245.0654513000045,244.56507929996587,245.0654513000045,244.56507929996587,245.0654513000045,244.56507929996587,245.0654513000045,242.0277965000132,None,245.0654513000045,245.0654513000045,2.5600000000000023,245.0991141999839,None,245.84968320000917,None,,,,,,,0,1.4500000000000008,0.7894736842105263,11019,001,2024_Jan_05_0918,MFTM_A_new1021,2021.2.3,59.96595131093479,
,,,,,,,,stim/Instruction_adaptive.png,conditions/adaptive.xlsx,test,-0.6,-0.6,-0.6,0.6,0.6,left,L,,,,,0,1,1,1,0,19,19,75,,,,,,,,,,,,,,,,,,,,,,,,,,,,,,,,,,,,,,,,,,,,246.35170930007007,None,left,1,2.660274700028822,246.85103719995823,None,246.85103719995823,249.271539999987,246.85103719995823,249.271539999987,246.85103719995823,249.271539999987,246.85103719995823,249.271539999987,246.85103719995823,249.271539999987,249.23787980002817,249.73862009996083,249.23787980002817,249.73862009996083,249.23787980002817,249.73862009996083,249.23787980002817,249.73862009996083,249.23787980002817,249.73862009996083,249.23787980002817,249.73862009996083,249.23787980002817,249.73862009996083,249.23787980002817,249.73862009996083,246.85103719995823,None,249.73862009996083,249.73862009996083,2.410000000000002,249.7721258000238,None,250.5240085000405,None,,,,,,,0,1.540000000000001,0.8,11019,001,2024_Jan_05_0918,MFTM_A_new1021,2021.2.3,59.96595131093479,
,,,,,,,,stim/Instruction_adaptive.png,conditions/adaptive.xlsx,test,-0.6,-0.6,-0.6,0.6,0.6,left,L,,,,,0,1,1,1,0,20,20,41,,,,,,,,,,,,,,,,,,,,,,,,,,,,,,,,,,,,,,,,,,,,251.0245772000635,None,left,1,2.0903694999869913,251.5249944999814,None,251.5249944999814,253.79438850004226,251.5249944999814,253.79438850004226,251.5249944999814,253.79438850004226,251.5249944999814,253.79438850004226,251.5249944999814,253.79438850004226,253.76149479998276,254.26212800003123,253.76149479998276,254.26212800003123,253.76149479998276,254.26212800003123,253.76149479998276,254.26212800003123,253.76149479998276,254.26212800003123,253.76149479998276,254.26212800003123,253.76149479998276,254.26212800003123,253.76149479998276,254.26212800003123,251.5249944999814,None,254.26212800003123,254.26212800003123,2.2600000000000016,254.29537020006683,None,255.04680370003916,None,,,,,,,0,1.620000000000001,0.8095238095238095,11019,001,2024_Jan_05_0918,MFTM_A_new1021,2021.2.3,59.96595131093479,
,,,,,,,,stim/Instruction_adaptive.png,conditions/adaptive.xlsx,test,0.6,0.6,0.6,-0.6,-0.6,right,R,,,,,0,1,1,1,0,21,21,38,,,,,,,,,,,,,,,,,,,,,,,,,,,,,,,,,,,,,,,,,,,,255.54720579995774,None,right,1,2.847274799947627,256.04781919997185,258.7018006000435,256.04781919997185,258.2018403999973,256.04781919997185,258.2018403999973,256.04781919997185,258.2018403999973,256.04781919997185,258.2018403999973,256.04781919997185,258.2018403999973,258.16770400002133,258.6684081000276,258.16770400002133,258.6684081000276,258.16770400002133,258.6684081000276,258.16770400002133,258.6684081000276,258.16770400002133,258.6684081000276,258.16770400002133,258.6684081000276,258.16770400002133,258.6684081000276,258.16770400002133,258.6684081000276,256.04781919997185,None,258.6684081000276,258.9188513000263,2.1400000000000015,258.9353079999564,None,259.6890572999837,None,,,,,,,0,1.690000000000001,0.8181818181818182,11019,001,2024_Jan_05_0918,MFTM_A_new1021,2021.2.3,59.96595131093479,
,,,,,,,,stim/Instruction_adaptive.png,conditions/adaptive.xlsx,test,0.6,0.6,0.6,-0.6,-0.6,right,R,,,,,0,1,1,1,0,22,22,32,,,,,,,,,,,,,,,,,,,,,,,,,,,,,,,,,,,,,,,,,,,,260.18811280000955,None,left,0,2.5749443999957293,260.68849680002313,263.2425251000095,260.68849680002313,262.7413467000006,260.68849680002313,262.7413467000006,260.68849680002313,262.7413467000006,260.68849680002313,262.7413467000006,260.68849680002313,262.7413467000006,262.7084956000326,263.20845539995935,262.7084956000326,263.20845539995935,262.7084956000326,263.20845539995935,262.7084956000326,263.20845539995935,262.7084956000326,263.20845539995935,262.7084956000326,263.20845539995935,262.7084956000326,263.20845539995935,262.7084956000326,263.20845539995935,260.68849680002313,None,263.20845539995935,263.29175880004186,2.040000000000002,263.3086928999983,None,264.0604846000206,None,,,,,,,0,1.4900000000000009,0.782608695652174,11019,001,2024_Jan_05_0918,MFTM_A_new1021,2021.2.3,59.96595131093479,
,,,,,,,,stim/Instruction_adaptive.png,conditions/adaptive.xlsx,test,0.6,0.6,0.6,-0.6,-0.6,right,R,,,,,0,1,1,1,0,23,23,24,,,,,,,,,,,,,,,,,,,,,,,,,,,,,,,,,,,,,,,,,,,,264.5606317999773,None,right,1,2.7376275000860915,265.06197459995747,None,265.06197459995747,267.4152649999596,265.06197459995747,267.4152649999596,265.06197459995747,267.4152649999596,265.06197459995747,267.4152649999596,265.06197459995747,267.4152649999596,267.3822935000062,267.882223600056,267.3822935000062,267.882223600056,267.3822935000062,267.882223600056,267.3822935000062,267.882223600056,267.3822935000062,267.882223600056,267.3822935000062,267.882223600056,267.3822935000062,267.882223600056,267.3822935000062,267.882223600056,265.06197459995747,None,267.882223600056,267.882223600056,2.3400000000000016,267.9151414000662,None,268.66741440002806,None,,,,,,,0,1.560000000000001,0.7916666666666666,11019,001,2024_Jan_05_0918,MFTM_A_new1021,2021.2.3,59.96595131093479,
,,,,,,,,stim/Instruction_adaptive.png,conditions/adaptive.xlsx,test,-0.6,-0.6,-0.6,0.6,0.6,left,L,,,,,0,1,1,1,0,24,24,65,,,,,,,,,,,,,,,,,,,,,,,,,,,,,,,,,,,,,,,,,,,,269.16754559997935,None,left,1,2.523333500023,269.6680766000645,None,269.6680766000645,271.9056546000065,269.6680766000645,271.9056546000065,269.6680766000645,271.9056546000065,269.6680766000645,271.9056546000065,269.6680766000645,271.9056546000065,271.8716662999941,272.3724114999641,271.8716662999941,272.3724114999641,271.8716662999941,272.3724114999641,271.8716662999941,272.3724114999641,271.8716662999941,272.3724114999641,271.8716662999941,272.3724114999641,271.8716662999941,272.3724114999641,271.8716662999941,272.3724114999641,269.6680766000645,None,272.3724114999641,272.3724114999641,2.2300000000000018,272.40607859997544,None,273.15666149999015,None,,,,,,,0,1.630000000000001,0.8,11019,001,2024_Jan_05_0918,MFTM_A_new1021,2021.2.3,59.96595131093479,
,,,,,,,,stim/Instruction_adaptive.png,conditions/adaptive.xlsx,test,-0.6,-0.6,-0.6,0.6,0.6,left,L,,,,,0,1,1,1,0,25,25,39,,,,,,,,,,,,,,,,,,,,,,,,,,,,,,,,,,,,,,,,,,,,273.65751040005125,None,left,1,2.633012600010261,274.15824670006987,276.79541460005566,274.15824670006987,276.2946563999867,274.15824670006987,276.2946563999867,274.15824670006987,276.2946563999867,274.15824670006987,276.2946563999867,274.15824670006987,276.2946563999867,276.27807300002314,276.77921840001363,276.27807300002314,276.77921840001363,276.27807300002314,276.77921840001363,276.27807300002314,276.77921840001363,276.27807300002314,276.77921840001363,276.27807300002314,276.77921840001363,276.27807300002314,276.77921840001363,276.27807300002314,276.77921840001363,274.15824670006987,None,276.76228629995603,276.81202610000037,2.1300000000000017,276.8292697999859,None,277.5799508000491,None,,,,,,,0,1.690000000000001,0.8076923076923077,11019,001,2024_Jan_05_0918,MFTM_A_new1021,2021.2.3,59.96595131093479,
,,,,,,,,stim/Instruction_adaptive.png,conditions/adaptive.xlsx,test,-0.6,-0.6,-0.6,0.6,0.6,left,L,,,,,0,1,1,1,0,26,26,43,,,,,,,,,,,,,,,,,,,,,,,,,,,,,,,,,,,,,,,,,,,,278.08069450000767,None,right,0,2.5534837000304833,278.58212759997696,281.13560919999145,278.58212759997696,280.63499569997657,278.58212759997696,280.63499569997657,278.58212759997696,280.63499569997657,278.58212759997696,280.63499569997657,278.58212759997696,280.63499569997657,280.6010166000342,281.10281770001166,280.6010166000342,281.10281770001166,280.6010166000342,281.10281770001166,280.6010166000342,281.10281770001166,280.6010166000342,281.10281770001166,280.6010166000342,281.10281770001166,280.6010166000342,281.10281770001166,280.6010166000342,281.10281770001166,278.58212759997696,None,281.10281770001166,281.1516798000084,2.040000000000002,281.168392600026,None,281.9199643000029,None,,,,,,,0,1.510000000000001,0.7777777777777778,11019,001,2024_Jan_05_0918,MFTM_A_new1021,2021.2.3,59.96595131093479,
,,,,,,,,stim/Instruction_adaptive.png,conditions/adaptive.xlsx,test,-0.6,-0.6,-0.6,0.6,0.6,left,L,,,,,0,1,1,1,0,27,27,87,,,,,,,,,,,,,,,,,,,,,,,,,,,,,,,,,,,,,,,,,,,,282.42057059996296,None,left,1,2.6852822999935597,282.9218845999567,None,282.9218845999567,285.24161350005306,282.9218845999567,285.24161350005306,282.9218845999567,285.24161350005306,282.9218845999567,285.24161350005306,282.9218845999567,285.24161350005306,285.2077413999941,285.7092808999587,285.2077413999941,285.7092808999587,285.2077413999941,285.7092808999587,285.2077413999941,285.7092808999587,285.2077413999941,285.7092808999587,285.2077413999941,285.7092808999587,285.2077413999941,285.7092808999587,285.2077413999941,285.7092808999587,282.9218845999567,None,285.7092808999587,285.7092808999587,2.310000000000002,285.7417411999777,None,286.49305719998665,None,,,,,,,0,1.570000000000001,0.7857142857142857,11019,001,2024_Jan_05_0918,MFTM_A_new1021,2021.2.3,59.96595131093479,
,,,,,,,,stim/Instruction_adaptive.png,conditions/adaptive.xlsx,test,-0.6,-0.6,-0.6,0.6,0.6,left,L,,,,,0,1,1,1,0,28,28,83,,,,,,,,,,,,,,,,,,,,,,,,,,,,,,,,,,,,,,,,,,,,286.9935939999996,None,left,1,2.4966921999584883,287.4945432000095,None,287.4945432000095,289.7152733000694,287.4945432000095,289.7152733000694,287.4945432000095,289.7152733000694,287.4945432000095,289.7152733000694,287.4945432000095,289.7152733000694,289.6980487999972,290.198480400024,289.6980487999972,290.198480400024,289.6980487999972,290.198480400024,289.6980487999972,290.198480400024,289.6980487999972,290.198480400024,289.6980487999972,290.198480400024,289.6980487999972,290.198480400024,289.6980487999972,290.198480400024,287.4945432000095,None,290.198480400024,290.198480400024,2.2200000000000015,290.2153935000533,None,290.9664100999944,None,,,,,,,0,1.630000000000001,0.7931034482758621,11019,001,2024_Jan_05_0918,MFTM_A_new1021,2021.2.3,59.96595131093479,
,,,,,,,,stim/Instruction_adaptive.png,conditions/adaptive.xlsx,test,0.6,0.6,0.6,-0.6,-0.6,right,R,,,,,0,1,1,1,0,29,29,88,,,,,,,,,,,,,,,,,,,,,,,,,,,,,,,,,,,,,,,,,,,,291.4671082999557,None,right,1,2.3999263999285176,291.96773849998135,None,291.96773849998135,294.1052196000237,291.96773849998135,294.1052196000237,291.96773849998135,294.1052196000237,291.96773849998135,294.1052196000237,291.96773849998135,294.1052196000237,294.0877338000573,294.5883795999689,294.0877338000573,294.5883795999689,294.0877338000573,294.5883795999689,294.0877338000573,294.5883795999689,294.0877338000573,294.5883795999689,294.0877338000573,294.5883795999689,294.0877338000573,294.5883795999689,294.0877338000573,294.5883795999689,291.96773849998135,None,294.5883795999689,294.5883795999689,2.1300000000000017,294.60541169997305,None,295.3562589000212,None,,,,,,,0,1.690000000000001,0.8,11019,001,2024_Jan_05_0918,MFTM_A_new1021,2021.2.3,59.96595131093479,
,,,,,,,,stim/Instruction_adaptive.png,conditions/adaptive.xlsx,test,0.6,0.6,0.6,-0.6,-0.6,right,R,,,,,0,1,1,1,0,30,30,20,,,,,,,,,,,,,,,,,,,,,,,,,,,,,,,,,,,,,,,,,,,,295.85745070001576,None,right,1,2.2578307000221685,296.35752990003675,None,296.35752990003675,298.41088600002695,296.35752990003675,298.41088600002695,296.35752990003675,298.41088600002695,296.35752990003675,298.41088600002695,296.35752990003675,298.41088600002695,298.3772215000354,298.87839119997807,298.3772215000354,298.87839119997807,298.3772215000354,298.87839119997807,298.3772215000354,298.87839119997807,298.3772215000354,298.87839119997807,298.3772215000354,298.87839119997807,298.3772215000354,298.87839119997807,298.3772215000354,298.87839119997807,296.35752990003675,None,298.87839119997807,298.87839119997807,2.040000000000002,298.91124529996887,None,299.66357540001627,None,,,,,,,0,1.740000000000001,0.8064516129032258,11019,001,2024_Jan_05_0918,MFTM_A_new1021,2021.2.3,59.96595131093479,
,,,,,,,,stim/Instruction_adaptive.png,conditions/adaptive.xlsx,test,0.6,0.6,0.6,-0.6,-0.6,right,R,,,,,0,1,1,1,0,31,31,46,,,,,,,,,,,,,,,,,,,,,,,,,,,,,,,,,,,,,,,,,,,,300.1642877999693,None,left,0,2.278821099898778,300.6646640000399,None,300.6646640000399,302.63357149995863,300.6646640000399,302.63357149995863,300.6646640000399,302.63357149995863,300.6646640000399,302.63357149995863,300.6646640000399,302.63357149995863,302.617020900012,303.1177683999995,302.617020900012,303.1177683999995,302.617020900012,303.1177683999995,302.617020900012,303.1177683999995,302.617020900012,303.1177683999995,302.617020900012,303.1177683999995,302.617020900012,303.1177683999995,302.617020900012,303.1177683999995,300.6646640000399,None,303.1177683999995,303.1177683999995,1.9700000000000015,303.1341875999933,None,303.88622109999415,None,,,,,,,0,1.590000000000001,0.78125,11019,001,2024_Jan_05_0918,MFTM_A_new1021,2021.2.3,59.96595131093479,
,,,,,,,,stim/Instruction_adaptive.png,conditions/adaptive.xlsx,test,-0.6,-0.6,-0.6,0.6,0.6,left,L,,,,,0,1,1,1,0,32,32,51,,,,,,,,,,,,,,,,,,,,,,,,,,,,,,,,,,,,,,,,,,,,304.3861812000396,None,left,1,2.4563693000236526,304.8869162000483,None,304.8869162000483,307.091259000008,304.8869162000483,307.091259000008,304.8869162000483,307.091259000008,304.8869162000483,307.091259000008,304.8869162000483,307.091259000008,307.05740299995523,307.55750130000524,307.05740299995523,307.55750130000524,307.05740299995523,307.55750130000524,307.05740299995523,307.55750130000524,307.05740299995523,307.55750130000524,307.05740299995523,307.55750130000524,307.05740299995523,307.55750130000524,307.05740299995523,307.55750130000524,304.8869162000483,None,307.55750130000524,307.55750130000524,2.1900000000000017,307.5909529000055,None,308.3424040999962,None,,,,,,,0,1.640000000000001,0.7878787878787878,11019,001,2024_Jan_05_0918,MFTM_A_new1021,2021.2.3,59.96595131093479,
,,,,,,,,stim/Instruction_adaptive.png,conditions/adaptive.xlsx,test,-0.6,-0.6,-0.6,0.6,0.6,left,L,,,,,0,1,1,1,0,33,33,61,,,,,,,,,,,,,,,,,,,,,,,,,,,,,,,,,,,,,,,,,,,,308.8428504000185,None,left,1,2.6790624000132084,309.3442073999904,311.96466609998606,309.3442073999904,311.46334460005164,309.3442073999904,311.46334460005164,309.3442073999904,311.46334460005164,309.3442073999904,311.46334460005164,309.3442073999904,311.46334460005164,311.42990570003167,311.9306641999865,311.42990570003167,311.9306641999865,311.42990570003167,311.9306641999865,311.42990570003167,311.9306641999865,311.42990570003167,311.9306641999865,311.42990570003167,311.9306641999865,311.42990570003167,311.9306641999865,311.42990570003167,311.9306641999865,309.3442073999904,None,311.9306641999865,312.0476055999752,2.1100000000000017,312.064361799974,None,312.815366200055,None,,,,,,,0,1.690000000000001,0.7941176470588235,11019,001,2024_Jan_05_0918,MFTM_A_new1021,2021.2.3,59.96595131093479,
,,,,,,,,stim/Instruction_adaptive.png,conditions/adaptive.xlsx,test,-0.6,-0.6,-0.6,0.6,0.6,left,L,,,,,0,1,1,1,0,34,34,55,,,,,,,,,,,,,,,,,,,,,,,,,,,,,,,,,,,,,,,,,,,,313.31617800006643,None,left,1,2.3508743999991566,313.8166906000115,None,313.8166906000115,315.8701161000645,313.8166906000115,315.8701161000645,313.8166906000115,315.8701161000645,313.8166906000115,315.8701161000645,313.8166906000115,315.8701161000645,315.83651589998044,316.3373907000059,315.83651589998044,316.3373907000059,315.83651589998044,316.3373907000059,315.83651589998044,316.3373907000059,315.83651589998044,316.3373907000059,315.83651589998044,316.3373907000059,315.83651589998044,316.3373907000059,315.83651589998044,316.3373907000059,313.8166906000115,None,316.3373907000059,316.3373907000059,2.040000000000002,316.3706564999884,None,317.12172359996475,None,,,,,,,0,1.740000000000001,0.8,11019,001,2024_Jan_05_0918,MFTM_A_new1021,2021.2.3,59.96595131093479,
,,,,,,,,stim/Instruction_adaptive.png,conditions/adaptive.xlsx,test,-0.6,-0.6,-0.6,0.6,0.6,left,L,,,,,0,1,1,1,0,35,35,99,,,,,,,,,,,,,,,,,,,,,,,,,,,,,,,,,,,,,,,,,,,,317.62252700002864,None,left,1,2.1798823999706656,318.1233191000065,None,318.1233191000065,320.09364540001843,318.1233191000065,320.09364540001843,318.1233191000065,320.09364540001843,318.1233191000065,320.09364540001843,318.1233191000065,320.09364540001843,320.07619579997845,320.5778702000389,320.07619579997845,320.5778702000389,320.07619579997845,320.5778702000389,320.07619579997845,320.5778702000389,320.07619579997845,320.5778702000389,320.07619579997845,320.5778702000389,320.07619579997845,320.5778702000389,320.07619579997845,320.5778702000389,318.1233191000065,None,320.5778702000389,320.5778702000389,1.9700000000000015,320.59361920005176,None,321.3459688000148,None,,,,,,,0,1.7900000000000011,0.8055555555555556,11019,001,2024_Jan_05_0918,MFTM_A_new1021,2021.2.3,59.96595131093479,
,,,,,,,,stim/Instruction_adaptive.png,conditions/adaptive.xlsx,test,0.6,0.6,0.6,-0.6,-0.6,right,R,,,,,0,1,1,1,0,36,36,34,,,,,,,,,,,,,,,,,,,,,,,,,,,,,,,,,,,,,,,,,,,,321.8454408000689,None,right,1,2.3800849999533966,322.34706729999743,324.7502736999886,322.34706729999743,324.24989900004584,322.34706729999743,324.24989900004584,322.34706729999743,324.24989900004584,322.34706729999743,324.24989900004584,322.34706729999743,324.24989900004584,324.23316379997414,324.73306550004054,324.23316379997414,324.73306550004054,324.23316379997414,324.73306550004054,324.23316379997414,324.73306550004054,324.23316379997414,324.73306550004054,324.23316379997414,324.73306550004054,324.23316379997414,324.73306550004054,324.23316379997414,324.73306550004054,322.34706729999743,None,324.73306550004054,324.7502736999886,1.9000000000000015,324.7661918000085,None,325.51735029998235,None,,,,,,,0,1.8300000000000012,0.8108108108108109,11019,001,2024_Jan_05_0918,MFTM_A_new1021,2021.2.3,59.96595131093479,
,,,,,,,,stim/Instruction_adaptive.png,conditions/adaptive.xlsx,test,0.6,0.6,0.6,-0.6,-0.6,right,R,,,,,0,1,1,1,0,37,37,26,,,,,,,,,,,,,,,,,,,,,,,,,,,,,,,,,,,,,,,,,,,,326.0189020000398,None,right,1,2.1845615999773145,326.51892539998516,None,326.51892539998516,328.3722334000049,326.51892539998516,328.3722334000049,326.51892539998516,328.3722334000049,326.51892539998516,328.3722334000049,326.51892539998516,328.3722334000049,328.3550087000476,328.8557824000018,328.3550087000476,328.8557824000018,328.3550087000476,328.8557824000018,328.3550087000476,328.8557824000018,328.3550087000476,328.8557824000018,328.3550087000476,328.8557824000018,328.3550087000476,328.8557824000018,328.3550087000476,328.8557824000018,326.51892539998516,None,328.8557824000018,328.8557824000018,1.8500000000000014,328.87245969998185,None,329.62364750006236,None,,,,,,,0,1.8700000000000012,0.8157894736842105,11019,001,2024_Jan_05_0918,MFTM_A_new1021,2021.2.3,59.96595131093479,
,,,,,,,,stim/Instruction_adaptive.png,conditions/adaptive.xlsx,test,-0.6,-0.6,-0.6,0.6,0.6,left,L,,,,,0,1,1,1,0,38,38,95,,,,,,,,,,,,,,,,,,,,,,,,,,,,,,,,,,,,,,,,,,,,330.1245244999882,None,left,1,2.1255103000439703,330.62589889997616,None,330.62589889997616,332.42848250002135,330.62589889997616,332.42848250002135,330.62589889997616,332.42848250002135,330.62589889997616,332.42848250002135,330.62589889997616,332.42848250002135,332.411167299957,332.9117946999613,332.411167299957,332.9117946999613,332.411167299957,332.9117946999613,332.411167299957,332.9117946999613,332.411167299957,332.9117946999613,332.411167299957,332.9117946999613,332.411167299957,332.9117946999613,332.411167299957,332.9117946999613,330.62589889997616,None,332.9117946999613,332.9117946999613,1.8000000000000014,332.928602400003,None,333.6805432999972,None,,,,,,,0,1.9100000000000013,0.8205128205128205,11019,001,2024_Jan_05_0918,MFTM_A_new1021,2021.2.3,59.96595131093479,
,,,,,,,,stim/Instruction_adaptive.png,conditions/adaptive.xlsx,test,-0.6,-0.6,-0.6,0.6,0.6,left,L,,,,,0,1,1,1,0,39,39,21,,,,,,,,,,,,,,,,,,,,,,,,,,,,,,,,,,,,,,,,,,,,334.18117450003047,None,left,1,2.2456862000981346,334.68182090006303,336.93473430001177,334.68182090006303,336.4336475000018,334.68182090006303,336.4336475000018,334.68182090006303,336.4336475000018,334.68182090006303,336.4336475000018,334.68182090006303,336.4336475000018,336.41695830004755,336.9177159999963,336.41695830004755,336.9177159999963,336.41695830004755,336.9177159999963,336.41695830004755,336.9177159999963,336.41695830004755,336.9177159999963,336.41695830004755,336.9177159999963,336.41695830004755,336.9177159999963,336.41695830004755,336.9177159999963,334.68182090006303,None,336.9177159999963,336.95162089995574,1.7500000000000013,336.9678452999797,None,337.7196677000029,None,,,,,,,0,1.9500000000000013,0.825,11019,001,2024_Jan_05_0918,MFTM_A_new1021,2021.2.3,59.96595131093479,
,,,,,,,,stim/Instruction_adaptive.png,conditions/adaptive.xlsx,test,-0.6,-0.6,-0.6,0.6,0.6,left,L,,,,,0,1,1,1,0,40,40,17,,,,,,,,,,,,,,,,,,,,,,,,,,,,,,,,,,,,,,,,,,,,338.22028020001017,None,right,0,2.254981999984011,338.7202483000001,340.9249397000531,338.7202483000001,340.4234480999876,338.7202483000001,340.4234480999876,338.7202483000001,340.4234480999876,338.7202483000001,340.4234480999876,338.7202483000001,340.4234480999876,340.4063421000028,340.9069706000155,340.4063421000028,340.9069706000155,340.4063421000028,340.9069706000155,340.4063421000028,340.9069706000155,340.4063421000028,340.9069706000155,340.4063421000028,340.9069706000155,340.4063421000028,340.9069706000155,340.4063421000028,340.9069706000155,338.7202483000001,None,340.9069706000155,340.99073379999027,1.7000000000000013,341.00706019997597,None,341.75826360005885,None,,,,,,,[0.01463415],1.8400000000000012,0.8048780487804879,11019,001,2024_Jan_05_0918,MFTM_A_new1021,2021.2.3,59.96595131093479,
,,,,,,,,stim/Instruction_adaptive.png,conditions/adaptive.xlsx,test,-0.6,-0.6,-0.6,0.6,0.6,left,L,,,,,0,1,1,1,0,41,41,91,,,,,,,,,,,,,,,,,,,,,,,,,,,,,,,,,,,,,,,,,,,,342.2588946999749,None,left,1,2.143878599978052,342.75985969998874,345.1138643999584,342.75985969998874,344.6132232999662,342.75985969998874,344.6132232999662,342.75985969998874,344.6132232999662,342.75985969998874,344.6132232999662,342.75985969998874,344.6132232999662,344.5798514999915,345.0810901999939,344.5798514999915,345.0810901999939,344.5798514999915,345.0810901999939,344.5798514999915,345.0810901999939,344.5798514999915,345.0810901999939,344.5798514999915,345.0810901999939,344.5798514999915,345.0810901999939,344.5798514999915,345.0810901999939,342.75985969998874,None,345.0810901999939,345.1138643999584,1.8400000000000014,345.1298701000633,None,345.8822668000357,None,,,,,,,[0.03],1.8800000000000012,0.8095238095238095,11019,001,2024_Jan_05_0918,MFTM_A_new1021,2021.2.3,59.96595131093479,
,,,,,,,,stim/Instruction_adaptive.png,conditions/adaptive.xlsx,test,-0.6,-0.6,-0.6,0.6,0.6,left,L,,,,,0,1,1,1,0,42,42,11,,,,,,,,,,,,,,,,,,,,,,,,,,,,,,,,,,,,,,,,,,,,346.3826304000104,None,left,1,2.09307629999239,346.88246480003,349.1875244000694,346.88246480003,348.68510870006867,346.88246480003,348.68510870006867,346.88246480003,348.68510870006867,346.88246480003,348.68510870006867,346.88246480003,348.68510870006867,348.65176020003855,349.1523349999916,348.65176020003855,349.1523349999916,348.65176020003855,349.1523349999916,348.65176020003855,349.1523349999916,348.65176020003855,349.1523349999916,348.65176020003855,349.1523349999916,348.65176020003855,349.1523349999916,348.65176020003855,349.1523349999916,346.88246480003,None,349.1523349999916,349.2027617000276,1.7900000000000014,349.21986840001773,None,349.9709811999928,None,,,,,,,[0.04581395],1.9100000000000013,0.813953488372093,11019,001,2024_Jan_05_0918,MFTM_A_new1021,2021.2.3,59.96595131093479,
,,,,,,,,stim/Instruction_adaptive.png,conditions/adaptive.xlsx,test,-0.6,-0.6,-0.6,0.6,0.6,left,L,,,,,0,1,1,1,0,43,43,57,,,,,,,,,,,,,,,,,,,,,,,,,,,,,,,,,,,,,,,,,,,,350.4717033000197,None,left,1,1.05903510004282,350.9722494999878,353.2266572000226,350.9722494999878,352.72444729995914,350.9722494999878,352.72444729995914,350.9722494999878,352.72444729995914,350.9722494999878,352.72444729995914,350.9722494999878,352.72444729995914,352.7079000000376,353.2085683000041,352.7079000000376,353.2085683000041,352.7079000000376,353.2085683000041,352.7079000000376,353.2085683000041,352.7079000000376,353.2085683000041,352.7079000000376,353.2085683000041,352.7079000000376,353.2085683000041,352.7079000000376,353.2085683000041,350.9722494999878,None,353.2085683000041,353.2752017000457,1.7500000000000013,353.29196940001566,None,354.0436273000669,None,,,,,,,[0.06181818],1.9500000000000013,0.8181818181818182,11019,001,2024_Jan_05_0918,MFTM_A_new1021,2021.2.3,59.96595131093479,
,,,,,,,,stim/Instruction_adaptive.png,conditions/adaptive.xlsx,test,0.6,0.6,0.6,-0.6,-0.6,right,R,,,,,0,1,1,1,0,44,44,6,,,,,,,,,,,,,,,,,,,,,,,,,,,,,,,,,,,,,,,,,,,,354.54444780002814,None,right,1,1.962868900038302,355.04453830001876,357.24911370000336,355.04453830001876,356.7473713000072,355.04453830001876,356.7473713000072,355.04453830001876,356.7473713000072,355.04453830001876,356.7473713000072,355.04453830001876,356.7473713000072,356.7314936000621,357.23123080004007,356.7314936000621,357.23123080004007,356.7314936000621,357.23123080004007,356.7314936000621,357.23123080004007,356.7314936000621,357.23123080004007,356.7314936000621,357.23123080004007,356.7314936000621,357.23123080004007,356.7314936000621,357.23123080004007,355.04453830001876,None,357.23123080004007,357.3150181999663,1.7000000000000013,357.33178040001076,None,358.08418170001823,None,,,,,,,[0.07822222],1.9800000000000013,0.8222222222222222,11019,001,2024_Jan_05_0918,MFTM_A_new1021,2021.2.3,59.96595131093479,
,,,,,,,,stim/Instruction_adaptive.png,conditions/adaptive.xlsx,test,0.6,0.6,0.6,-0.6,-0.6,right,R,,,,,0,1,1,1,0,45,45,42,,,,,,,,,,,,,,,,,,,,,,,,,,,,,,,,,,,,,,,,,,,,358.5831466000527,None,right,1,1.643521499936469,359.0837598000653,361.2538136000512,359.0837598000653,360.75312220002525,359.0837598000653,360.75312220002525,359.0837598000653,360.75312220002525,359.0837598000653,360.75312220002525,359.0837598000653,360.75312220002525,360.7362219999777,361.2371194000589,360.7362219999777,361.2371194000589,360.7362219999777,361.2371194000589,360.7362219999777,361.2371194000589,360.7362219999777,361.2371194000589,360.7362219999777,361.2371194000589,360.7362219999777,361.2371194000589,360.7362219999777,361.2371194000589,359.0837598000653,None,361.2371194000589,361.33795800001826,1.6700000000000013,361.3544527000049,None,362.1052333000116,None,,,,,,,[0.09456522],2.0100000000000016,0.8260869565217391,11019,001,2024_Jan_05_0918,MFTM_A_new1021,2021.2.3,59.96595131093479,
,,,,,,,,stim/Instruction_adaptive.png,conditions/adaptive.xlsx,test,0.6,0.6,0.6,-0.6,-0.6,right,R,,,,,0,1,1,1,0,46,46,80,,,,,,,,,,,,,,,,,,,,,,,,,,,,,,,,,,,,,,,,,,,,362.60589969996363,None,right,1,1.541053400025703,363.1063547000522,365.2430525000673,363.1063547000522,364.7429773999611,363.1063547000522,364.7429773999611,363.1063547000522,364.7429773999611,363.1063547000522,364.7429773999611,363.1063547000522,364.7429773999611,364.7256879999768,365.22687520005275,364.7256879999768,365.22687520005275,364.7256879999768,365.22687520005275,364.7256879999768,365.22687520005275,364.7256879999768,365.22687520005275,364.7256879999768,365.22687520005275,364.7256879999768,365.22687520005275,364.7256879999768,365.22687520005275,363.1063547000522,None,365.22687520005275,365.34327870002016,1.6300000000000012,365.3598831000272,None,366.11102299997583,None,,,,,,,[0.11106383],2.0500000000000016,0.8297872340425532,11019,001,2024_Jan_05_0918,MFTM_A_new1021,2021.2.3,59.96595131093479,
,,,,,,,,stim/Instruction_adaptive.png,conditions/adaptive.xlsx,test,-0.6,-0.6,-0.6,0.6,0.6,left,L,,,,,0,1,1,1,0,47,47,77,,,,,,,,,,,,,,,,,,,,,,,,,,,,,,,,,,,,,,,,,,,,366.61180269997567,None,right,0,1.7668280999641865,367.11255570000503,369.21632200002205,367.11255570000503,368.7155928000575,367.11255570000503,368.7155928000575,367.11255570000503,368.7155928000575,367.11255570000503,368.7155928000575,367.11255570000503,368.7155928000575,368.6816894999938,369.1839492999716,368.6816894999938,369.1839492999716,368.6816894999938,369.1839492999716,368.6816894999938,369.1839492999716,368.6816894999938,369.1839492999716,368.6816894999938,369.1839492999716,368.6816894999938,369.1839492999716,368.6816894999938,369.1839492999716,367.11255570000503,None,369.1839492999716,369.31589510000776,1.5900000000000012,369.33319589996245,None,370.0843187000137,None,,,,,,,[0.12770833],1.9500000000000013,0.8125,11019,001,2024_Jan_05_0918,MFTM_A_new1021,2021.2.3,59.96595131093479,
,,,,,,,,stim/Instruction_adaptive.png,conditions/adaptive.xlsx,test,0.6,0.6,0.6,-0.6,-0.6,right,R,,,,,0,1,1,1,0,48,48,2,,,,,,,,,,,,,,,,,,,,,,,,,,,,,,,,,,,,,,,,,,,,370.58534640003927,None,right,1,2.01828249997925,371.08493809995707,373.2901081000455,371.08493809995707,372.78845750004984,371.08493809995707,372.78845750004984,371.08493809995707,372.78845750004984,371.08493809995707,372.78845750004984,371.08493809995707,372.78845750004984,372.77108550001867,373.2716670000227,372.77108550001867,373.2716670000227,372.77108550001867,373.2716670000227,372.77108550001867,373.2716670000227,372.77108550001867,373.2716670000227,372.77108550001867,373.2716670000227,372.77108550001867,373.2716670000227,372.77108550001867,373.2716670000227,371.08493809995707,None,373.2716670000227,373.4229932000162,1.7000000000000013,373.4378927999642,None,374.1901608000044,None,,,,,,,[0.14142857],1.9900000000000013,0.8163265306122449,11019,001,2024_Jan_05_0918,MFTM_A_new1021,2021.2.3,59.96595131093479,
,,,,,,,,stim/Instruction_adaptive.png,conditions/adaptive.xlsx,test,-0.6,-0.6,-0.6,0.6,0.6,left,L,,,,,0,1,1,1,0,49,49,47,,,,,,,,,,,,,,,,,,,,,,,,,,,,,,,,,,,,,,,,,,,,374.6905712999869,None,left,1,1.904433500021696,375.19185659999494,377.3614204999758,375.19185659999494,376.8603602000512,375.19185659999494,376.8603602000512,375.19185659999494,376.8603602000512,375.19185659999494,376.8603602000512,375.19185659999494,376.8603602000512,376.8269265999552,377.32825839996804,376.8269265999552,377.32825839996804,376.8269265999552,377.32825839996804,376.8269265999552,377.32825839996804,376.8269265999552,377.32825839996804,376.8269265999552,377.32825839996804,376.8269265999552,377.32825839996804,376.8269265999552,377.32825839996804,375.19185659999494,None,377.32825839996804,377.4949104000116,1.6600000000000013,377.5113162000198,None,378.2624222000595,None,,,,,,,[0.1554],2.0200000000000014,0.82,11019,001,2024_Jan_05_0918,MFTM_A_new1021,2021.2.3,59.96595131093479,
,,,,,,,,stim/Instruction_adaptive.png,conditions/adaptive.xlsx,test,-0.6,-0.6,-0.6,0.6,0.6,left,L,,,,,0,1,1,1,0,50,50,3,,,,,,,,,,,,,,,,,,,,,,,,,,,,,,,,,,,,,,,,,,,,378.76304870005697,None,left,1,2.3755680000176653,379.2639269999927,381.3837926000124,379.2639269999927,380.8831130999606,379.2639269999927,380.8831130999606,379.2639269999927,380.8831130999606,379.2639269999927,380.8831130999606,379.2639269999927,380.8831130999606,380.8669942000415,381.36767040006816,380.8669942000415,381.36767040006816,380.8669942000415,381.36767040006816,380.8669942000415,381.36767040006816,380.8669942000415,381.36767040006816,380.8669942000415,381.36767040006816,380.8669942000415,381.36767040006816,380.8669942000415,381.36767040006816,379.2639269999927,None,381.36767040006816,381.6675462999847,1.6200000000000012,381.684138600016,None,382.4353132999968,None,,,,,,,[0.16960784],2.0500000000000016,0.8235294117647058,11019,001,2024_Jan_05_0918,MFTM_A_new1021,2021.2.3,59.96595131093479,
,,,,,,,,stim/Instruction_adaptive.png,conditions/adaptive.xlsx,test,-0.6,-0.6,-0.6,0.6,0.6,left,L,,,,,0,1,1,1,0,51,51,27,,,,,,,,,,,,,,,,,,,,,,,,,,,,,,,,,,,,,,,,,,,,382.9359198999591,None,left,1,1.9389787000836805,383.43665739998687,385.541213599965,383.43665739998687,385.0390471999999,383.43665739998687,385.0390471999999,383.43665739998687,385.0390471999999,383.43665739998687,385.0390471999999,383.43665739998687,385.0390471999999,385.00567920005415,385.50640099996235,385.00567920005415,385.50640099996235,385.00567920005415,385.50640099996235,385.00567920005415,385.50640099996235,385.00567920005415,385.50640099996235,385.00567920005415,385.50640099996235,385.00567920005415,385.50640099996235,385.00567920005415,385.50640099996235,383.43665739998687,None,385.50640099996235,385.6911124000326,1.5900000000000012,385.7234187000431,None,386.4751328000566,None,,,,,,,[0.18384615],2.0800000000000014,0.8269230769230769,11019,001,2024_Jan_05_0918,MFTM_A_new1021,2021.2.3,59.96595131093479,
,,,,,,,,stim/Instruction_adaptive.png,conditions/adaptive.xlsx,test,0.6,0.6,0.6,-0.6,-0.6,right,R,,,,,0,1,1,1,0,52,52,98,,,,,,,,,,,,,,,,,,,,,,,,,,,,,,,,,,,,,,,,,,,,386.9753032999579,None,right,1,2.515363799990155,387.47600150003564,389.5457069000695,387.47600150003564,389.04538979998324,387.47600150003564,389.04538979998324,387.47600150003564,389.04538979998324,387.47600150003564,389.04538979998324,387.47600150003564,389.04538979998324,389.011600799975,389.51378759997897,389.011600799975,389.51378759997897,389.011600799975,389.51378759997897,389.011600799975,389.51378759997897,389.011600799975,389.51378759997897,389.011600799975,389.51378759997897,389.011600799975,389.51378759997897,389.011600799975,389.51378759997897,387.47600150003564,None,389.51378759997897,390.01312769996,1.5600000000000012,390.0298025000375,None,390.78172019997146,None,,,,,,,[0.19811321],2.1000000000000014,0.8301886792452831,11019,001,2024_Jan_05_0918,MFTM_A_new1021,2021.2.3,59.96595131093479,
,,,,,,,,stim/Instruction_adaptive.png,conditions/adaptive.xlsx,test,0.6,0.6,0.6,-0.6,-0.6,right,R,,,,,0,1,1,1,0,53,53,48,,,,,,,,,,,,,,,,,,,,,,,,,,,,,,,,,,,,,,,,,,,,391.28246070002206,None,right,1,2.64961870003026,391.78240480006207,393.81876719999127,391.78240480006207,393.3178699000273,391.78240480006207,393.3178699000273,391.78240480006207,393.3178699000273,391.78240480006207,393.3178699000273,391.78240480006207,393.3178699000273,393.3014860000694,393.8023017999949,393.3014860000694,393.8023017999949,393.3014860000694,393.8023017999949,393.3014860000694,393.8023017999949,393.3014860000694,393.8023017999949,393.3014860000694,393.8023017999949,393.3014860000694,393.8023017999949,393.3014860000694,393.8023017999949,391.78240480006207,None,393.78558250004426,394.45284370006993,1.5300000000000011,394.469647699967,None,395.22078420000616,None,,,,,,,[0.21240741],2.1300000000000017,0.8333333333333334,11019,001,2024_Jan_05_0918,MFTM_A_new1021,2021.2.3,59.96595131093479,
,,,,,,,,stim/Instruction_adaptive.png,conditions/adaptive.xlsx,test,0.6,0.6,0.6,-0.6,-0.6,right,R,,,,,0,1,1,1,0,54,54,72,,,,,,,,,,,,,,,,,,,,,,,,,,,,,,,,,,,,,,,,,,,,395.72223730001133,None,right,1,1.8087917999364436,396.2227382999845,398.22569750004914,396.2227382999845,397.7245467000175,396.2227382999845,397.7245467000175,396.2227382999845,397.7245467000175,396.2227382999845,397.7245467000175,396.2227382999845,397.7245467000175,397.70764529996086,398.208800900029,397.70764529996086,398.208800900029,397.70764529996086,398.208800900029,397.70764529996086,398.208800900029,397.70764529996086,398.208800900029,397.70764529996086,398.208800900029,397.70764529996086,398.208800900029,397.70764529996086,398.208800900029,396.2227382999845,None,398.208800900029,398.442307600053,1.500000000000001,398.45893459999934,None,399.2107422000263,None,,,,,,,[0.22672727],2.1600000000000015,0.8363636363636363,11019,001,2024_Jan_05_0918,MFTM_A_new1021,2021.2.3,59.96595131093479,
,,,,,,,,stim/Instruction_adaptive.png,conditions/adaptive.xlsx,test,0.6,0.6,0.6,-0.6,-0.6,right,R,,,,,0,1,1,1,0,55,55,82,,,,,,,,,,,,,,,,,,,,,,,,,,,,,,,,,,,,,,,,,,,,399.71128639997914,None,right,1,2.4518410000018775,400.21138630004134,402.1811362999724,400.21138630004134,401.68073929997627,400.21138630004134,401.68073929997627,400.21138630004134,401.68073929997627,400.21138630004134,401.68073929997627,400.21138630004134,401.68073929997627,401.6636542000342,402.1643038999755,401.6636542000342,402.1643038999755,401.6636542000342,402.1643038999755,401.6636542000342,402.1643038999755,401.6636542000342,402.1643038999755,401.6636542000342,402.1643038999755,401.6636542000342,402.1643038999755,401.6636542000342,402.1643038999755,400.21138630004134,None,402.1643038999755,402.68194350006524,1.470000000000001,402.6988417999819,None,403.4499884999823,None,,,,,,,[0.24107143],2.1800000000000015,0.8392857142857143,11019,001,2024_Jan_05_0918,MFTM_A_new1021,2021.2.3,59.96595131093479,
,,,,,,,,stim/Instruction_adaptive.png,conditions/adaptive.xlsx,test,-0.6,-0.6,-0.6,0.6,0.6,left,L,,,,,0,1,1,1,0,56,56,37,,,,,,,,,,,,,,,,,,,,,,,,,,,,,,,,,,,,,,,,,,,,403.9505468000425,None,left,1,2.3241613999707624,404.45109520002734,406.4050843999721,404.45109520002734,405.90327640005853,404.45109520002734,405.90327640005853,404.45109520002734,405.90327640005853,404.45109520002734,405.90327640005853,404.45109520002734,405.90327640005853,405.8865711999824,406.38736279995646,405.8865711999824,406.38736279995646,405.8865711999824,406.38736279995646,405.8865711999824,406.38736279995646,405.8865711999824,406.38736279995646,405.8865711999824,406.38736279995646,405.8865711999824,406.38736279995646,405.8865711999824,406.38736279995646,404.45109520002734,None,406.38736279995646,406.8044285000069,1.450000000000001,406.8213351999875,None,407.5727018000325,None,,,,,,,[0.25526316],2.2100000000000017,0.8421052631578947,11019,001,2024_Jan_05_0918,MFTM_A_new1021,2021.2.3,59.96595131093479,
,,,,,,,,stim/Instruction_adaptive.png,conditions/adaptive.xlsx,test,-0.6,-0.6,-0.6,0.6,0.6,left,L,,,,,0,1,1,1,0,57,57,45,,,,,,,,,,,,,,,,,,,,,,,,,,,,,,,,,,,,,,,,,,,,408.07326650002506,None,right,0,2.4406740000704303,408.5745897999732,410.4933393000392,408.5745897999732,410.0094013999915,408.5745897999732,410.0094013999915,408.5745897999732,410.0094013999915,408.5745897999732,410.0094013999915,408.5745897999732,410.0094013999915,409.97599239996634,410.47703449998517,409.97599239996634,410.47703449998517,409.97599239996634,410.47703449998517,409.97599239996634,410.47703449998517,409.97599239996634,410.47703449998517,409.97599239996634,410.47703449998517,409.97599239996634,410.47703449998517,409.97599239996634,410.47703449998517,408.5745897999732,None,410.47703449998517,411.0458660000004,1.420000000000001,411.07870600000024,None,411.8299358000513,None,,,,,,,[0.26948276],2.1400000000000015,0.8275862068965517,11019,001,2024_Jan_05_0918,MFTM_A_new1021,2021.2.3,59.96595131093479,
,,,,,,,,stim/Instruction_adaptive.png,conditions/adaptive.xlsx,test,0.6,0.6,0.6,-0.6,-0.6,right,R,,,,,0,1,1,1,0,58,58,68,,,,,,,,,,,,,,,,,,,,,,,,,,,,,,,,,,,,,,,,,,,,412.33091650006827,None,right,1,2.128298799972981,412.83113750000484,414.83379900001455,412.83113750000484,414.3325371000683,412.83113750000484,414.3325371000683,412.83113750000484,414.3325371000683,412.83113750000484,414.3325371000683,412.83113750000484,414.3325371000683,414.2989298000466,414.7999238000484,414.2989298000466,414.7999238000484,414.2989298000466,414.7999238000484,414.2989298000466,414.7999238000484,414.2989298000466,414.7999238000484,414.2989298000466,414.7999238000484,414.2989298000466,414.7999238000484,414.2989298000466,414.7999238000484,412.83113750000484,None,414.7999238000484,415.0837536000181,1.490000000000001,415.1169330000412,None,415.86801480001304,None,,,,,,,[0.2820339],2.1600000000000015,0.8305084745762712,11019,001,2024_Jan_05_0918,MFTM_A_new1021,2021.2.3,59.96595131093479,
,,,,,,,,stim/Instruction_adaptive.png,conditions/adaptive.xlsx,test,0.6,0.6,0.6,-0.6,-0.6,right,R,,,,,0,1,1,1,0,59,59,8,,,,,,,,,,,,,,,,,,,,,,,,,,,,,,,,,,,,,,,,,,,,416.36887989996467,None,left,0,2.0423379000276327,416.8694195999997,418.8391921999864,416.8694195999997,418.3552551000612,416.8694195999997,418.3552551000612,416.8694195999997,418.3552551000612,416.8694195999997,418.3552551000612,416.8694195999997,418.3552551000612,418.3215621999698,418.8237361999927,418.3215621999698,418.8237361999927,418.3215621999698,418.8237361999927,418.3215621999698,418.8237361999927,418.3215621999698,418.8237361999927,418.3215621999698,418.8237361999927,418.3215621999698,418.8237361999927,418.3215621999698,418.8237361999927,416.8694195999997,None,418.8237361999927,419.1230095999781,1.470000000000001,419.13951929996256,None,419.8907231000485,None,,,,,,,[0.2945],2.0900000000000016,0.8166666666666667,11019,001,2024_Jan_05_0918,MFTM_A_new1021,2021.2.3,59.96595131093479,
,,,,,,,,stim/Instruction_adaptive.png,conditions/adaptive.xlsx,test,0.6,0.6,0.6,-0.6,-0.6,right,R,,,,,0,1,1,1,0,60,60,28,,,,,,,,,,,,,,,,,,,,,,,,,,,,,,,,,,,,,,,,,,,,420.39286899997387,None,right,1,1.4357625999255106,420.89228799997363,422.94635119999293,420.89228799997363,422.44450179999694,420.89228799997363,422.44450179999694,420.89228799997363,422.44450179999694,420.89228799997363,422.44450179999694,420.89228799997363,422.44450179999694,422.42779510002583,422.9292695999611,422.42779510002583,422.9292695999611,422.42779510002583,422.9292695999611,422.42779510002583,422.9292695999611,422.42779510002583,422.9292695999611,422.42779510002583,422.9292695999611,422.42779510002583,422.9292695999611,422.42779510002583,422.9292695999611,420.89228799997363,None,422.9292695999611,None,1.5500000000000012,423.24525709997397,None,423.996617399971,None,,,,,,,[0.3052459],2.110000000000001,0.819672131147541,11019,001,2024_Jan_05_0918,MFTM_A_new1021,2021.2.3,59.96595131093479,
,,,,,,,,stim/Instruction_adaptive.png,conditions/adaptive.xlsx,test,-0.6,-0.6,-0.6,0.6,0.6,left,L,,,,,0,1,1,1,0,61,61,33,,,,,,,,,,,,,,,,,,,,,,,,,,,,,,,,,,,,,,,,,,,,424.4976021000184,None,left,1,1.9691888999659568,424.99827600002754,427.0181775999954,424.99827600002754,426.53393879998475,424.99827600002754,426.53393879998475,424.99827600002754,426.53393879998475,424.99827600002754,426.53393879998475,424.99827600002754,426.53393879998475,426.50047800003085,427.00129020004533,426.50047800003085,427.00129020004533,426.50047800003085,427.00129020004533,426.50047800003085,427.00129020004533,426.50047800003085,427.00129020004533,426.50047800003085,427.00129020004533,426.50047800003085,427.00129020004533,426.50047800003085,427.00129020004533,424.99827600002754,None,427.00129020004533,427.3184592999751,1.5200000000000011,427.3352413000539,None,428.086858100025,None,,,,,,,[0.31612903],2.1400000000000015,0.8225806451612904,11019,001,2024_Jan_05_0918,MFTM_A_new1021,2021.2.3,59.96595131093479,
,,,,,,,,stim/Instruction_adaptive.png,conditions/adaptive.xlsx,test,0.6,0.6,0.6,-0.6,-0.6,right,R,,,,,0,1,1,1,0,62,62,0,,,,,,,,,,,,,,,,,,,,,,,,,,,,,,,,,,,,,,,,,,,,428.58752199995797,None,left,0,1.8395315000088885,429.0877432000125,431.090553099988,429.0877432000125,430.5908062000526,429.0877432000125,430.5908062000526,429.0877432000125,430.5908062000526,429.0877432000125,430.5908062000526,429.0877432000125,430.5908062000526,430.5565507999854,431.0578861000249,430.5565507999854,431.0578861000249,430.5565507999854,431.0578861000249,430.5565507999854,431.0578861000249,430.5565507999854,431.0578861000249,430.5565507999854,431.0578861000249,430.5565507999854,431.0578861000249,430.5565507999854,431.0578861000249,429.0877432000125,None,431.0578861000249,431.3910718000261,1.490000000000001,431.4077180000022,None,432.15939160005655,None,,,,,,,[0.32714286],2.0600000000000014,0.8095238095238095,11019,001,2024_Jan_05_0918,MFTM_A_new1021,2021.2.3,59.96595131093479,
,,,,,,,,stim/Instruction_adaptive.png,conditions/adaptive.xlsx,test,-0.6,-0.6,-0.6,0.6,0.6,left,L,,,,,0,1,1,1,0,63,63,53,,,,,,,,,,,,,,,,,,,,,,,,,,,,,,,,,,,,,,,,,,,,432.6606545000104,None,right,0,2.1590881999582052,433.1604353999719,435.24670610006433,433.1604353999719,434.7461644000141,433.1604353999719,434.7461644000141,433.1604353999719,434.7461644000141,433.1604353999719,434.7461644000141,433.1604353999719,434.7461644000141,434.7299993999768,435.2301415000111,434.7299993999768,435.2301415000111,434.7299993999768,435.2301415000111,434.7299993999768,435.2301415000111,434.7299993999768,435.2301415000111,434.7299993999768,435.2301415000111,434.7299993999768,435.2301415000111,434.7299993999768,435.2301415000111,433.1604353999719,None,435.2301415000111,None,1.5800000000000012,435.5806235000491,None,436.3318012000527,None,,,,,,,[0.33640625],1.9900000000000013,0.796875,11019,001,2024_Jan_05_0918,MFTM_A_new1021,2021.2.3,59.96595131093479,
,,,,,,,,stim/Instruction_adaptive.png,conditions/adaptive.xlsx,test,-0.6,-0.6,-0.6,0.6,0.6,left,L,,,,,0,1,1,1,0,64,64,67,,,,,,,,,,,,,,,,,,,,,,,,,,,,,,,,,,,,,,,,,,,,436.8329151000362,None,left,1,1.154375100042671,437.3332588999765,439.50306190003175,437.3332588999765,439.0024730999721,437.3332588999765,439.0024730999721,437.3332588999765,439.0024730999721,437.3332588999765,439.0024730999721,437.3332588999765,439.0024730999721,438.9693658000324,439.46978010004386,438.9693658000324,439.46978010004386,438.9693658000324,439.46978010004386,438.9693658000324,439.46978010004386,438.9693658000324,439.46978010004386,438.9693658000324,439.46978010004386,438.9693658000324,439.46978010004386,438.9693658000324,439.46978010004386,437.3332588999765,None,439.46978010004386,439.8200632999651,1.6600000000000013,439.8371786000207,None,440.58806019998156,None,,,,,,,[0.34415385],2.0200000000000014,0.8,11019,001,2024_Jan_05_0918,MFTM_A_new1021,2021.2.3,59.96595131093479,
,,,,,,,,stim/Instruction_adaptive.png,conditions/adaptive.xlsx,test,-0.6,-0.6,-0.6,0.6,0.6,left,L,,,,,0,1,1,1,0,65,65,63,,,,,,,,,,,,,,,,,,,,,,,,,,,,,,,,,,,,,,,,,,,,441.08885140006896,None,left,1,2.273709199973382,441.5898441000609,443.70933480001986,441.5898441000609,443.22591989999637,441.5898441000609,443.22591989999637,441.5898441000609,443.22591989999637,441.5898441000609,443.22591989999637,441.5898441000609,443.22591989999637,443.1918898000149,443.6928246000316,443.1918898000149,443.6928246000316,443.1918898000149,443.6928246000316,443.1918898000149,443.6928246000316,443.1918898000149,443.6928246000316,443.1918898000149,443.6928246000316,443.1918898000149,443.6928246000316,443.1918898000149,443.6928246000316,441.5898441000609,None,443.6928246000316,444.0614820000483,1.6200000000000012,444.07692749996204,None,444.8283760000486,None,,,,,,,[0.35227273],2.0400000000000014,0.803030303030303,11019,001,2024_Jan_05_0918,MFTM_A_new1021,2021.2.3,59.96595131093479,
,,,,,,,,stim/Instruction_adaptive.png,conditions/adaptive.xlsx,test,-0.6,-0.6,-0.6,0.6,0.6,left,L,,,,,0,1,1,1,0,66,66,73,,,,,,,,,,,,,,,,,,,,,,,,,,,,,,,,,,,,,,,,,,,,445.3283538999967,None,left,1,1.5779323000460863,445.82948449999094,447.93309950002003,445.82948449999094,447.4315420000348,445.82948449999094,447.4315420000348,445.82948449999094,447.4315420000348,445.82948449999094,447.4315420000348,445.82948449999094,447.4315420000348,447.4149225000292,447.9158715000376,447.4149225000292,447.9158715000376,447.4149225000292,447.9158715000376,447.4149225000292,447.9158715000376,447.4149225000292,447.9158715000376,447.4149225000292,447.9158715000376,447.4149225000292,447.9158715000376,447.4149225000292,447.9158715000376,445.82948449999094,None,447.9158715000376,448.2827967000194,1.6000000000000012,448.2994415999856,None,449.0512209000299,None,,,,,,,[0.36044776],2.0600000000000014,0.8059701492537313,11019,001,2024_Jan_05_0918,MFTM_A_new1021,2021.2.3,59.96595131093479,
,,,,,,,,stim/Instruction_adaptive.png,conditions/adaptive.xlsx,test,-0.6,-0.6,-0.6,0.6,0.6,left,L,,,,,0,1,1,1,0,67,67,25,,,,,,,,,,,,,,,,,,,,,,,,,,,,,,,,,,,,,,,,,,,,449.551384099992,None,left,1,1.1958312999922782,450.0519214000087,452.1387679000618,450.0519214000087,451.63780060003046,450.0519214000087,451.63780060003046,450.0519214000087,451.63780060003046,450.0519214000087,451.63780060003046,450.0519214000087,451.63780060003046,451.62139089999255,452.1217920000199,451.62139089999255,452.1217920000199,451.62139089999255,452.1217920000199,451.62139089999255,452.1217920000199,451.62139089999255,452.1217920000199,451.62139089999255,452.1217920000199,451.62139089999255,452.1217920000199,451.62139089999255,452.1217920000199,450.0519214000087,None,452.1217920000199,452.49041480000596,1.5800000000000012,452.5058815999655,None,453.25702640006784,None,,,,,,,[0.36867647],2.0900000000000016,0.8088235294117647,11019,001,2024_Jan_05_0918,MFTM_A_new1021,2021.2.3,59.96595131093479,
,,,,,,,,stim/Instruction_adaptive.png,conditions/adaptive.xlsx,test,0.6,0.6,0.6,-0.6,-0.6,right,R,,,,,0,1,1,1,0,68,68,58,,,,,,,,,,,,,,,,,,,,,,,,,,,,,,,,,,,,,,,,,,,,453.7574488000246,None,left,0,1.6446552000707015,454.2587407999672,456.3119314999785,454.2587407999672,455.811296400032,454.2587407999672,455.811296400032,454.2587407999672,455.811296400032,454.2587407999672,455.811296400032,454.2587407999672,455.811296400032,455.79381719999947,456.29454869998153,455.79381719999947,456.29454869998153,455.79381719999947,456.29454869998153,455.79381719999947,456.29454869998153,455.79381719999947,456.29454869998153,455.79381719999947,456.29454869998153,455.79381719999947,456.29454869998153,455.79381719999947,456.29454869998153,454.2587407999672,None,456.29454869998153,456.6784040000057,1.5500000000000012,456.69523860001937,None,457.44722179998644,None,,,,,,,[0.37710145],2.0200000000000014,0.7971014492753623,11019,001,2024_Jan_05_0918,MFTM_A_new1021,2021.2.3,59.96595131093479,
,,,,,,,,stim/Instruction_adaptive.png,conditions/adaptive.xlsx,test,-0.6,-0.6,-0.6,0.6,0.6,left,L,,,,,0,1,1,1,0,69,69,23,,,,,,,,,,,,,,,,,,,,,,,,,,,,,,,,,,,,,,,,,,,,457.9470304000424,None,right,0,0.99943029996939,458.4481267000083,460.5677772000199,458.4481267000083,460.06691369996406,458.4481267000083,460.06691369996406,458.4481267000083,460.06691369996406,458.4481267000083,460.06691369996406,458.4481267000083,460.06691369996406,460.0510277999565,460.5511261000065,460.0510277999565,460.5511261000065,460.0510277999565,460.5511261000065,460.0510277999565,460.5511261000065,460.0510277999565,460.5511261000065,460.0510277999565,460.5511261000065,460.0510277999565,460.5511261000065,460.0510277999565,460.5511261000065,458.4481267000083,None,460.5511261000065,460.9357516999589,1.6200000000000012,460.9517990000313,None,461.70263379998505,None,,,,,,,[0.38428571],1.9500000000000013,0.7857142857142857,11019,001,2024_Jan_05_0918,MFTM_A_new1021,2021.2.3,59.96595131093479,
,,,,,,,,stim/Instruction_adaptive.png,conditions/adaptive.xlsx,test,0.6,0.6,0.6,-0.6,-0.6,right,R,,,,,0,1,1,1,0,70,70,10,,,,,,,,,,,,,,,,,,,,,,,,,,,,,,,,,,,,,,,,,,,,462.2035128000425,None,right,1,2.3996651999186724,462.7039592000656,464.90807959996164,462.7039592000656,464.40686700004153,462.7039592000656,464.40686700004153,462.7039592000656,464.40686700004153,462.7039592000656,464.40686700004153,462.7039592000656,464.40686700004153,464.39095190004446,464.8905762999784,464.39095190004446,464.8905762999784,464.39095190004446,464.8905762999784,464.39095190004446,464.8905762999784,464.39095190004446,464.8905762999784,464.39095190004446,464.8905762999784,464.39095190004446,464.8905762999784,464.39095190004446,464.8905762999784,462.7039592000656,None,464.8905762999784,465.2920594000025,1.7000000000000013,465.3078770999564,None,466.05916830000933,None,,,,,,,[0.39014085],1.9700000000000013,0.7887323943661971,11019,001,2024_Jan_05_0918,MFTM_A_new1021,2021.2.3,59.96595131093479,
,,,,,,,,stim/Instruction_adaptive.png,conditions/adaptive.xlsx,test,0.6,0.6,0.6,-0.6,-0.6,right,R,,,,,0,1,1,1,0,71,71,4,,,,,,,,,,,,,,,,,,,,,,,,,,,,,,,,,,,,,,,,,,,,466.5605604000157,None,right,1,1.6747280000708997,467.0606881000567,469.24772310000844,467.0606881000567,468.74645820003934,467.0606881000567,468.74645820003934,467.0606881000567,468.74645820003934,467.0606881000567,468.74645820003934,467.0606881000567,468.74645820003934,468.7311644000001,469.23108130006585,468.7311644000001,469.23108130006585,468.7311644000001,469.23108130006585,468.7311644000001,469.23108130006585,468.7311644000001,469.23108130006585,468.7311644000001,469.23108130006585,468.7311644000001,469.23108130006585,468.7311644000001,469.23108130006585,467.0606881000567,None,469.23108130006585,469.6311733999755,1.6800000000000013,469.6478769000387,None,470.3995986999944,None,,,,,,,[0.39611111],2.0000000000000013,0.7916666666666666,11019,001,2024_Jan_05_0918,MFTM_A_new1021,2021.2.3,59.96595131093479,
,,,,,,,,stim/Instruction_adaptive.png,conditions/adaptive.xlsx,test,0.6,0.6,0.6,-0.6,-0.6,right,R,,,,,0,1,1,1,0,72,72,76,,,,,,,,,,,,,,,,,,,,,,,,,,,,,,,,,,,,,,,,,,,,470.8996731999796,None,left,0,2.2148930000839755,471.400526399957,473.55469200003427,471.400526399957,473.05280639999546,471.400526399957,473.05280639999546,471.400526399957,473.05280639999546,471.400526399957,473.05280639999546,471.400526399957,473.05280639999546,473.0194269999629,473.5208420000272,473.0194269999629,473.5208420000272,473.0194269999629,473.5208420000272,473.0194269999629,473.5208420000272,473.0194269999629,473.5208420000272,473.0194269999629,473.5208420000272,473.0194269999629,473.5208420000272,473.0194269999629,473.5208420000272,471.400526399957,None,473.5208420000272,473.93857180001214,1.6400000000000012,473.95471630000975,None,474.7052862000419,None,,,,,,,[0.40246575],1.9300000000000013,0.7808219178082192,11019,001,2024_Jan_05_0918,MFTM_A_new1021,2021.2.3,59.96595131093479,
,,,,,,,,stim/Instruction_adaptive.png,conditions/adaptive.xlsx,test,0.6,0.6,0.6,-0.6,-0.6,right,R,,,,,0,1,1,1,0,73,73,12,,,,,,,,,,,,,,,,,,,,,,,,,,,,,,,,,,,,,,,,,,,,475.20665910001844,None,left,0,1.732804900035262,475.7070439000381,477.9433388999896,475.7070439000381,477.4425490000285,475.7070439000381,477.4425490000285,475.7070439000381,477.4425490000285,475.7070439000381,477.4425490000285,475.7070439000381,477.4425490000285,477.42694799997844,477.92659349995665,477.42694799997844,477.92659349995665,477.42694799997844,477.92659349995665,477.42694799997844,477.92659349995665,477.42694799997844,477.92659349995665,477.42694799997844,477.92659349995665,477.42694799997844,477.92659349995665,477.42694799997844,477.92659349995665,475.7070439000381,None,477.92659349995665,None,1.7300000000000013,478.34399379999377,None,479.09595139999874,None,,,,,,,[0.40743243],1.8500000000000012,0.7702702702702703,11019,001,2024_Jan_05_0918,MFTM_A_new1021,2021.2.3,59.96595131093479,
,,,,,,,,stim/Instruction_adaptive.png,conditions/adaptive.xlsx,test,0.6,0.6,0.6,-0.6,-0.6,right,R,,,,,0,1,1,1,0,74,74,36,,,,,,,,,,,,,,,,,,,,,,,,,,,,,,,,,,,,,,,,,,,,479.596399400034,None,left,0,2.294830200029537,480.0966681999853,482.41673970001284,480.0966681999853,481.9163269000128,480.0966681999853,481.9163269000128,480.0966681999853,481.9163269000128,480.0966681999853,481.9163269000128,480.0966681999853,481.9163269000128,481.8990638999967,482.39999359997455,481.8990638999967,482.39999359997455,481.8990638999967,482.39999359997455,481.8990638999967,482.39999359997455,481.8990638999967,482.39999359997455,481.8990638999967,482.39999359997455,481.8990638999967,482.39999359997455,481.8990638999967,482.39999359997455,480.0966681999853,None,482.39999359997455,482.8178928999696,1.8200000000000014,482.83399930002633,None,483.58658830006607,None,,,,,,,[0.41106667],1.7800000000000011,0.76,11019,001,2024_Jan_05_0918,MFTM_A_new1021,2021.2.3,59.96595131093479,
,,,,,,,,stim/Instruction_adaptive.png,conditions/adaptive.xlsx,test,0.6,0.6,0.6,-0.6,-0.6,right,R,,,,,0,1,1,1,0,75,75,62,,,,,,,,,,,,,,,,,,,,,,,,,,,,,,,,,,,,,,,,,,,,484.08595209999476,None,right,1,2.4448991999961436,484.5866197999567,487.0068321999861,484.5866197999567,486.50609649997205,484.5866197999567,486.50609649997205,484.5866197999567,486.50609649997205,484.5866197999567,486.50609649997205,484.5866197999567,486.50609649997205,486.4895238999743,486.99088880000636,486.4895238999743,486.99088880000636,486.4895238999743,486.99088880000636,486.4895238999743,486.99088880000636,486.4895238999743,486.99088880000636,486.4895238999743,486.99088880000636,486.4895238999743,486.99088880000636,486.4895238999743,486.99088880000636,484.5866197999567,None,486.99088880000636,487.4081006000051,1.9200000000000015,487.4246954000555,None,488.1759587000124,None,,,,,,,[0.41328947],1.8100000000000012,0.7631578947368421,11019,001,2024_Jan_05_0918,MFTM_A_new1021,2021.2.3,59.96595131093479,
,,,,,,,,stim/Instruction_adaptive.png,conditions/adaptive.xlsx,test,0.6,0.6,0.6,-0.6,-0.6,right,R,,,,,0,1,1,1,0,76,76,40,,,,,,,,,,,,,,,,,,,,,,,,,,,,,,,,,,,,,,,,,,,,488.67660210002214,None,right,1,2.7108305000001565,489.1766140999971,491.563507999992,489.1766140999971,491.0627678000601,489.1766140999971,491.0627678000601,489.1766140999971,491.0627678000601,489.1766140999971,491.0627678000601,489.1766140999971,491.0627678000601,491.0460512000136,491.5470142000122,491.0460512000136,491.5470142000122,491.0460512000136,491.5470142000122,491.0460512000136,491.5470142000122,491.0460512000136,491.5470142000122,491.0460512000136,491.5470142000122,491.0460512000136,491.5470142000122,491.0460512000136,491.5470142000122,489.1766140999971,None,491.5470142000122,491.96384079998825,1.8800000000000014,491.98109550005756,None,492.7328371000476,None,,,,,,,[0.41597403],1.8300000000000012,0.7662337662337663,11019,001,2024_Jan_05_0918,MFTM_A_new1021,2021.2.3,59.96595131093479,
,,,,,,,,stim/Instruction_adaptive.png,conditions/adaptive.xlsx,test,0.6,0.6,0.6,-0.6,-0.6,right,R,,,,,0,1,1,1,0,77,77,56,,,,,,,,,,,,,,,,,,,,,,,,,,,,,,,,,,,,,,,,,,,,493.2334862999851,None,right,1,2.4897687999764457,493.73365740000736,496.08767889998853,493.73365740000736,495.5860377000645,493.73365740000736,495.5860377000645,493.73365740000736,495.5860377000645,493.73365740000736,495.5860377000645,493.73365740000736,495.5860377000645,495.5694748000242,496.07090020005126,495.5694748000242,496.07090020005126,495.5694748000242,496.07090020005126,495.5694748000242,496.07090020005126,495.5694748000242,496.07090020005126,495.5694748000242,496.07090020005126,495.5694748000242,496.07090020005126,495.5694748000242,496.07090020005126,493.73365740000736,None,496.07090020005126,None,1.8500000000000014,496.5043571999995,None,497.2555496999994,None,,,,,,,[0.41897436],1.8500000000000012,0.7692307692307693,11019,001,2024_Jan_05_0918,MFTM_A_new1021,2021.2.3,59.96595131093479,
,,,,,,,,stim/Instruction_adaptive.png,conditions/adaptive.xlsx,test,0.6,0.6,0.6,-0.6,-0.6,right,R,,,,,0,1,1,1,0,78,78,92,,,,,,,,,,,,,,,,,,,,,,,,,,,,,,,,,,,,,,,,,,,,497.7559447999811,None,right,1,1.878572600078769,498.2568932999857,500.5769393000519,498.2568932999857,500.07696239999495,498.2568932999857,500.07696239999495,498.2568932999857,500.07696239999495,498.2568932999857,500.07696239999495,498.2568932999857,500.07696239999495,500.05950019997545,500.5602882000385,500.05950019997545,500.5602882000385,500.05950019997545,500.5602882000385,500.05950019997545,500.5602882000385,500.05950019997545,500.5602882000385,500.05950019997545,500.5602882000385,500.05950019997545,500.5602882000385,500.05950019997545,500.5602882000385,498.2568932999857,None,500.5602882000385,500.99485410004854,1.8200000000000014,501.011065699975,None,501.76251859997865,None,,,,,,,[0.42227848],1.8800000000000012,0.7721518987341772,11019,001,2024_Jan_05_0918,MFTM_A_new1021,2021.2.3,59.96595131093479,
,,,,,,,,stim/Instruction_adaptive.png,conditions/adaptive.xlsx,test,-0.6,-0.6,-0.6,0.6,0.6,left,L,,,,,0,1,1,1,0,79,79,71,,,,,,,,,,,,,,,,,,,,,,,,,,,,,,,,,,,,,,,,,,,,502.2628289000131,None,left,1,1.805020699976012,502.7634401000105,505.06730260001495,502.7634401000105,504.56766479997896,502.7634401000105,504.56766479997896,502.7634401000105,504.56766479997896,502.7634401000105,504.56766479997896,502.7634401000105,504.56766479997896,504.5335322000319,505.0344676000532,504.5335322000319,505.0344676000532,504.5335322000319,505.0344676000532,504.5335322000319,505.0344676000532,504.5335322000319,505.0344676000532,504.5335322000319,505.0344676000532,504.5335322000319,505.0344676000532,504.5335322000319,505.0344676000532,502.7634401000105,None,505.0344676000532,505.46750769997016,1.7900000000000014,505.4840697000036,None,506.23651379998773,None,,,,,,,[0.425875],1.9000000000000012,0.775,11019,001,2024_Jan_05_0918,MFTM_A_new1021,2021.2.3,59.96595131093479,
,,,,,,,,stim/Instruction_adaptive.png,conditions/adaptive.xlsx,test,-0.6,-0.6,-0.6,0.6,0.6,left,L,,,,,0,1,1,1,0,80,80,49,,,,,,,,,,,,,,,,,,,,,,,,,,,,,,,,,,,,,,,,,,,,506.7358911000192,None,left,1,1.618693600059487,507.2369604000123,509.5068808000069,507.2369604000123,509.0061281999806,507.2369604000123,509.0061281999806,507.2369604000123,509.0061281999806,507.2369604000123,509.0061281999806,507.2369604000123,509.0061281999806,508.97277260001283,509.47397349996027,508.97277260001283,509.47397349996027,508.97277260001283,509.47397349996027,508.97277260001283,509.47397349996027,508.97277260001283,509.47397349996027,508.97277260001283,509.47397349996027,508.97277260001283,509.47397349996027,508.97277260001283,509.47397349996027,507.2369604000123,None,509.47397349996027,509.90805029997136,1.7600000000000013,509.94079100003,None,510.6922193999635,None,,,,,,,[0.42975309],1.9200000000000013,0.7777777777777778,11019,001,2024_Jan_05_0918,MFTM_A_new1021,2021.2.3,59.96595131093479,
,,,,,,,,stim/Instruction_adaptive.png,conditions/adaptive.xlsx,test,0.6,0.6,0.6,-0.6,-0.6,right,R,,,,,0,1,1,1,0,81,81,16,,,,,,,,,,,,,,,,,,,,,,,,,,,,,,,,,,,,,,,,,,,,511.1926916000666,None,right,1,2.2016587000107393,511.69417709996924,513.9475251999684,511.69417709996924,513.4466909000184,511.69417709996924,513.4466909000184,511.69417709996924,513.4466909000184,511.69417709996924,513.4466909000184,511.69417709996924,513.4466909000184,513.4136031999951,513.9136369000189,513.4136031999951,513.9136369000189,513.4136031999951,513.9136369000189,513.4136031999951,513.9136369000189,513.4136031999951,513.9136369000189,513.4136031999951,513.9136369000189,513.4136031999951,513.9136369000189,513.4136031999951,513.9136369000189,511.69417709996924,None,513.9136369000189,514.3475660999538,1.7400000000000013,514.3807337000035,None,515.1322004999965,None,,,,,,,[0.43378049],1.9500000000000013,0.7804878048780488,11019,001,2024_Jan_05_0918,MFTM_A_new1021,2021.2.3,59.96595131093479,
,,,,,,,,stim/Instruction_adaptive.png,conditions/adaptive.xlsx,test,-0.6,-0.6,-0.6,0.6,0.6,left,L,,,,,0,1,1,1,0,82,82,31,,,,,,,,,,,,,,,,,,,,,,,,,,,,,,,,,,,,,,,,,,,,515.6325499999803,None,left,1,2.010175400064327,516.1333431999665,518.3379970999667,516.1333431999665,517.8357429000316,516.1333431999665,517.8357429000316,516.1333431999665,517.8357429000316,516.1333431999665,517.8357429000316,516.1333431999665,517.8357429000316,517.8193880000617,518.319844600046,517.8193880000617,518.319844600046,517.8193880000617,518.319844600046,517.8193880000617,518.319844600046,517.8193880000617,518.319844600046,517.8193880000617,518.319844600046,517.8193880000617,518.319844600046,517.8193880000617,518.319844600046,516.1333431999665,None,518.319844600046,None,1.7000000000000013,518.770678000059,None,519.5226444000145,None,,,,,,,[0.43819277],1.9700000000000013,0.7831325301204819,11019,001,2024_Jan_05_0918,MFTM_A_new1021,2021.2.3,59.96595131093479,
,,,,,,,,stim/Instruction_adaptive.png,conditions/adaptive.xlsx,test,0.6,0.6,0.6,-0.6,-0.6,right,R,,,,,0,1,1,1,0,83,83,78,,,,,,,,,,,,,,,,,,,,,,,,,,,,,,,,,,,,,,,,,,,,520.0228323000483,None,right,1,1.9245379000203684,520.5231748999795,522.7098742000526,520.5231748999795,522.2095548000652,520.5231748999795,522.2095548000652,520.5231748999795,522.2095548000652,520.5231748999795,522.2095548000652,520.5231748999795,522.2095548000652,522.1923813000321,522.6928498999914,522.1923813000321,522.6928498999914,522.1923813000321,522.6928498999914,522.1923813000321,522.6928498999914,522.1923813000321,522.6928498999914,522.1923813000321,522.6928498999914,522.1923813000321,522.6928498999914,522.1923813000321,522.6928498999914,520.5231748999795,None,522.6763826999813,523.1277768999571,1.6800000000000013,523.1605119999731,None,523.911619600025,None,,,,,,,[0.4427381],1.9900000000000013,0.7857142857142857,11019,001,2024_Jan_05_0918,MFTM_A_new1021,2021.2.3,59.96595131093479,
,,,,,,,,stim/Instruction_adaptive.png,conditions/adaptive.xlsx,test,-0.6,-0.6,-0.6,0.6,0.6,left,L,,,,,0,1,1,1,0,84,84,69,,,,,,,,,,,,,,,,,,,,,,,,,,,,,,,,,,,,,,,,,,,,524.4128197999671,None,right,0,2.093762499978766,524.9139229999855,527.0827537999721,524.9139229999855,526.5827087999787,524.9139229999855,526.5827087999787,524.9139229999855,526.5827087999787,524.9139229999855,526.5827087999787,524.9139229999855,526.5827087999787,526.5655122000026,527.0660696000559,526.5655122000026,527.0660696000559,526.5655122000026,527.0660696000559,526.5655122000026,527.0660696000559,526.5655122000026,527.0660696000559,526.5655122000026,527.0660696000559,526.5655122000026,527.0660696000559,526.5655122000026,527.0660696000559,524.9139229999855,None,527.0660696000559,527.5175255000358,1.6600000000000013,527.5334987000097,None,528.285011400003,None,,,,,,,[0.44741176],1.9300000000000013,0.7764705882352941,11019,001,2024_Jan_05_0918,MFTM_A_new1021,2021.2.3,59.96595131093479,
,,,,,,,,stim/Instruction_adaptive.png,conditions/adaptive.xlsx,test,0.6,0.6,0.6,-0.6,-0.6,right,R,,,,,0,1,1,1,0,85,85,54,,,,,,,,,,,,,,,,,,,,,,,,,,,,,,,,,,,,,,,,,,,,528.785447100061,None,right,1,2.296737700002268,529.2866952000186,531.5232635999564,529.2866952000186,531.0220391000621,529.2866952000186,531.0220391000621,529.2866952000186,531.0220391000621,529.2866952000186,531.0220391000621,529.2866952000186,531.0220391000621,531.0055958000012,531.5069187000627,531.0055958000012,531.5069187000627,531.0055958000012,531.5069187000627,531.0055958000012,531.5069187000627,531.0055958000012,531.5069187000627,531.0055958000012,531.5069187000627,531.0055958000012,531.5069187000627,531.0055958000012,531.5069187000627,529.2866952000186,None,531.4898704000516,531.9401547999587,1.7300000000000013,531.973580299993,None,532.7255352999782,None,,,,,,,[0.45116279],1.9500000000000013,0.7790697674418605,11019,001,2024_Jan_05_0918,MFTM_A_new1021,2021.2.3,59.96595131093479,
,,,,,,,,stim/Instruction_adaptive.png,conditions/adaptive.xlsx,test,-0.6,-0.6,-0.6,0.6,0.6,left,L,,,,,0,1,1,1,0,86,86,35,,,,,,,,,,,,,,,,,,,,,,,,,,,,,,,,,,,,,,,,,,,,533.2252871000674,None,left,1,2.001568599953316,533.7259765999625,535.9294905000133,533.7259765999625,535.4293882000493,533.7259765999625,535.4293882000493,533.7259765999625,535.4293882000493,533.7259765999625,535.4293882000493,533.7259765999625,535.4293882000493,535.4120457000099,535.9130284000421,535.4120457000099,535.9130284000421,535.4120457000099,535.9130284000421,535.4120457000099,535.9130284000421,535.4120457000099,535.9130284000421,535.4120457000099,535.9130284000421,535.4120457000099,535.9130284000421,535.4120457000099,535.9130284000421,533.7259765999625,None,535.9130284000421,None,1.7000000000000013,536.3801193999825,None,537.132071500062,None,,,,,,,[0.45517241],1.9700000000000013,0.7816091954022989,11019,001,2024_Jan_05_0918,MFTM_A_new1021,2021.2.3,59.96595131093479,
,,,,,,,,stim/Instruction_adaptive.png,conditions/adaptive.xlsx,test,0.6,0.6,0.6,-0.6,-0.6,right,R,,,,,0,1,1,1,0,87,87,14,,,,,,,,,,,,,,,,,,,,,,,,,,,,,,,,,,,,,,,,,,,,537.6323186999653,None,right,1,1.953681799932383,538.1338393000187,540.3190202000551,538.1338393000187,539.8189280000515,538.1338393000187,539.8189280000515,538.1338393000187,539.8189280000515,538.1338393000187,539.8189280000515,538.1338393000187,539.8189280000515,539.8017764000688,540.3023062000284,539.8017764000688,540.3023062000284,539.8017764000688,540.3023062000284,539.8017764000688,540.3023062000284,539.8017764000688,540.3023062000284,539.8017764000688,540.3023062000284,539.8017764000688,540.3023062000284,539.8017764000688,540.3023062000284,538.1338393000187,None,540.3023062000284,540.7706793000689,1.6800000000000013,540.78656519996,None,541.5376870000036,None,,,,,,,[0.45931818],1.9900000000000013,0.7840909090909091,11019,001,2024_Jan_05_0918,MFTM_A_new1021,2021.2.3,59.96595131093479,
,,,,,,,,stim/Instruction_adaptive.png,conditions/adaptive.xlsx,test,0.6,0.6,0.6,-0.6,-0.6,right,R,,,,,0,1,1,1,0,88,88,90,,,,,,,,,,,,,,,,,,,,,,,,,,,,,,,,,,,,,,,,,,,,542.0384560000384,None,left,0,2.196249399916269,542.5393130000448,544.7090360999573,542.5393130000448,544.2084021000192,542.5393130000448,544.2084021000192,542.5393130000448,544.2084021000192,542.5393130000448,544.2084021000192,542.5393130000448,544.2084021000192,544.175224000006,544.6764667000389,544.175224000006,544.6764667000389,544.175224000006,544.6764667000389,544.175224000006,544.6764667000389,544.175224000006,544.6764667000389,544.175224000006,544.6764667000389,544.175224000006,544.6764667000389,544.175224000006,544.6764667000389,542.5393130000448,None,544.6764667000389,545.1436713000294,1.6600000000000013,545.176359700039,None,545.9281572999898,None,,,,,,,[0.46359551],1.9300000000000013,0.7752808988764045,11019,001,2024_Jan_05_0918,MFTM_A_new1021,2021.2.3,59.96595131093479,
,,,,,,,,stim/Instruction_adaptive.png,conditions/adaptive.xlsx,test,-0.6,-0.6,-0.6,0.6,0.6,left,L,,,,,0,1,1,1,0,89,89,19,,,,,,,,,,,,,,,,,,,,,,,,,,,,,,,,,,,,,,,,,,,,546.4293945999816,None,right,0,2.861400100053288,546.9301519000437,549.1675729999552,546.9301519000437,548.6651965000201,546.9301519000437,548.6651965000201,546.9301519000437,548.6651965000201,546.9301519000437,548.6651965000201,546.9301519000437,548.6651965000201,548.631462899968,549.1323746000417,548.631462899968,549.1323746000417,548.631462899968,549.1323746000417,548.631462899968,549.1323746000417,548.631462899968,549.1323746000417,548.631462899968,549.1323746000417,548.631462899968,549.1323746000417,548.631462899968,549.1323746000417,546.9301519000437,None,549.1490498000057,549.8174621000653,1.7300000000000013,549.8334363000467,None,550.5850103000412,None,,,,,,,[0.467],1.8700000000000012,0.7666666666666667,11019,001,2024_Jan_05_0918,MFTM_A_new1021,2021.2.3,59.96595131093479,
,,,,,,,,stim/Instruction_adaptive.png,conditions/adaptive.xlsx,test,-0.6,-0.6,-0.6,0.6,0.6,left,L,,,,,0,1,1,1,0,90,90,5,,,,,,,,,,,,,,,,,,,,,,,,,,,,,,,,,,,,,,,,,,,,551.085172799998,None,left,1,1.789398799999617,551.5861683000112,553.8905885999557,551.5861683000112,553.3885939000174,551.5861683000112,553.3885939000174,551.5861683000112,553.3885939000174,551.5861683000112,553.3885939000174,551.5861683000112,553.3885939000174,553.371769099962,553.8725077999989,553.371769099962,553.8725077999989,553.371769099962,553.8725077999989,553.371769099962,553.8725077999989,553.371769099962,553.8725077999989,553.371769099962,553.8725077999989,553.371769099962,553.8725077999989,553.371769099962,553.8725077999989,551.5861683000112,None,553.8725077999989,None,1.8000000000000014,554.3566640999634,None,555.1085779999848,None,,,,,,,[0.46956044],1.8900000000000012,0.7692307692307693,11019,001,2024_Jan_05_0918,MFTM_A_new1021,2021.2.3,59.96595131093479,
,,,,,,,,stim/Instruction_adaptive.png,conditions/adaptive.xlsx,test,-0.6,-0.6,-0.6,0.6,0.6,left,L,,,,,0,1,1,1,0,91,91,15,,,,,,,,,,,,,,,,,,,,,,,,,,,,,,,,,,,,,,,,,,,,555.6089771999978,None,left,1,1.4102657999610528,556.1092893000459,558.3962679000106,556.1092893000459,557.8961246999679,556.1092893000459,557.8961246999679,556.1092893000459,557.8961246999679,556.1092893000459,557.8961246999679,556.1092893000459,557.8961246999679,557.8796416000696,558.3791963000549,557.8796416000696,558.3791963000549,557.8796416000696,558.3791963000549,557.8796416000696,558.3791963000549,557.8796416000696,558.3791963000549,557.8796416000696,558.3791963000549,557.8796416000696,558.3791963000549,557.8796416000696,558.3791963000549,556.1092893000459,None,558.3791963000549,None,1.7800000000000014,558.8632340000477,None,559.6144538000226,None,,,,,,,[0.47228261],1.9100000000000013,0.7717391304347826,11019,001,2024_Jan_05_0918,MFTM_A_new1021,2021.2.3,59.96595131093479,
,,,,,,,,stim/Instruction_adaptive.png,conditions/adaptive.xlsx,test,-0.6,-0.6,-0.6,0.6,0.6,left,L,,,,,0,1,1,1,0,92,92,9,,,,,,,,,,,,,,,,,,,,,,,,,,,,,,,,,,,,,,,,,,,,560.1151661999756,None,left,1,1.407565000001341,560.6160767000401,562.8698395000538,560.6160767000401,562.3701709000161,560.6160767000401,562.3701709000161,560.6160767000401,562.3701709000161,560.6160767000401,562.3701709000161,560.6160767000401,562.3701709000161,562.3517660000362,562.8523277000058,562.3517660000362,562.8523277000058,562.3517660000362,562.8523277000058,562.3517660000362,562.8523277000058,562.3517660000362,562.8523277000058,562.3517660000362,562.8523277000058,562.3517660000362,562.8523277000058,562.3517660000362,562.8523277000058,560.6160767000401,None,562.8523277000058,563.3372934999643,1.7500000000000013,563.3541635000147,None,564.1045304000145,None,,,,,,,[0.47526882],1.9300000000000013,0.7741935483870968,11019,001,2024_Jan_05_0918,MFTM_A_new1021,2021.2.3,59.96595131093479,
,,,,,,,,stim/Instruction_adaptive.png,conditions/adaptive.xlsx,test,-0.6,-0.6,-0.6,0.6,0.6,left,L,,,,,0,1,1,1,0,93,93,7,,,,,,,,,,,,,,,,,,,,,,,,,,,,,,,,,,,,,,,,,,,,564.6052822000347,None,left,1,2.1015911999857053,565.1060601000208,567.3429329000646,565.1060601000208,566.8419290999882,565.1060601000208,566.8419290999882,565.1060601000208,566.8419290999882,565.1060601000208,566.8419290999882,565.1060601000208,566.8419290999882,566.8252064000117,567.3257414000109,566.8252064000117,567.3257414000109,566.8252064000117,567.3257414000109,566.8252064000117,567.3257414000109,566.8252064000117,567.3257414000109,566.8252064000117,567.3257414000109,566.8252064000117,567.3257414000109,566.8252064000117,567.3257414000109,565.1060601000208,None,567.3257414000109,567.8098257000092,1.7300000000000013,567.8267188000027,None,568.5778935999842,None,,,,,,,[0.47840426],1.9500000000000013,0.776595744680851,11019,001,2024_Jan_05_0918,MFTM_A_new1021,2021.2.3,59.96595131093479,
