arrwidth1,arrwidth2,arrwidth3,arrwidth4,arrwidth5,keyb,type,orientation,instruction_image,block_filename,block_type,arrow11,arrow22,arrow33,arrow44,arrow55,keyb_3,orientation3,trials.thisRepN,trials.thisTrialN,trials.thisN,trials.thisIndex,trials_3.thisRepN,trials_3.thisTrialN,trials_3.thisN,trials_3.thisIndex,trials_2.thisRepN,trials_2.thisTrialN,trials_2.thisN,trials_2.thisIndex,welcome.started,welcome.stopped,key_resp.keys,key_resp.rt,key_resp.started,key_resp.stopped,instruction_example.started,instruction_example.stopped,key_resp_3.keys,key_resp_3.rt,key_resp_3.started,key_resp_3.stopped,instruction_task.started,instruction_task.stopped,key_resp_2.keys,key_resp_2.rt,key_resp_2.started,key_resp_2.stopped,text_2.started,text_2.stopped,A1.started,A1.stopped,A2.started,A2.stopped,A3.started,A3.stopped,A4.started,A4.stopped,A5.started,A5.stopped,key_resp_4.keys,key_resp_4.corr,key_resp_4.rt,key_resp_4.started,key_resp_4.stopped,fb.started,fb.stopped,instruction_block.started,instruction_block.stopped,key_resp_8.keys,key_resp_8.rt,key_resp_8.started,key_resp_8.stopped,text_8.started,text_8.stopped,key_resp_9.keys,key_resp_9.corr,key_resp_9.rt,text_5.started,text_5.stopped,A11_3.started,A11_3.stopped,A22_2.started,A22_2.stopped,A33_2.started,A33_2.stopped,A44_2.started,A44_2.stopped,A55_2.started,A55_2.stopped,M1_3.started,M1_3.stopped,M2_2.started,M2_2.stopped,M3_2.started,M3_2.stopped,M4_2.started,M4_2.stopped,M5_2.started,M5_2.stopped,M6_2.started,M6_2.stopped,M7_2.started,M7_2.stopped,M8_2.started,M8_2.stopped,key_resp_9.started,key_resp_9.stopped,fixation.started,fixation.stopped,ET,fb_3.started,fb_3.stopped,text_9.started,text_9.stopped,fb_4.started,fb_4.stopped,text_7.started,text_7.stopped,endtext.started,endtext.stopped,fixation_ITI,CCC,Acc,participant,session,date,expName,psychopyVersion,frameRate,
,,,,,,,,,,,,,,,,,,,,,,,,,,,,,,12.173750600079075,None,space,27.857463599997573,12.173750600079075,None,,,,,,,,,,,,,,,,,,,,,,,,,,,,,,,,,,,,,,,,,,,,,,,,,,,,,,,,,,,,,,,,,,,,,,,,,,,,,,,,,,,,,,,,,11017,001,2024_Jan_04_1500,MFTM_A_new1021,2021.2.3,60.36354550268046,
,,,,,,,,,,,,,,,,,,,,,,,,,,,,,,,,,,,,40.049683700082824,None,right,21.47668900003191,40.049683700082824,None,,,,,,,,,,,,,,,,,,,,,,,,,,,,,,,,,,,,,,,,,,,,,,,,,,,,,,,,,,,,,,,,,,,,,,,,,,,,,,,,,,,11017,001,2024_Jan_04_1500,MFTM_A_new1021,2021.2.3,60.36354550268046,
,,,,,,,,,,,,,,,,,,,,,,,,,,,,,,,,,,,,,,,,,,61.547483499976806,None,space,10.30678939993959,61.547483499976806,None,,,,,,,,,,,,,,,,,,,,,,,,,,,,,,,,,,,,,,,,,,,,,,,,,,,,,,,,,,,,,,,,,,,,,,,,,,,,,11017,001,2024_Jan_04_1500,MFTM_A_new1021,2021.2.3,60.36354550268046,
-0.6,-0.6,-0.6,0.6,0.6,left,3:2,L,,,,,,,,,,,0,0,0,1,,,,,,,,,,,,,,,,,,,,,,,,,,,71.89770680002403,None,71.89770680002403,None,71.89770680002403,None,71.89770680002403,None,71.89770680002403,None,71.89770680002403,None,left,1,1.3728994999546558,71.89770680002403,None,73.31518949999008,None,,,,,,,,,,,,,,,,,,,,,,,,,,,,,,,,,,,,,,,,,,,,,,,,,,,,,,,,,,11017,001,2024_Jan_04_1500,MFTM_A_new1021,2021.2.3,60.36354550268046,
0.6,0.6,0.6,-0.6,-0.6,right,3:2,R,,,,,,,,,,,0,1,1,0,,,,,,,,,,,,,,,,,,,,,,,,,,,74.06642709998414,None,74.06642709998414,None,74.06642709998414,None,74.06642709998414,None,74.06642709998414,None,74.06642709998414,None,right,1,1.7399080999894068,74.06642709998414,None,75.83517119998578,None,,,,,,,,,,,,,,,,,,,,,,,,,,,,,,,,,,,,,,,,,,,,,,,,,,,,,,,,,,11017,001,2024_Jan_04_1500,MFTM_A_new1021,2021.2.3,60.36354550268046,
-0.6,-0.6,-0.6,0.6,0.6,left,3:2,L,,,,,,,,,,,1,0,2,1,,,,,,,,,,,,,,,,,,,,,,,,,,,76.58666010003071,None,76.58666010003071,None,76.58666010003071,None,76.58666010003071,None,76.58666010003071,None,76.58666010003071,None,left,1,1.268108299933374,76.58666010003071,None,77.87136190000456,None,,,,,,,,,,,,,,,,,,,,,,,,,,,,,,,,,,,,,,,,,,,,,,,,,,,,,,,,,,11017,001,2024_Jan_04_1500,MFTM_A_new1021,2021.2.3,60.36354550268046,
0.6,0.6,0.6,-0.6,-0.6,right,3:2,R,,,,,,,,,,,1,1,3,0,,,,,,,,,,,,,,,,,,,,,,,,,,,78.62247930001467,None,78.62247930001467,None,78.62247930001467,None,78.62247930001467,None,78.62247930001467,None,78.62247930001467,None,right,1,0.9361056999769062,78.62247930001467,None,79.59073340008035,None,,,,,,,,,,,,,,,,,,,,,,,,,,,,,,,,,,,,,,,,,,,,,,,,,,,,,,,,,,11017,001,2024_Jan_04_1500,MFTM_A_new1021,2021.2.3,60.36354550268046,
,,,,,,,,stim/Instruction_mask.png,conditions/adaptive.xlsx,practice,-0.6,-0.6,-0.6,0.6,0.6,left,L,,,,,0,0,0,0,0,0,0,93,,,,,,,,,,,,,,,,,,,,,,,,,,,,,,,,,,,,,,80.55824829998892,None,space,29.327959800022654,80.55824829998892,None,109.96832770004403,None,left,1,2.2432029000483453,110.41969090001658,None,110.41969090001658,113.4248522000853,110.41969090001658,113.4248522000853,110.41969090001658,113.4248522000853,110.41969090001658,113.4248522000853,110.41969090001658,113.4248522000853,113.40734779997729,113.90856500004884,113.40734779997729,113.90856500004884,113.40734779997729,113.90856500004884,113.40734779997729,113.90856500004884,113.40734779997729,113.90856500004884,113.40734779997729,113.90856500004884,113.40734779997729,113.90856500004884,113.40734779997729,113.90856500004884,110.41969090001658,None,113.90856500004884,113.90856500004884,3,113.92488569999114,None,114.67587170004845,None,,,,,,,,,,11017,001,2024_Jan_04_1500,MFTM_A_new1021,2021.2.3,60.36354550268046,
,,,,,,,,stim/Instruction_mask.png,conditions/adaptive.xlsx,practice,-0.6,-0.6,-0.6,0.6,0.6,left,L,,,,,0,0,0,0,0,1,1,41,,,,,,,,,,,,,,,,,,,,,,,,,,,,,,,,,,,,,,,,,,,,115.17749530007131,None,left,1,1.857011599931866,115.67753430001903,117.68081829999574,115.67753430001903,117.17977410007734,115.67753430001903,117.17977410007734,115.67753430001903,117.17977410007734,115.67753430001903,117.17977410007734,115.67753430001903,117.17977410007734,117.16296790004708,117.66469790006522,117.16296790004708,117.66469790006522,117.16296790004708,117.66469790006522,117.16296790004708,117.66469790006522,117.16296790004708,117.66469790006522,117.16296790004708,117.66469790006522,117.16296790004708,117.66469790006522,117.16296790004708,117.66469790006522,115.67753430001903,None,117.66469790006522,119.16624569997657,1.5,119.18273190001491,None,119.93445000005886,None,,,,,,,,,,11017,001,2024_Jan_04_1500,MFTM_A_new1021,2021.2.3,60.36354550268046,
,,,,,,,,stim/Instruction_mask.png,conditions/adaptive.xlsx,practice,0.6,0.6,0.6,-0.6,-0.6,right,R,,,,,0,0,0,0,0,2,2,28,,,,,,,,,,,,,,,,,,,,,,,,,,,,,,,,,,,,,,,,,,,,120.43451210006606,None,right,1,1.2312190999509767,120.93580700003076,122.23721130006015,120.93580700003076,121.73638929997105,120.93580700003076,121.73638929997105,120.93580700003076,121.73638929997105,120.93580700003076,121.73638929997105,120.93580700003076,121.73638929997105,121.71981380006764,122.22094999998808,121.71981380006764,122.22094999998808,121.71981380006764,122.22094999998808,121.71981380006764,122.22094999998808,121.71981380006764,122.22094999998808,121.71981380006764,122.22094999998808,121.71981380006764,122.22094999998808,121.71981380006764,122.22094999998808,120.93580700003076,None,122.22094999998808,124.42479110008571,0.8,124.44050480006263,None,125.19225710001774,None,,,,,,,,,,11017,001,2024_Jan_04_1500,MFTM_A_new1021,2021.2.3,60.36354550268046,
,,,,,,,,stim/Instruction_mask.png,conditions/adaptive.xlsx,practice,-0.6,-0.6,-0.6,0.6,0.6,left,L,,,,,0,0,0,0,0,3,3,17,,,,,,,,,,,,,,,,,,,,,,,,,,,,,,,,,,,,,,,,,,,,125.6923695000587,None,left,1,0.6606133000459522,126.19367690000217,126.9465143000707,126.19367690000217,126.44340210000519,126.19367690000217,126.44340210000519,126.19367690000217,126.44340210000519,126.19367690000217,126.44340210000519,126.19367690000217,126.44340210000519,126.42716319998726,126.92755210003816,126.42716319998726,126.92755210003816,126.42716319998726,126.92755210003816,126.42716319998726,126.92755210003816,126.42716319998726,126.92755210003816,126.42716319998726,126.92755210003816,126.42716319998726,126.92755210003816,126.42716319998726,126.92755210003816,126.19367690000217,None,126.92755210003816,129.68288750003558,3,129.69927340000868,None,130.4494525999762,None,,,,,,,,,,11017,001,2024_Jan_04_1500,MFTM_A_new1021,2021.2.3,60.36354550268046,
,,,,,,,,stim/Instruction_mask.png,conditions/adaptive.xlsx,practice,,,,,,,,,,,,0,0,0,0,,,,,,,,,,,,,,,,,,,,,,,,,,,,,,,,,,,,,,,,,,,,,,,,,,,,,,,,,,,,,,,,,,,,,,,,,,,,,,,,,,,,,,,,,,130.96677439997438,131.9702279000776,131.93563040008303,131.93563040008303,131.93563040008303,None,,,,11017,001,2024_Jan_04_1500,MFTM_A_new1021,2021.2.3,60.36354550268046,
,,,,,,,,stim/Instruction_adaptive.png,conditions/adaptive.xlsx,test,0.6,0.6,0.6,-0.6,-0.6,right,R,,,,,0,1,1,1,0,0,0,28,,,,,,,,,,,,,,,,,,,,,,,,,,,,,,,,,,,,,,135.08959760004655,None,space,14.989083499996923,135.08959760004655,None,150.1113933000015,None,right,1,3.1453886999515817,150.61302350007463,None,150.61302350007463,153.61799920001067,150.61302350007463,153.61799920001067,150.61302350007463,153.61799920001067,150.61302350007463,153.61799920001067,150.61302350007463,153.61799920001067,153.60010440007318,154.10205220000353,153.60010440007318,154.10205220000353,153.60010440007318,154.10205220000353,153.60010440007318,154.10205220000353,153.60010440007318,154.10205220000353,153.60010440007318,154.10205220000353,153.60010440007318,154.10205220000353,153.60010440007318,154.10205220000353,150.61302350007463,None,154.10205220000353,154.10205220000353,3,154.11782000004314,None,154.8697303000372,None,,,,,,,0,6.000000000000005,1.0,11017,001,2024_Jan_04_1500,MFTM_A_new1021,2021.2.3,60.36354550268046,
,,,,,,,,stim/Instruction_adaptive.png,conditions/adaptive.xlsx,test,0.6,0.6,0.6,-0.6,-0.6,right,R,,,,,0,1,1,1,0,1,1,74,,,,,,,,,,,,,,,,,,,,,,,,,,,,,,,,,,,,,,,,,,,,155.36995790002402,None,left,0,0.7279862000141293,155.87042759999167,156.6215075000655,155.87042759999167,156.12073349999264,155.87042759999167,156.12073349999264,155.87042759999167,156.12073349999264,155.87042759999167,156.12073349999264,155.87042759999167,156.12073349999264,156.10462080000434,156.60481430008076,156.10462080000434,156.60481430008076,156.10462080000434,156.60481430008076,156.10462080000434,156.60481430008076,156.10462080000434,156.60481430008076,156.10462080000434,156.60481430008076,156.10462080000434,156.60481430008076,156.10462080000434,156.60481430008076,155.87042759999167,None,156.60481430008076,157.48945830005687,0.25,157.50582620000932,None,158.2573284000391,None,,,,,,,[0.875],2.570000000000002,0.5,11017,001,2024_Jan_04_1500,MFTM_A_new1021,2021.2.3,60.36354550268046,
,,,,,,,,stim/Instruction_adaptive.png,conditions/adaptive.xlsx,test,-0.6,-0.6,-0.6,0.6,0.6,left,L,,,,,0,1,1,1,0,2,2,77,,,,,,,,,,,,,,,,,,,,,,,,,,,,,,,,,,,,,,,,,,,,158.75910260004457,None,left,1,1.547573999967426,159.25971690006554,160.87781189999077,159.25971690006554,160.37702900008298,159.25971690006554,160.37702900008298,159.25971690006554,160.37702900008298,159.25971690006554,160.37702900008298,159.25971690006554,160.37702900008298,160.34461490006652,160.84453390003182,160.34461490006652,160.84453390003182,160.34461490006652,160.84453390003182,160.34461490006652,160.84453390003182,160.34461490006652,160.84453390003182,160.34461490006652,160.84453390003182,160.34461490006652,160.84453390003182,160.34461490006652,160.84453390003182,159.25971690006554,None,160.84453390003182,161.89624879998155,1.1100000000000008,161.92908580007497,None,162.68097240000498,None,,,,,,,[1.04666667],3.3800000000000026,0.6666666666666666,11017,001,2024_Jan_04_1500,MFTM_A_new1021,2021.2.3,60.36354550268046,
,,,,,,,,stim/Instruction_adaptive.png,conditions/adaptive.xlsx,test,-0.6,-0.6,-0.6,0.6,0.6,left,L,,,,,0,1,1,1,0,3,3,21,,,,,,,,,,,,,,,,,,,,,,,,,,,,,,,,,,,,,,,,,,,,163.18129059998319,None,left,1,1.2924659999553114,163.68188010004815,164.81699399999343,163.68188010004815,164.31625280005392,163.68188010004815,164.31625280005392,163.68188010004815,164.31625280005392,163.68188010004815,164.31625280005392,163.68188010004815,164.31625280005392,164.29948160005733,164.8001452999888,164.29948160005733,164.8001452999888,164.29948160005733,164.8001452999888,164.29948160005733,164.8001452999888,164.29948160005733,164.8001452999888,164.29948160005733,164.8001452999888,164.29948160005733,164.8001452999888,164.29948160005733,164.8001452999888,163.68188010004815,None,164.8001452999888,166.05290380003862,0.6300000000000003,166.06955989997368,None,166.8208538000472,None,,,,,,,[1.2525],3.940000000000003,0.75,11017,001,2024_Jan_04_1500,MFTM_A_new1021,2021.2.3,60.36354550268046,
,,,,,,,,stim/Instruction_adaptive.png,conditions/adaptive.xlsx,test,0.6,0.6,0.6,-0.6,-0.6,right,R,,,,,0,1,1,1,0,4,4,10,,,,,,,,,,,,,,,,,,,,,,,,,,,,,,,,,,,,,,,,,,,,167.32073330006097,None,right,1,1.1203023999696597,167.82217569998465,168.75706239999272,167.82217569998465,168.2552245000843,167.82217569998465,168.2552245000843,167.82217569998465,168.2552245000843,167.82217569998465,168.2552245000843,167.82217569998465,168.2552245000843,168.2388066999847,168.7401195000857,168.2388066999847,168.7401195000857,168.2388066999847,168.7401195000857,168.2388066999847,168.7401195000857,168.2388066999847,168.7401195000857,168.2388066999847,168.7401195000857,168.2388066999847,168.7401195000857,168.2388066999847,168.7401195000857,167.82217569998465,None,168.7401195000857,170.15939050004818,0.43000000000000016,170.17538300005253,None,170.92665050004143,None,,,,,,,[1.416],4.370000000000004,0.8,11017,001,2024_Jan_04_1500,MFTM_A_new1021,2021.2.3,60.36354550268046,
,,,,,,,,stim/Instruction_adaptive.png,conditions/adaptive.xlsx,test,0.6,0.6,0.6,-0.6,-0.6,right,R,,,,,0,1,1,1,0,5,5,12,,,,,,,,,,,,,,,,,,,,,,,,,,,,,,,,,,,,,,,,,,,,171.426979699987,None,left,0,1.3980429000221193,171.92871970008127,172.76254640007392,171.92871970008127,172.26197059999686,171.92871970008127,172.26197059999686,171.92871970008127,172.26197059999686,171.92871970008127,172.26197059999686,171.92871970008127,172.26197059999686,172.22794260003138,172.7293094000779,172.22794260003138,172.7293094000779,172.22794260003138,172.7293094000779,172.22794260003138,172.7293094000779,172.22794260003138,172.7293094000779,172.22794260003138,172.7293094000779,172.22794260003138,172.7293094000779,172.22794260003138,172.7293094000779,171.92871970008127,None,172.7293094000779,174.28132830001414,0.32000000000000006,174.2976137000369,None,175.0495593000669,None,,,,,,,[1.54333333],3.5400000000000027,0.6666666666666666,11017,001,2024_Jan_04_1500,MFTM_A_new1021,2021.2.3,60.36354550268046,
,,,,,,,,stim/Instruction_adaptive.png,conditions/adaptive.xlsx,test,0.6,0.6,0.6,-0.6,-0.6,right,R,,,,,0,1,1,1,0,6,6,78,,,,,,,,,,,,,,,,,,,,,,,,,,,,,,,,,,,,,,,,,,,,175.54963170003612,None,left,0,1.1078392999479547,176.05052370007616,177.1351064000046,176.05052370007616,176.63454590004403,176.05052370007616,176.63454590004403,176.05052370007616,176.63454590004403,176.05052370007616,176.63454590004403,176.05052370007616,176.63454590004403,176.60106490005273,177.10168469999917,176.60106490005273,177.10168469999917,176.60106490005273,177.10168469999917,176.60106490005273,177.10168469999917,176.60106490005273,177.10168469999917,176.60106490005273,177.10168469999917,176.60106490005273,177.10168469999917,176.60106490005273,177.10168469999917,176.05052370007616,None,177.10168469999917,178.70430199999828,0.5700000000000003,178.72074650006834,None,179.47295710002072,None,,,,,,,[1.59857143],2.650000000000002,0.5714285714285714,11017,001,2024_Jan_04_1500,MFTM_A_new1021,2021.2.3,60.36354550268046,
,,,,,,,,stim/Instruction_adaptive.png,conditions/adaptive.xlsx,test,-0.6,-0.6,-0.6,0.6,0.6,left,L,,,,,0,1,1,1,0,7,7,65,,,,,,,,,,,,,,,,,,,,,,,,,,,,,,,,,,,,,,,,,,,,179.97279300005175,None,right,0,1.549644000013359,180.47354999999516,182.0270832000533,180.47354999999516,181.52577170007862,180.47354999999516,181.52577170007862,180.47354999999516,181.52577170007862,180.47354999999516,181.52577170007862,180.47354999999516,181.52577170007862,181.50821010000072,182.00907090003602,181.50821010000072,182.00907090003602,181.50821010000072,182.00907090003602,181.50821010000072,182.00907090003602,181.50821010000072,182.00907090003602,181.50821010000072,182.00907090003602,181.50821010000072,182.00907090003602,181.50821010000072,182.00907090003602,180.47354999999516,None,182.00907090003602,183.46138700004667,1.0500000000000007,183.4778486000141,None,184.22978350007907,None,,,,,,,[[1.45]],1.4900000000000009,0.5,11017,001,2024_Jan_04_1500,MFTM_A_new1021,2021.2.3,60.36354550268046,
,,,,,,,,stim/Instruction_adaptive.png,conditions/adaptive.xlsx,test,0.6,0.6,0.6,-0.6,-0.6,right,R,,,,,0,1,1,1,0,8,8,50,,,,,,,,,,,,,,,,,,,,,,,,,,,,,,,,,,,,,,,,,,,,184.7305477000773,None,right,1,2.5524053999688476,185.23045510007069,188.08550599997398,185.23045510007069,187.584411000018,185.23045510007069,187.584411000018,185.23045510007069,187.584411000018,185.23045510007069,187.584411000018,185.23045510007069,187.584411000018,187.55150589998811,188.0521630999865,187.55150589998811,188.0521630999865,187.55150589998811,188.0521630999865,187.55150589998811,188.0521630999865,187.55150589998811,188.0521630999865,187.55150589998811,188.0521630999865,187.55150589998811,188.0521630999865,187.55150589998811,188.0521630999865,185.23045510007069,None,188.0521630999865,188.2182525000535,2.3400000000000016,188.23513160005677,None,188.98698070005048,None,,,,,,,[[0.16]],2.030000000000001,0.5555555555555556,11017,001,2024_Jan_04_1500,MFTM_A_new1021,2021.2.3,60.36354550268046,
,,,,,,,,stim/Instruction_adaptive.png,conditions/adaptive.xlsx,test,-0.6,-0.6,-0.6,0.6,0.6,left,L,,,,,0,1,1,1,0,9,9,15,,,,,,,,,,,,,,,,,,,,,,,,,,,,,,,,,,,,,,,,,,,,189.4869041000493,None,left,1,2.107141299988143,189.9875791000668,192.10719280003104,189.9875791000668,191.60706010006834,189.9875791000668,191.60706010006834,189.9875791000668,191.60706010006834,189.9875791000668,191.60706010006834,189.9875791000668,191.60706010006834,191.57416770001873,192.07480820000637,191.57416770001873,192.07480820000637,191.57416770001873,192.07480820000637,191.57416770001873,192.07480820000637,191.57416770001873,192.07480820000637,191.57416770001873,192.07480820000637,191.57416770001873,192.07480820000637,191.57416770001873,192.07480820000637,189.9875791000668,None,192.07480820000637,192.97604460001457,1.6100000000000012,192.99209429998882,None,193.74310409999453,None,,,,,,,[[0.89]],2.3600000000000017,0.6,11017,001,2024_Jan_04_1500,MFTM_A_new1021,2021.2.3,60.36354550268046,
,,,,,,,,stim/Instruction_adaptive.png,conditions/adaptive.xlsx,test,-0.6,-0.6,-0.6,0.6,0.6,left,L,,,,,0,1,1,1,0,10,10,53,,,,,,,,,,,,,,,,,,,,,,,,,,,,,,,,,,,,,,,,,,,,194.2447748000268,None,left,1,1.5900273999432102,194.74451650003903,196.5305983000435,194.74451650003903,196.03049570007715,194.74451650003903,196.03049570007715,194.74451650003903,196.03049570007715,194.74451650003903,196.03049570007715,194.74451650003903,196.03049570007715,196.01314040005673,196.51492660003714,196.01314040005673,196.51492660003714,196.01314040005673,196.51492660003714,196.01314040005673,196.51492660003714,196.01314040005673,196.51492660003714,196.01314040005673,196.51492660003714,196.01314040005673,196.51492660003714,196.01314040005673,196.51492660003714,194.74451650003903,None,196.51492660003714,None,1.280000000000001,197.74968220002484,None,198.5011576000834,None,,,,,,,[[1.22]],2.600000000000002,0.6363636363636364,11017,001,2024_Jan_04_1500,MFTM_A_new1021,2021.2.3,60.36354550268046,
,,,,,,,,stim/Instruction_adaptive.png,conditions/adaptive.xlsx,test,-0.6,-0.6,-0.6,0.6,0.6,left,L,,,,,0,1,1,1,0,11,11,7,,,,,,,,,,,,,,,,,,,,,,,,,,,,,,,,,,,,,,,,,,,,199.00144210003782,None,left,1,1.4887666999129578,199.50169110007118,201.1054175000172,199.50169110007118,200.60329020000063,199.50169110007118,200.60329020000063,199.50169110007118,200.60329020000063,199.50169110007118,200.60329020000063,199.50169110007118,200.60329020000063,200.5699614000041,201.07069890003186,200.5699614000041,201.07069890003186,200.5699614000041,201.07069890003186,200.5699614000041,201.07069890003186,200.5699614000041,201.07069890003186,200.5699614000041,201.07069890003186,200.5699614000041,201.07069890003186,200.5699614000041,201.07069890003186,199.50169110007118,None,201.07069890003186,202.43942040007096,1.0900000000000007,202.45663730008528,None,203.20761060004588,None,,,,,,,[1.36],2.790000000000002,0.6666666666666666,11017,001,2024_Jan_04_1500,MFTM_A_new1021,2021.2.3,60.36354550268046,
,,,,,,,,stim/Instruction_adaptive.png,conditions/adaptive.xlsx,test,-0.6,-0.6,-0.6,0.6,0.6,left,L,,,,,0,1,1,1,0,12,12,17,,,,,,,,,,,,,,,,,,,,,,,,,,,,,,,,,,,,,,,,,,,,203.70901089999825,None,left,1,1.485521399998106,204.20907790004276,205.66189400001895,204.20907790004276,205.16068620001897,204.20907790004276,205.16068620001897,204.20907790004276,205.16068620001897,204.20907790004276,205.16068620001897,204.20907790004276,205.16068620001897,205.1441252999939,205.64495300001,205.1441252999939,205.64495300001,205.1441252999939,205.64495300001,205.1441252999939,205.64495300001,205.1441252999939,205.64495300001,205.1441252999939,205.64495300001,205.1441252999939,205.64495300001,205.1441252999939,205.64495300001,204.20907790004276,None,205.64495300001,207.02998180000577,0.9500000000000006,207.0462683000369,None,207.79818729998078,None,,,,,,,[1.37461538],2.960000000000002,0.6923076923076923,11017,001,2024_Jan_04_1500,MFTM_A_new1021,2021.2.3,60.36354550268046,
,,,,,,,,stim/Instruction_adaptive.png,conditions/adaptive.xlsx,test,-0.6,-0.6,-0.6,0.6,0.6,left,L,,,,,0,1,1,1,0,13,13,79,,,,,,,,,,,,,,,,,,,,,,,,,,,,,,,,,,,,,,,,,,,,208.29807390004862,None,right,0,1.4067253000102937,208.7996830000775,210.150851399987,208.7996830000775,209.65010119997896,208.7996830000775,209.65010119997896,208.7996830000775,209.65010119997896,208.7996830000775,209.65010119997896,208.7996830000775,209.65010119997896,209.63405320001766,210.1353955999948,209.63405320001766,210.1353955999948,209.63405320001766,210.1353955999948,209.63405320001766,210.1353955999948,209.63405320001766,210.1353955999948,209.63405320001766,210.1353955999948,209.63405320001766,210.1353955999948,209.63405320001766,210.1353955999948,208.7996830000775,None,210.1353955999948,211.53616390004754,0.8500000000000005,211.55268189997878,None,212.3049240000546,None,,,,,,,[1.39428571],2.540000000000002,0.6428571428571429,11017,001,2024_Jan_04_1500,MFTM_A_new1021,2021.2.3,60.36354550268046,
,,,,,,,,stim/Instruction_adaptive.png,conditions/adaptive.xlsx,test,0.6,0.6,0.6,-0.6,-0.6,right,R,,,,,0,1,1,1,0,14,14,68,,,,,,,,,,,,,,,,,,,,,,,,,,,,,,,,,,,,,,,,,,,,212.80497509997804,None,right,1,1.5973976999521255,213.3055786000332,214.94127140007913,213.3055786000332,214.44052210007794,213.3055786000332,214.44052210007794,213.3055786000332,214.44052210007794,213.3055786000332,214.44052210007794,213.3055786000332,214.44052210007794,214.4243880000431,214.92457190004643,214.4243880000431,214.92457190004643,214.4243880000431,214.92457190004643,214.4243880000431,214.92457190004643,214.4243880000431,214.92457190004643,214.4243880000431,214.92457190004643,214.4243880000431,214.92457190004643,214.4243880000431,214.92457190004643,213.3055786000332,None,214.92457190004643,None,1.1300000000000008,216.31001900008414,None,217.06238560006022,None,,,,,,,[[1.37]],2.700000000000002,0.6666666666666666,11017,001,2024_Jan_04_1500,MFTM_A_new1021,2021.2.3,60.36354550268046,
,,,,,,,,stim/Instruction_adaptive.png,conditions/adaptive.xlsx,test,0.6,0.6,0.6,-0.6,-0.6,right,R,,,,,0,1,1,1,0,15,15,18,,,,,,,,,,,,,,,,,,,,,,,,,,,,,,,,,,,,,,,,,,,,217.56184350000694,None,right,1,1.711270899977535,218.06323470000643,219.58251930004917,218.06323470000643,219.08150560001377,218.06323470000643,219.08150560001377,218.06323470000643,219.08150560001377,218.06323470000643,219.08150560001377,218.06323470000643,219.08150560001377,219.04735200002324,219.54857350001112,219.04735200002324,219.54857350001112,219.04735200002324,219.54857350001112,219.04735200002324,219.54857350001112,219.04735200002324,219.54857350001112,219.04735200002324,219.54857350001112,219.04735200002324,219.54857350001112,219.04735200002324,219.54857350001112,218.06323470000643,None,219.54857350001112,220.95014299999457,1.0100000000000007,220.9836120000109,None,221.73469630000181,None,,,,,,,[1.39875],2.830000000000002,0.6875,11017,001,2024_Jan_04_1500,MFTM_A_new1021,2021.2.3,60.36354550268046,
,,,,,,,,stim/Instruction_adaptive.png,conditions/adaptive.xlsx,test,0.6,0.6,0.6,-0.6,-0.6,right,R,,,,,0,1,1,1,0,16,16,30,,,,,,,,,,,,,,,,,,,,,,,,,,,,,,,,,,,,,,,,,,,,222.23601830005646,None,left,0,1.6146234000334516,222.73590740002692,224.17411330004688,222.73590740002692,223.67070830008015,222.73590740002692,223.67070830008015,222.73590740002692,223.67070830008015,222.73590740002692,223.67070830008015,222.73590740002692,223.67070830008015,223.6544816000387,224.15488540008664,223.6544816000387,224.15488540008664,223.6544816000387,224.15488540008664,223.6544816000387,224.15488540008664,223.6544816000387,224.15488540008664,223.6544816000387,224.15488540008664,223.6544816000387,224.15488540008664,223.6544816000387,224.15488540008664,222.73590740002692,None,224.15488540008664,None,0.9300000000000006,225.57306780002546,None,226.32539360004012,None,,,,,,,[1.40882353],2.4700000000000015,0.6470588235294118,11017,001,2024_Jan_04_1500,MFTM_A_new1021,2021.2.3,60.36354550268046,
,,,,,,,,stim/Instruction_adaptive.png,conditions/adaptive.xlsx,test,-0.6,-0.6,-0.6,0.6,0.6,left,L,,,,,0,1,1,1,0,17,17,75,,,,,,,,,,,,,,,,,,,,,,,,,,,,,,,,,,,,,,,,,,,,226.82589029998053,None,left,1,1.728529499960132,227.3259969999781,229.02948280004784,227.3259969999781,228.52958339999896,227.3259969999781,228.52958339999896,227.3259969999781,228.52958339999896,227.3259969999781,228.52958339999896,227.3259969999781,228.52958339999896,228.4947179000592,228.99668690003455,228.4947179000592,228.99668690003455,228.4947179000592,228.99668690003455,228.4947179000592,228.99668690003455,228.4947179000592,228.99668690003455,228.4947179000592,228.99668690003455,228.4947179000592,228.99668690003455,228.4947179000592,228.99668690003455,227.3259969999781,None,228.99668690003455,230.31422980001662,1.1900000000000008,230.33066239999607,None,231.0824424000457,None,,,,,,,[[1.31]],2.610000000000002,0.6666666666666666,11017,001,2024_Jan_04_1500,MFTM_A_new1021,2021.2.3,60.36354550268046,
,,,,,,,,stim/Instruction_adaptive.png,conditions/adaptive.xlsx,test,-0.6,-0.6,-0.6,0.6,0.6,left,L,,,,,0,1,1,1,0,18,18,19,,,,,,,,,,,,,,,,,,,,,,,,,,,,,,,,,,,,,,,,,,,,231.58395060000475,None,right,0,1.4748212000122294,232.08400520007126,233.6691131000407,232.08400520007126,233.16813560004812,232.08400520007126,233.16813560004812,232.08400520007126,233.16813560004812,232.08400520007126,233.16813560004812,232.08400520007126,233.16813560004812,233.15187900001183,233.65308509999886,233.15187900001183,233.65308509999886,233.15187900001183,233.65308509999886,233.15187900001183,233.65308509999886,233.15187900001183,233.65308509999886,233.15187900001183,233.65308509999886,233.15187900001183,233.65308509999886,233.15187900001183,233.65308509999886,232.08400520007126,None,233.65308509999886,None,1.0800000000000007,235.07084539998323,None,235.82223270006943,None,,,,,,,[1.40421053],2.2400000000000015,0.631578947368421,11017,001,2024_Jan_04_1500,MFTM_A_new1021,2021.2.3,60.36354550268046,
,,,,,,,,stim/Instruction_adaptive.png,conditions/adaptive.xlsx,test,0.6,0.6,0.6,-0.6,-0.6,right,R,,,,,0,1,1,1,0,19,19,14,,,,,,,,,,,,,,,,,,,,,,,,,,,,,,,,,,,,,,,,,,,,236.32290969998576,None,left,0,2.0069285000208765,236.8236198000377,238.72872850007843,236.8236198000377,238.2256752999965,236.8236198000377,238.2256752999965,236.8236198000377,238.2256752999965,236.8236198000377,238.2256752999965,236.8236198000377,238.2256752999965,238.19247450004332,238.69477549998555,238.19247450004332,238.69477549998555,238.19247450004332,238.69477549998555,238.19247450004332,238.69477549998555,238.19247450004332,238.69477549998555,238.19247450004332,238.69477549998555,238.19247450004332,238.69477549998555,238.19247450004332,238.69477549998555,236.8236198000377,None,238.69477549998555,239.81129870004952,1.390000000000001,239.8281157000456,None,240.579287200002,None,,,,,,,[[1.11]],1.8000000000000012,0.6,11017,001,2024_Jan_04_1500,MFTM_A_new1021,2021.2.3,60.36354550268046,
,,,,,,,,stim/Instruction_adaptive.png,conditions/adaptive.xlsx,test,0.6,0.6,0.6,-0.6,-0.6,right,R,,,,,0,1,1,1,0,20,20,34,,,,,,,,,,,,,,,,,,,,,,,,,,,,,,,,,,,,,,,,,,,,241.07973830006085,None,left,0,2.2339512000326067,241.58084780001082,243.9843281999929,241.58084780001082,243.48426519997884,241.58084780001082,243.48426519997884,241.58084780001082,243.48426519997884,241.58084780001082,243.48426519997884,241.58084780001082,243.48426519997884,243.45023159997072,243.9509229999967,243.45023159997072,243.9509229999967,243.45023159997072,243.9509229999967,243.45023159997072,243.9509229999967,243.45023159997072,243.9509229999967,243.45023159997072,243.9509229999967,243.45023159997072,243.9509229999967,243.45023159997072,243.9509229999967,241.58084780001082,None,243.9509229999967,244.5691578000551,1.8900000000000015,244.58504160004668,None,245.33627510000952,None,,,,,,,[[0.61]],1.2000000000000006,0.5714285714285714,11017,001,2024_Jan_04_1500,MFTM_A_new1021,2021.2.3,60.36354550268046,
,,,,,,,,stim/Instruction_adaptive.png,conditions/adaptive.xlsx,test,-0.6,-0.6,-0.6,0.6,0.6,left,L,,,,,0,1,1,1,0,21,21,89,,,,,,,,,,,,,,,,,,,,,,,,,,,,,,,,,,,,,,,,,,,,245.837822600035,None,left,1,1.9018335998989642,246.33786069997586,None,246.33786069997586,249.20890119997784,246.33786069997586,249.20890119997784,246.33786069997586,249.20890119997784,246.33786069997586,249.20890119997784,246.33786069997586,249.20890119997784,249.1753487000242,249.67604070005473,249.1753487000242,249.67604070005473,249.1753487000242,249.67604070005473,249.1753487000242,249.67604070005473,249.1753487000242,249.67604070005473,249.1753487000242,249.67604070005473,249.1753487000242,249.67604070005473,249.1753487000242,249.67604070005473,246.33786069997586,None,249.67604070005473,249.67604070005473,2.860000000000002,249.7093394000549,None,250.46056889998727,None,,,,,,,0,1.4600000000000009,0.5909090909090909,11017,001,2024_Jan_04_1500,MFTM_A_new1021,2021.2.3,60.36354550268046,
,,,,,,,,stim/Instruction_adaptive.png,conditions/adaptive.xlsx,test,0.6,0.6,0.6,-0.6,-0.6,right,R,,,,,0,1,1,1,0,22,22,6,,,,,,,,,,,,,,,,,,,,,,,,,,,,,,,,,,,,,,,,,,,,250.96202820003964,None,right,1,2.6887054999824613,251.4620612000581,254.36712419998366,251.4620612000581,253.865844200016,251.4620612000581,253.865844200016,251.4620612000581,253.865844200016,251.4620612000581,253.865844200016,251.4620612000581,253.865844200016,253.8321455999976,254.33334060001653,253.8321455999976,254.33334060001653,253.8321455999976,254.33334060001653,253.8321455999976,254.33334060001653,253.8321455999976,254.33334060001653,253.8321455999976,254.33334060001653,253.8321455999976,254.33334060001653,253.8321455999976,254.33334060001653,251.4620612000581,None,254.33334060001653,254.44988219998777,2.390000000000002,254.46687430003658,None,255.21759930008557,None,,,,,,,[[0.11]],1.640000000000001,0.6086956521739131,11017,001,2024_Jan_04_1500,MFTM_A_new1021,2021.2.3,60.36354550268046,
,,,,,,,,stim/Instruction_adaptive.png,conditions/adaptive.xlsx,test,-0.6,-0.6,-0.6,0.6,0.6,left,L,,,,,0,1,1,1,0,23,23,51,,,,,,,,,,,,,,,,,,,,,,,,,,,,,,,,,,,,,,,,,,,,255.71904100000393,None,left,1,2.418901199940592,256.2198024999816,258.8400649999967,256.2198024999816,258.3395260000834,256.2198024999816,258.3395260000834,256.2198024999816,258.3395260000834,256.2198024999816,258.3395260000834,256.2198024999816,258.3395260000834,258.3226711000316,258.8235522999894,258.3226711000316,258.8235522999894,258.3226711000316,258.8235522999894,258.3226711000316,258.8235522999894,258.3226711000316,258.8235522999894,258.3226711000316,258.8235522999894,258.3226711000316,258.8235522999894,258.3226711000316,258.8235522999894,256.2198024999816,None,258.8235522999894,None,2.1100000000000017,259.22413600003347,None,259.97538830002304,None,,,,,,,[[0.39]],1.8000000000000012,0.625,11017,001,2024_Jan_04_1500,MFTM_A_new1021,2021.2.3,60.36354550268046,
,,,,,,,,stim/Instruction_adaptive.png,conditions/adaptive.xlsx,test,0.6,0.6,0.6,-0.6,-0.6,right,R,,,,,0,1,1,1,0,24,24,44,,,,,,,,,,,,,,,,,,,,,,,,,,,,,,,,,,,,,,,,,,,,260.475992300082,None,right,1,2.2938267000718042,260.9768756000558,263.3805756000802,260.9768756000558,262.8789494000375,260.9768756000558,262.8789494000375,260.9768756000558,262.8789494000375,260.9768756000558,262.8789494000375,260.9768756000558,262.8789494000375,262.84647039999254,263.34684400004335,262.84647039999254,263.34684400004335,262.84647039999254,263.34684400004335,262.84647039999254,263.34684400004335,262.84647039999254,263.34684400004335,262.84647039999254,263.34684400004335,262.84647039999254,263.34684400004335,262.84647039999254,263.34684400004335,260.9768756000558,None,263.34684400004335,263.964207299985,1.8900000000000015,263.98063530004583,None,264.73243370000273,None,,,,,,,[[0.61]],1.9200000000000013,0.64,11017,001,2024_Jan_04_1500,MFTM_A_new1021,2021.2.3,60.36354550268046,
,,,,,,,,stim/Instruction_adaptive.png,conditions/adaptive.xlsx,test,0.6,0.6,0.6,-0.6,-0.6,right,R,,,,,0,1,1,1,0,25,25,58,,,,,,,,,,,,,,,,,,,,,,,,,,,,,,,,,,,,,,,,,,,,265.2333619000856,None,right,1,2.0175786999752745,265.73315260000527,267.9872168999864,265.73315260000527,267.48571769997943,265.73315260000527,267.48571769997943,265.73315260000527,267.48571769997943,265.73315260000527,267.48571769997943,265.73315260000527,267.48571769997943,267.4525483000325,267.95363800006453,267.4525483000325,267.95363800006453,267.4525483000325,267.95363800006453,267.4525483000325,267.95363800006453,267.4525483000325,267.95363800006453,267.4525483000325,267.95363800006453,267.4525483000325,267.95363800006453,267.4525483000325,267.95363800006453,265.73315260000527,None,267.95363800006453,268.7217843000544,1.7400000000000013,268.7376599999843,None,269.4888554000063,None,,,,,,,[[0.76]],2.030000000000001,0.6538461538461539,11017,001,2024_Jan_04_1500,MFTM_A_new1021,2021.2.3,60.36354550268046,
,,,,,,,,stim/Instruction_adaptive.png,conditions/adaptive.xlsx,test,-0.6,-0.6,-0.6,0.6,0.6,left,L,,,,,0,1,1,1,0,26,26,9,,,,,,,,,,,,,,,,,,,,,,,,,,,,,,,,,,,,,,,,,,,,269.98984459997155,None,left,1,2.1324577999766916,270.4902944000205,272.6100554000586,270.4902944000205,272.11041079997085,270.4902944000205,272.11041079997085,270.4902944000205,272.11041079997085,270.4902944000205,272.11041079997085,270.4902944000205,272.11041079997085,272.0758160999976,272.57664240000304,272.0758160999976,272.57664240000304,272.0758160999976,272.57664240000304,272.0758160999976,272.57664240000304,272.0758160999976,272.57664240000304,272.0758160999976,272.57664240000304,272.0758160999976,272.57664240000304,272.0758160999976,272.57664240000304,270.4902944000205,None,272.57664240000304,273.47797970008105,1.6100000000000012,273.4948082000483,None,274.24706119997427,None,,,,,,,[[0.89]],2.1300000000000017,0.6666666666666666,11017,001,2024_Jan_04_1500,MFTM_A_new1021,2021.2.3,60.36354550268046,
,,,,,,,,stim/Instruction_adaptive.png,conditions/adaptive.xlsx,test,0.6,0.6,0.6,-0.6,-0.6,right,R,,,,,0,1,1,1,0,27,27,62,,,,,,,,,,,,,,,,,,,,,,,,,,,,,,,,,,,,,,,,,,,,274.7464220999973,None,right,1,1.8315325999865308,275.2473804000765,277.2501930000726,275.2473804000765,276.7495967000723,275.2473804000765,276.7495967000723,275.2473804000765,276.7495967000723,275.2473804000765,276.7495967000723,275.2473804000765,276.7495967000723,276.73305919999257,277.2333012999734,276.73305919999257,277.2333012999734,276.73305919999257,277.2333012999734,276.73305919999257,277.2333012999734,276.73305919999257,277.2333012999734,276.73305919999257,277.2333012999734,276.73305919999257,277.2333012999734,276.73305919999257,277.2333012999734,275.2473804000765,None,277.2333012999734,278.23513919999823,1.500000000000001,278.2518913000822,None,279.003228400019,None,,,,,,,[[1.]],2.2100000000000017,0.6785714285714286,11017,001,2024_Jan_04_1500,MFTM_A_new1021,2021.2.3,60.36354550268046,
,,,,,,,,stim/Instruction_adaptive.png,conditions/adaptive.xlsx,test,0.6,0.6,0.6,-0.6,-0.6,right,R,,,,,0,1,1,1,0,28,28,72,,,,,,,,,,,,,,,,,,,,,,,,,,,,,,,,,,,,,,,,,,,,279.50367070001084,None,right,1,2.0177154999691993,280.0053391000256,281.9247272000648,280.0053391000256,281.42306679999456,280.0053391000256,281.42306679999456,280.0053391000256,281.42306679999456,280.0053391000256,281.42306679999456,280.0053391000256,281.42306679999456,281.4078833999811,281.9079085000558,281.4078833999811,281.9079085000558,281.4078833999811,281.9079085000558,281.4078833999811,281.9079085000558,281.4078833999811,281.9079085000558,281.4078833999811,281.9079085000558,281.4078833999811,281.9079085000558,281.4078833999811,281.9079085000558,280.0053391000256,None,281.9079085000558,282.99267870001495,1.420000000000001,283.0091967000626,None,283.76071220007725,None,,,,,,,[[1.08]],2.290000000000002,0.6896551724137931,11017,001,2024_Jan_04_1500,MFTM_A_new1021,2021.2.3,60.36354550268046,
,,,,,,,,stim/Instruction_adaptive.png,conditions/adaptive.xlsx,test,0.6,0.6,0.6,-0.6,-0.6,right,R,,,,,0,1,1,1,0,29,29,94,,,,,,,,,,,,,,,,,,,,,,,,,,,,,,,,,,,,,,,,,,,,284.2610712000169,None,right,1,2.085443999967538,284.7615394999739,286.61540300003253,284.7615394999739,286.1135656000115,284.7615394999739,286.1135656000115,284.7615394999739,286.1135656000115,284.7615394999739,286.1135656000115,284.7615394999739,286.1135656000115,286.0966588000301,286.59745090000797,286.0966588000301,286.59745090000797,286.0966588000301,286.59745090000797,286.0966588000301,286.59745090000797,286.0966588000301,286.59745090000797,286.0966588000301,286.59745090000797,286.0966588000301,286.59745090000797,286.0966588000301,286.59745090000797,284.7615394999739,None,286.59745090000797,287.7331111000385,1.350000000000001,287.74935539998114,None,288.50278330000583,None,,,,,,,[1.13433333],2.370000000000002,0.7,11017,001,2024_Jan_04_1500,MFTM_A_new1021,2021.2.3,60.36354550268046,
,,,,,,,,stim/Instruction_adaptive.png,conditions/adaptive.xlsx,test,-0.6,-0.6,-0.6,0.6,0.6,left,L,,,,,0,1,1,1,0,30,30,59,,,,,,,,,,,,,,,,,,,,,,,,,,,,,,,,,,,,,,,,,,,,289.01761630002875,None,left,1,1.8407100999029353,289.5018761000829,291.2717667000834,289.5018761000829,290.78792729997076,289.5018761000829,290.78792729997076,289.5018761000829,290.78792729997076,289.5018761000829,290.78792729997076,289.5018761000829,290.78792729997076,290.75370020000264,291.25504139997065,290.75370020000264,291.25504139997065,290.75370020000264,291.25504139997065,290.75370020000264,291.25504139997065,290.75370020000264,291.25504139997065,290.75370020000264,291.25504139997065,290.75370020000264,291.25504139997065,290.75370020000264,291.25504139997065,289.5018761000829,None,291.25504139997065,292.40690060006455,1.270000000000001,292.42278350004926,None,293.17385440005455,None,,,,,,,[1.13741935],2.4300000000000015,0.7096774193548387,11017,001,2024_Jan_04_1500,MFTM_A_new1021,2021.2.3,60.36354550268046,
,,,,,,,,stim/Instruction_adaptive.png,conditions/adaptive.xlsx,test,0.6,0.6,0.6,-0.6,-0.6,right,R,,,,,0,1,1,1,0,31,31,96,,,,,,,,,,,,,,,,,,,,,,,,,,,,,,,,,,,,,,,,,,,,293.6755981000606,None,right,1,1.5832661000313237,294.1756676000077,295.8946263000835,294.1756676000077,295.4104811999714,294.1756676000077,295.4104811999714,294.1756676000077,295.4104811999714,294.1756676000077,295.4104811999714,294.1756676000077,295.4104811999714,295.37776379997376,295.8780212000711,295.37776379997376,295.8780212000711,295.37776379997376,295.8780212000711,295.37776379997376,295.8780212000711,295.37776379997376,295.8780212000711,295.37776379997376,295.8780212000711,295.37776379997376,295.8780212000711,295.37776379997376,295.8780212000711,294.1756676000077,None,295.8780212000711,297.02941550000105,1.2200000000000009,297.04701510001905,None,297.7984892000677,None,,,,,,,[1.141875],2.5000000000000018,0.71875,11017,001,2024_Jan_04_1500,MFTM_A_new1021,2021.2.3,60.36354550268046,
,,,,,,,,stim/Instruction_adaptive.png,conditions/adaptive.xlsx,test,-0.6,-0.6,-0.6,0.6,0.6,left,L,,,,,0,1,1,1,0,32,32,43,,,,,,,,,,,,,,,,,,,,,,,,,,,,,,,,,,,,,,,,,,,,298.29821709997486,None,left,1,1.5277344000060111,298.79888290003873,300.46865619998425,298.79888290003873,299.96707930008415,298.79888290003873,299.96707930008415,298.79888290003873,299.96707930008415,298.79888290003873,299.96707930008415,298.79888290003873,299.96707930008415,299.9337818999775,300.43513490003534,299.9337818999775,300.43513490003534,299.9337818999775,300.43513490003534,299.9337818999775,300.43513490003534,299.9337818999775,300.43513490003534,299.9337818999775,300.43513490003534,299.9337818999775,300.43513490003534,299.9337818999775,300.43513490003534,298.79888290003873,None,300.43513490003534,301.5869114000816,1.1600000000000008,301.6198653000174,None,302.3708167000441,None,,,,,,,[1.14787879],2.560000000000002,0.7272727272727273,11017,001,2024_Jan_04_1500,MFTM_A_new1021,2021.2.3,60.36354550268046,
,,,,,,,,stim/Instruction_adaptive.png,conditions/adaptive.xlsx,test,0.6,0.6,0.6,-0.6,-0.6,right,R,,,,,0,1,1,1,0,33,33,36,,,,,,,,,,,,,,,,,,,,,,,,,,,,,,,,,,,,,,,,,,,,302.87158879998606,None,right,1,1.5460350000066683,303.3726497000316,305.00810370000545,303.3726497000316,304.5081038000062,303.3726497000316,304.5081038000062,303.3726497000316,304.5081038000062,303.3726497000316,304.5081038000062,303.3726497000316,304.5081038000062,304.47432360006496,304.97462400002405,304.47432360006496,304.97462400002405,304.47432360006496,304.97462400002405,304.47432360006496,304.97462400002405,304.47432360006496,304.97462400002405,304.47432360006496,304.97462400002405,304.47432360006496,304.97462400002405,304.47432360006496,304.97462400002405,303.3726497000316,None,304.97462400002405,306.14284680003766,1.1200000000000008,306.1598758000182,None,306.9118098000763,None,,,,,,,[1.15470588],2.610000000000002,0.7352941176470589,11017,001,2024_Jan_04_1500,MFTM_A_new1021,2021.2.3,60.36354550268046,
,,,,,,,,stim/Instruction_adaptive.png,conditions/adaptive.xlsx,test,0.6,0.6,0.6,-0.6,-0.6,right,R,,,,,0,1,1,1,0,34,34,48,,,,,,,,,,,,,,,,,,,,,,,,,,,,,,,,,,,,,,,,,,,,307.4120364000555,None,right,1,1.5821380000561476,307.9129844000563,309.4987499000272,307.9129844000563,308.9973962000804,307.9129844000563,308.9973962000804,307.9129844000563,308.9973962000804,307.9129844000563,308.9973962000804,307.9129844000563,308.9973962000804,308.9807099000318,309.48177160008345,308.9807099000318,309.48177160008345,308.9807099000318,309.48177160008345,308.9807099000318,309.48177160008345,308.9807099000318,309.48177160008345,308.9807099000318,309.48177160008345,308.9807099000318,309.48177160008345,308.9807099000318,309.48177160008345,307.9129844000563,None,309.46553030004725,310.6339954000432,1.0800000000000007,310.6669958999846,None,311.4179662000388,None,,,,,,,[1.16228571],2.660000000000002,0.7428571428571429,11017,001,2024_Jan_04_1500,MFTM_A_new1021,2021.2.3,60.36354550268046,
,,,,,,,,stim/Instruction_adaptive.png,conditions/adaptive.xlsx,test,-0.6,-0.6,-0.6,0.6,0.6,left,L,,,,,0,1,1,1,0,35,35,29,,,,,,,,,,,,,,,,,,,,,,,,,,,,,,,,,,,,,,,,,,,,311.9183088000864,None,left,1,1.4031612999970093,312.4195982000092,313.9718988999957,312.4195982000092,313.4712653000606,312.4195982000092,313.4712653000606,312.4195982000092,313.4712653000606,312.4195982000092,313.4712653000606,312.4195982000092,313.4712653000606,313.4378698000219,313.93910660000984,313.4378698000219,313.93910660000984,313.4378698000219,313.93910660000984,313.4378698000219,313.93910660000984,313.4378698000219,313.93910660000984,313.4378698000219,313.93910660000984,313.4378698000219,313.93910660000984,313.4378698000219,313.93910660000984,312.4195982000092,None,313.93910660000984,315.12383360008243,1.0400000000000007,315.139908800018,None,315.8908615000546,None,,,,,,,[1.17055556],2.7100000000000017,0.75,11017,001,2024_Jan_04_1500,MFTM_A_new1021,2021.2.3,60.36354550268046,
,,,,,,,,stim/Instruction_adaptive.png,conditions/adaptive.xlsx,test,0.6,0.6,0.6,-0.6,-0.6,right,R,,,,,0,1,1,1,0,36,36,98,,,,,,,,,,,,,,,,,,,,,,,,,,,,,,,,,,,,,,,,,,,,316.39165020000655,None,right,1,1.6512035999912769,316.89242410007864,318.4119004000677,316.89242410007864,317.9103532000445,316.89242410007864,317.9103532000445,316.89242410007864,317.9103532000445,316.89242410007864,317.9103532000445,316.89242410007864,317.9103532000445,317.87786170002073,318.378132199985,317.87786170002073,318.378132199985,317.87786170002073,318.378132199985,317.87786170002073,318.378132199985,317.87786170002073,318.378132199985,317.87786170002073,318.378132199985,317.87786170002073,318.378132199985,317.87786170002073,318.378132199985,316.89242410007864,None,318.378132199985,319.56289060006384,1.0100000000000007,319.5962972000707,None,320.34837020002306,None,,,,,,,[1.17918919],2.760000000000002,0.7567567567567568,11017,001,2024_Jan_04_1500,MFTM_A_new1021,2021.2.3,60.36354550268046,
,,,,,,,,stim/Instruction_adaptive.png,conditions/adaptive.xlsx,test,0.6,0.6,0.6,-0.6,-0.6,right,R,,,,,0,1,1,1,0,37,37,56,,,,,,,,,,,,,,,,,,,,,,,,,,,,,,,,,,,,,,,,,,,,320.84891100006644,None,None,0,0,321.3495875999797,322.83519250003155,321.3495875999797,322.33375680004247,321.3495875999797,322.33375680004247,321.3495875999797,322.33375680004247,321.3495875999797,322.33375680004247,321.3495875999797,322.33375680004247,322.3003678000532,322.8010591000784,322.3003678000532,322.8010591000784,322.3003678000532,322.8010591000784,322.3003678000532,322.8010591000784,322.3003678000532,322.8010591000784,322.3003678000532,322.8010591000784,322.3003678000532,322.8010591000784,322.3003678000532,322.8010591000784,321.3495875999797,None,322.8010591000784,324.8382279999787,0.9700000000000006,324.85388080007397,None,325.6052167000016,None,,,,,,,[[2.03]],2.620000000000002,0.7368421052631579,11017,001,2024_Jan_04_1500,MFTM_A_new1021,2021.2.3,60.36354550268046,
,,,,,,,,stim/Instruction_adaptive.png,conditions/adaptive.xlsx,test,0.6,0.6,0.6,-0.6,-0.6,right,R,,,,,0,1,1,1,0,38,38,92,,,,,,,,,,,,,,,,,,,,,,,,,,,,,,,,,,,,,,,,,,,,326.1063350000186,None,right,1,1.3841550999786705,326.606715300004,328.17661550000776,326.606715300004,327.6925959000364,326.606715300004,327.6925959000364,326.606715300004,327.6925959000364,326.606715300004,327.6925959000364,326.606715300004,327.6925959000364,327.65843020007014,328.1597891000565,327.65843020007014,328.1597891000565,327.65843020007014,328.1597891000565,327.65843020007014,328.1597891000565,327.65843020007014,328.1597891000565,327.65843020007014,328.1597891000565,327.65843020007014,328.1597891000565,327.65843020007014,328.1597891000565,326.606715300004,None,328.1597891000565,329.36201899999287,1.0700000000000007,329.37754680006765,None,330.1294240000425,None,,,,,,,[1.19461538],2.6700000000000017,0.7435897435897436,11017,001,2024_Jan_04_1500,MFTM_A_new1021,2021.2.3,60.36354550268046,
,,,,,,,,stim/Instruction_adaptive.png,conditions/adaptive.xlsx,test,-0.6,-0.6,-0.6,0.6,0.6,left,L,,,,,0,1,1,1,0,39,39,95,,,,,,,,,,,,,,,,,,,,,,,,,,,,,,,,,,,,,,,,,,,,330.6303143000696,None,left,1,1.2126786999870092,331.12996410008054,332.6660331999883,331.12996410008054,332.16493920003995,331.12996410008054,332.16493920003995,331.12996410008054,332.16493920003995,331.12996410008054,332.16493920003995,331.12996410008054,332.16493920003995,332.1486699000234,332.6490835000295,332.1486699000234,332.6490835000295,332.1486699000234,332.6490835000295,332.1486699000234,332.6490835000295,332.1486699000234,332.6490835000295,332.1486699000234,332.6490835000295,332.1486699000234,332.6490835000295,332.1486699000234,332.6490835000295,331.12996410008054,None,332.6490835000295,333.8518804999767,1.0300000000000007,333.8674543000525,None,334.61913250002544,None,,,,,,,[1.2015],2.720000000000002,0.75,11017,001,2024_Jan_04_1500,MFTM_A_new1021,2021.2.3,60.36354550268046,
,,,,,,,,stim/Instruction_adaptive.png,conditions/adaptive.xlsx,test,0.6,0.6,0.6,-0.6,-0.6,right,R,,,,,0,1,1,1,0,40,40,42,,,,,,,,,,,,,,,,,,,,,,,,,,,,,,,,,,,,,,,,,,,,335.12015189998783,None,right,1,1.4104726000223309,335.6200948000187,337.1230145000154,335.6200948000187,336.62170340004377,335.6200948000187,336.62170340004377,335.6200948000187,336.62170340004377,335.6200948000187,336.62170340004377,335.6200948000187,336.62170340004377,336.6049527999712,337.10604450001847,336.6049527999712,337.10604450001847,336.6049527999712,337.10604450001847,336.6049527999712,337.10604450001847,336.6049527999712,337.10604450001847,336.6049527999712,337.10604450001847,336.6049527999712,337.10604450001847,336.6049527999712,337.10604450001847,335.6200948000187,None,337.10604450001847,338.32434769999236,1.0000000000000007,338.34086640004534,None,339.0919534000568,None,,,,,,,[1.20878049],2.760000000000002,0.7560975609756098,11017,001,2024_Jan_04_1500,MFTM_A_new1021,2021.2.3,60.36354550268046,
,,,,,,,,stim/Instruction_adaptive.png,conditions/adaptive.xlsx,test,-0.6,-0.6,-0.6,0.6,0.6,left,L,,,,,0,1,1,1,0,41,41,45,,,,,,,,,,,,,,,,,,,,,,,,,,,,,,,,,,,,,,,,,,,,339.59265340003185,None,right,0,1.6334292999235913,340.0935143000679,341.5789680000162,340.0935143000679,341.0785579000367,340.0935143000679,341.0785579000367,340.0935143000679,341.0785579000367,340.0935143000679,341.0785579000367,340.0935143000679,341.0785579000367,341.0447808000026,341.5455945000285,341.0447808000026,341.5455945000285,341.0447808000026,341.5455945000285,341.0447808000026,341.5455945000285,341.0447808000026,341.5455945000285,341.0447808000026,341.5455945000285,341.0447808000026,341.5455945000285,341.0447808000026,341.5455945000285,340.0935143000679,None,341.5455945000285,342.7656071999809,0.9700000000000006,342.7804042000789,None,343.5327084000455,None,,,,,,,[1.21642857],2.640000000000002,0.7380952380952381,11017,001,2024_Jan_04_1500,MFTM_A_new1021,2021.2.3,60.36354550268046,
,,,,,,,,stim/Instruction_adaptive.png,conditions/adaptive.xlsx,test,0.6,0.6,0.6,-0.6,-0.6,right,R,,,,,0,1,1,1,0,42,42,86,,,,,,,,,,,,,,,,,,,,,,,,,,,,,,,,,,,,,,,,,,,,344.0324898000108,None,right,1,1.3126385000068694,344.53421279997565,346.10274500004016,344.53421279997565,345.6014955000719,344.53421279997565,345.6014955000719,344.53421279997565,345.6014955000719,344.53421279997565,345.6014955000719,344.53421279997565,345.6014955000719,345.58567010005936,346.0861831000075,345.58567010005936,346.0861831000075,345.58567010005936,346.0861831000075,345.58567010005936,346.0861831000075,345.58567010005936,346.0861831000075,345.58567010005936,346.0861831000075,345.58567010005936,346.0861831000075,345.58567010005936,346.0861831000075,344.53421279997565,None,346.0695674000308,347.3052921000635,1.0600000000000007,347.32010700006504,None,348.07313020003494,None,,,,,,,[1.22162791],2.680000000000002,0.7441860465116279,11017,001,2024_Jan_04_1500,MFTM_A_new1021,2021.2.3,60.36354550268046,
,,,,,,,,stim/Instruction_adaptive.png,conditions/adaptive.xlsx,test,0.6,0.6,0.6,-0.6,-0.6,right,R,,,,,0,1,1,1,0,43,43,54,,,,,,,,,,,,,,,,,,,,,,,,,,,,,,,,,,,,,,,,,,,,348.5733993999893,None,left,0,1.5015476000262424,349.07348130003083,350.6098223000299,349.07348130003083,350.108152300003,349.07348130003083,350.108152300003,349.07348130003083,350.108152300003,349.07348130003083,350.108152300003,349.07348130003083,350.108152300003,350.09147460001986,350.5920566000277,350.09147460001986,350.5920566000277,350.09147460001986,350.5920566000277,350.09147460001986,350.5920566000277,350.09147460001986,350.5920566000277,350.09147460001986,350.5920566000277,350.09147460001986,350.5920566000277,350.09147460001986,350.5920566000277,349.07348130003083,None,350.5920566000277,351.8280084000435,1.0300000000000007,351.8451629000483,None,352.5958455000073,None,,,,,,,[1.22727273],2.5500000000000016,0.7272727272727273,11017,001,2024_Jan_04_1500,MFTM_A_new1021,2021.2.3,60.36354550268046,
,,,,,,,,stim/Instruction_adaptive.png,conditions/adaptive.xlsx,test,-0.6,-0.6,-0.6,0.6,0.6,left,L,,,,,0,1,1,1,0,44,44,1,,,,,,,,,,,,,,,,,,,,,,,,,,,,,,,,,,,,,,,,,,,,353.0961737000616,None,right,0,1.585936599993147,353.5967957000248,355.2323379999725,353.5967957000248,354.73249030008446,353.5967957000248,354.73249030008446,353.5967957000248,354.73249030008446,353.5967957000248,354.73249030008446,353.5967957000248,354.73249030008446,354.69858920003753,355.19886990007944,354.69858920003753,355.19886990007944,354.69858920003753,355.19886990007944,354.69858920003753,355.19886990007944,354.69858920003753,355.19886990007944,354.69858920003753,355.19886990007944,354.69858920003753,355.19886990007944,354.69858920003753,355.19886990007944,353.5967957000248,None,355.19886990007944,356.4354729000479,1.1200000000000008,356.4503683000803,None,357.20189000002574,None,,,,,,,[1.23066667],2.4200000000000017,0.7111111111111111,11017,001,2024_Jan_04_1500,MFTM_A_new1021,2021.2.3,60.36354550268046,
,,,,,,,,stim/Instruction_adaptive.png,conditions/adaptive.xlsx,test,-0.6,-0.6,-0.6,0.6,0.6,left,L,,,,,0,1,1,1,0,45,45,63,,,,,,,,,,,,,,,,,,,,,,,,,,,,,,,,,,,,,,,,,,,,357.70281980000436,None,left,1,1.346841900027357,358.20405780000146,359.93960100004915,358.20405780000146,359.43887369998265,358.20405780000146,359.43887369998265,358.20405780000146,359.43887369998265,358.20405780000146,359.43887369998265,358.20405780000146,359.43887369998265,359.4220796000445,359.92316960007884,359.4220796000445,359.92316960007884,359.4220796000445,359.92316960007884,359.4220796000445,359.92316960007884,359.4220796000445,359.92316960007884,359.4220796000445,359.92316960007884,359.4220796000445,359.92316960007884,359.4220796000445,359.92316960007884,358.20405780000146,None,359.92316960007884,361.15901310008485,1.2300000000000009,361.17440550005995,None,361.925790600013,None,,,,,,,[1.23152174],2.4700000000000015,0.717391304347826,11017,001,2024_Jan_04_1500,MFTM_A_new1021,2021.2.3,60.36354550268046,
,,,,,,,,stim/Instruction_adaptive.png,conditions/adaptive.xlsx,test,-0.6,-0.6,-0.6,0.6,0.6,left,L,,,,,0,1,1,1,0,46,46,31,,,,,,,,,,,,,,,,,,,,,,,,,,,,,,,,,,,,,,,,,,,,362.4270907000173,None,left,1,1.3750763999996707,362.92786080006044,364.630738100037,362.92786080006044,364.129869800061,362.92786080006044,364.129869800061,362.92786080006044,364.129869800061,362.92786080006044,364.129869800061,362.92786080006044,364.129869800061,364.0961060000118,364.596532399999,364.0961060000118,364.596532399999,364.0961060000118,364.596532399999,364.0961060000118,364.596532399999,364.0961060000118,364.596532399999,364.0961060000118,364.596532399999,364.0961060000118,364.596532399999,364.0961060000118,364.596532399999,362.92786080006044,None,364.596532399999,365.8324940999737,1.1900000000000008,365.86538900004234,None,366.61623010004405,None,,,,,,,[1.23319149],2.5100000000000016,0.723404255319149,11017,001,2024_Jan_04_1500,MFTM_A_new1021,2021.2.3,60.36354550268046,
,,,,,,,,stim/Instruction_adaptive.png,conditions/adaptive.xlsx,test,0.6,0.6,0.6,-0.6,-0.6,right,R,,,,,0,1,1,1,0,47,47,84,,,,,,,,,,,,,,,,,,,,,,,,,,,,,,,,,,,,,,,,,,,,367.11769630003255,None,right,1,1.541391700040549,367.6174791000085,369.2699419000419,367.6174791000085,368.76917230000254,367.6174791000085,368.76917230000254,367.6174791000085,368.76917230000254,367.6174791000085,368.76917230000254,367.6174791000085,368.76917230000254,368.75241479999386,369.25375510007143,368.75241479999386,369.25375510007143,368.75241479999386,369.25375510007143,368.75241479999386,369.25375510007143,368.75241479999386,369.25375510007143,368.75241479999386,369.25375510007143,368.75241479999386,369.25375510007143,368.75241479999386,369.25375510007143,367.6174791000085,None,369.25375510007143,370.4885126000736,1.1500000000000008,370.5054486000445,None,371.2563126999885,None,,,,,,,[1.235625],2.5500000000000016,0.7291666666666666,11017,001,2024_Jan_04_1500,MFTM_A_new1021,2021.2.3,60.36354550268046,
,,,,,,,,stim/Instruction_adaptive.png,conditions/adaptive.xlsx,test,-0.6,-0.6,-0.6,0.6,0.6,left,L,,,,,0,1,1,1,0,48,48,23,,,,,,,,,,,,,,,,,,,,,,,,,,,,,,,,,,,,,,,,,,,,371.7569815000752,None,right,0,1.6696337000466883,372.25772680004593,373.87778820004314,372.25772680004593,373.3926759000169,372.25772680004593,373.3926759000169,372.25772680004593,373.3926759000169,372.25772680004593,373.3926759000169,372.25772680004593,373.3926759000169,373.3593117999844,373.86011720006354,373.3593117999844,373.86011720006354,373.3593117999844,373.86011720006354,373.3593117999844,373.86011720006354,373.3593117999844,373.86011720006354,373.3593117999844,373.86011720006354,373.3593117999844,373.86011720006354,373.3593117999844,373.86011720006354,372.25772680004593,None,373.86011720006354,375.11265030002687,1.1200000000000008,375.12808569998015,None,375.87964940001257,None,,,,,,,[1.23857143],2.4300000000000015,0.7142857142857143,11017,001,2024_Jan_04_1500,MFTM_A_new1021,2021.2.3,60.36354550268046,
,,,,,,,,stim/Instruction_adaptive.png,conditions/adaptive.xlsx,test,-0.6,-0.6,-0.6,0.6,0.6,left,L,,,,,0,1,1,1,0,49,49,85,,,,,,,,,,,,,,,,,,,,,,,,,,,,,,,,,,,,,,,,,,,,376.3804760000203,None,left,1,1.4452430000528693,376.88158990000375,378.6005884000333,376.88158990000375,378.11702570004854,376.88158990000375,378.11702570004854,376.88158990000375,378.11702570004854,376.88158990000375,378.11702570004854,376.88158990000375,378.11702570004854,378.08286780002527,378.58450720005203,378.08286780002527,378.58450720005203,378.08286780002527,378.58450720005203,378.08286780002527,378.58450720005203,378.08286780002527,378.58450720005203,378.08286780002527,378.58450720005203,378.08286780002527,378.58450720005203,378.08286780002527,378.58450720005203,376.88158990000375,None,378.58450720005203,379.83625719998963,1.2200000000000009,379.8522778999759,None,380.6039919999894,None,,,,,,,[1.2394],2.4800000000000018,0.72,11017,001,2024_Jan_04_1500,MFTM_A_new1021,2021.2.3,60.36354550268046,
,,,,,,,,stim/Instruction_adaptive.png,conditions/adaptive.xlsx,test,-0.6,-0.6,-0.6,0.6,0.6,left,L,,,,,0,1,1,1,0,50,50,49,,,,,,,,,,,,,,,,,,,,,,,,,,,,,,,,,,,,,,,,,,,,381.10515319998376,None,left,1,1.9298188000684604,381.6051125000231,383.2927409000695,381.6051125000231,382.7900428000139,381.6051125000231,382.7900428000139,381.6051125000231,382.7900428000139,381.6051125000231,382.7900428000139,381.6051125000231,382.7900428000139,382.77324650005903,383.2739246999845,382.77324650005903,383.2739246999845,382.77324650005903,383.2739246999845,382.77324650005903,383.2739246999845,382.77324650005903,383.2739246999845,382.77324650005903,383.2739246999845,382.77324650005903,383.2739246999845,382.77324650005903,383.2739246999845,381.6051125000231,None,383.2739246999845,None,1.1800000000000008,384.5256129000336,None,385.2774107999867,None,,,,,,,[1.24098039],2.520000000000002,0.7254901960784313,11017,001,2024_Jan_04_1500,MFTM_A_new1021,2021.2.3,60.36354550268046,
,,,,,,,,stim/Instruction_adaptive.png,conditions/adaptive.xlsx,test,-0.6,-0.6,-0.6,0.6,0.6,left,L,,,,,0,1,1,1,0,51,51,87,,,,,,,,,,,,,,,,,,,,,,,,,,,,,,,,,,,,,,,,,,,,385.7783841000637,None,left,1,1.3122168000554666,386.27854830003344,387.9316421999829,386.27854830003344,387.4308243000414,386.27854830003344,387.4308243000414,386.27854830003344,387.4308243000414,386.27854830003344,387.4308243000414,386.27854830003344,387.4308243000414,387.41426500002854,387.91497639997397,387.41426500002854,387.91497639997397,387.41426500002854,387.91497639997397,387.41426500002854,387.91497639997397,387.41426500002854,387.91497639997397,387.41426500002854,387.91497639997397,387.41426500002854,387.91497639997397,387.41426500002854,387.91497639997397,386.27854830003344,None,387.91497639997397,389.16621400008444,1.1500000000000008,389.18270080001093,None,389.93434520007577,None,,,,,,,[1.24307692],2.560000000000002,0.7307692307692307,11017,001,2024_Jan_04_1500,MFTM_A_new1021,2021.2.3,60.36354550268046,
,,,,,,,,stim/Instruction_adaptive.png,conditions/adaptive.xlsx,test,-0.6,-0.6,-0.6,0.6,0.6,left,L,,,,,0,1,1,1,0,52,52,37,,,,,,,,,,,,,,,,,,,,,,,,,,,,,,,,,,,,,,,,,,,,390.43468309997115,None,left,1,1.0555390999652445,390.93534930003807,392.55452830006834,390.93534930003807,392.07127269997727,390.93534930003807,392.07127269997727,390.93534930003807,392.07127269997727,390.93534930003807,392.07127269997727,390.93534930003807,392.07127269997727,392.03752660006285,392.5377665000269,392.03752660006285,392.5377665000269,392.03752660006285,392.5377665000269,392.03752660006285,392.5377665000269,392.03752660006285,392.5377665000269,392.03752660006285,392.5377665000269,392.03752660006285,392.5377665000269,392.03752660006285,392.5377665000269,390.93534930003807,None,392.5377665000269,393.7893919000635,1.1200000000000008,393.80627360008657,None,394.55743659997825,None,,,,,,,[1.24566038],2.5900000000000016,0.7358490566037735,11017,001,2024_Jan_04_1500,MFTM_A_new1021,2021.2.3,60.36354550268046,
,,,,,,,,stim/Instruction_adaptive.png,conditions/adaptive.xlsx,test,0.6,0.6,0.6,-0.6,-0.6,right,R,,,,,0,1,1,1,0,53,53,20,,,,,,,,,,,,,,,,,,,,,,,,,,,,,,,,,,,,,,,,,,,,395.05859700008295,None,right,1,1.3203039000509307,395.5588646000251,397.1612469999818,395.5588646000251,396.6607855000766,395.5588646000251,396.6607855000766,395.5588646000251,396.6607855000766,395.5588646000251,396.6607855000766,395.5588646000251,396.6607855000766,396.62757520005107,397.12854419997893,396.62757520005107,397.12854419997893,396.62757520005107,397.12854419997893,396.62757520005107,397.12854419997893,396.62757520005107,397.12854419997893,396.62757520005107,397.12854419997893,396.62757520005107,397.12854419997893,396.62757520005107,397.12854419997893,395.5588646000251,None,397.12854419997893,398.37968650006223,1.0900000000000007,398.41315679997206,None,399.1656263000332,None,,,,,,,[1.2487037],2.6300000000000017,0.7407407407407407,11017,001,2024_Jan_04_1500,MFTM_A_new1021,2021.2.3,60.36354550268046,
,,,,,,,,stim/Instruction_adaptive.png,conditions/adaptive.xlsx,test,-0.6,-0.6,-0.6,0.6,0.6,left,L,,,,,0,1,1,1,0,54,54,81,,,,,,,,,,,,,,,,,,,,,,,,,,,,,,,,,,,,,,,,,,,,399.66494950000197,None,left,1,1.7214728000108153,400.1657716999762,401.73460169998,400.1657716999762,401.23382530000526,400.1657716999762,401.23382530000526,400.1657716999762,401.23382530000526,400.1657716999762,401.23382530000526,400.1657716999762,401.23382530000526,401.2006445999723,401.70228139997926,401.2006445999723,401.70228139997926,401.2006445999723,401.70228139997926,401.2006445999723,401.70228139997926,401.2006445999723,401.70228139997926,401.2006445999723,401.70228139997926,401.2006445999723,401.70228139997926,401.2006445999723,401.70228139997926,400.1657716999762,None,401.70228139997926,402.96998940000776,1.0600000000000007,402.98734710004646,None,403.7378397000721,None,,,,,,,[1.25218182],2.660000000000002,0.7454545454545455,11017,001,2024_Jan_04_1500,MFTM_A_new1021,2021.2.3,60.36354550268046,
,,,,,,,,stim/Instruction_adaptive.png,conditions/adaptive.xlsx,test,0.6,0.6,0.6,-0.6,-0.6,right,R,,,,,0,1,1,1,0,55,55,2,,,,,,,,,,,,,,,,,,,,,,,,,,,,,,,,,,,,,,,,,,,,404.2385260000592,None,right,1,1.3702482999069616,404.7406471000286,406.2914829000365,404.7406471000286,405.79151770006865,404.7406471000286,405.79151770006865,404.7406471000286,405.79151770006865,404.7406471000286,405.79151770006865,404.7406471000286,405.79151770006865,405.7571566000115,406.25860689999536,405.7571566000115,406.25860689999536,405.7571566000115,406.25860689999536,405.7571566000115,406.25860689999536,405.7571566000115,406.25860689999536,405.7571566000115,406.25860689999536,405.7571566000115,406.25860689999536,405.7571566000115,406.25860689999536,404.7406471000286,None,406.25860689999536,407.52701219997834,1.0400000000000007,407.54393480008,None,408.29444470000453,None,,,,,,,[1.25589286],2.700000000000002,0.75,11017,001,2024_Jan_04_1500,MFTM_A_new1021,2021.2.3,60.36354550268046,
,,,,,,,,stim/Instruction_adaptive.png,conditions/adaptive.xlsx,test,-0.6,-0.6,-0.6,0.6,0.6,left,L,,,,,0,1,1,1,0,56,56,61,,,,,,,,,,,,,,,,,,,,,,,,,,,,,,,,,,,,,,,,,,,,408.79503540007863,None,left,1,1.4391813999973238,409.29571219999343,410.8152436000528,409.29571219999343,410.31526639999356,409.29571219999343,410.31526639999356,409.29571219999343,410.31526639999356,409.29571219999343,410.31526639999356,409.29571219999343,410.31526639999356,410.2813004000345,410.7823902000673,410.2813004000345,410.7823902000673,410.2813004000345,410.7823902000673,410.2813004000345,410.7823902000673,410.2813004000345,410.7823902000673,410.2813004000345,410.7823902000673,410.2813004000345,410.7823902000673,410.2813004000345,410.7823902000673,409.29571219999343,None,410.7823902000673,412.0508069000207,1.0100000000000007,412.0665940999752,None,412.81911679997575,None,,,,,,,[1.26],2.730000000000002,0.7543859649122807,11017,001,2024_Jan_04_1500,MFTM_A_new1021,2021.2.3,60.36354550268046,
,,,,,,,,stim/Instruction_adaptive.png,conditions/adaptive.xlsx,test,-0.6,-0.6,-0.6,0.6,0.6,left,L,,,,,0,1,1,1,0,57,57,25,,,,,,,,,,,,,,,,,,,,,,,,,,,,,,,,,,,,,,,,,,,,413.31845450005494,None,right,0,1.378894399967976,413.8199488000246,415.32235660008155,413.8199488000246,414.8207712000003,413.8199488000246,414.8207712000003,413.8199488000246,414.8207712000003,413.8199488000246,414.8207712000003,413.8199488000246,414.8207712000003,414.78787300002296,415.2882892000489,414.78787300002296,415.2882892000489,414.78787300002296,415.2882892000489,414.78787300002296,415.2882892000489,414.78787300002296,415.2882892000489,414.78787300002296,415.2882892000489,414.78787300002296,415.2882892000489,414.78787300002296,415.2882892000489,413.8199488000246,None,415.2882892000489,416.55734469997697,0.9900000000000007,416.5733340000734,None,417.32454280008096,None,,,,,,,[1.26431034],2.6300000000000017,0.7413793103448276,11017,001,2024_Jan_04_1500,MFTM_A_new1021,2021.2.3,60.36354550268046,
,,,,,,,,stim/Instruction_adaptive.png,conditions/adaptive.xlsx,test,-0.6,-0.6,-0.6,0.6,0.6,left,L,,,,,0,1,1,1,0,58,58,69,,,,,,,,,,,,,,,,,,,,,,,,,,,,,,,,,,,,,,,,,,,,417.82592520001344,None,left,1,1.2400791000109166,418.32713190000504,419.89534200006165,418.32713190000504,419.394439100055,418.32713190000504,419.394439100055,418.32713190000504,419.394439100055,418.32713190000504,419.394439100055,418.32713190000504,419.394439100055,419.3606373000657,419.8622650000034,419.3606373000657,419.8622650000034,419.3606373000657,419.8622650000034,419.3606373000657,419.8622650000034,419.3606373000657,419.8622650000034,419.3606373000657,419.8622650000034,419.3606373000657,419.8622650000034,419.3606373000657,419.8622650000034,418.32713190000504,None,419.8622650000034,421.13075140002184,1.0600000000000007,421.16352709999774,None,421.91543799999636,None,,,,,,,[1.26728814],2.6700000000000017,0.7457627118644068,11017,001,2024_Jan_04_1500,MFTM_A_new1021,2021.2.3,60.36354550268046,
,,,,,,,,stim/Instruction_adaptive.png,conditions/adaptive.xlsx,test,0.6,0.6,0.6,-0.6,-0.6,right,R,,,,,0,1,1,1,0,59,59,88,,,,,,,,,,,,,,,,,,,,,,,,,,,,,,,,,,,,,,,,,,,,422.4153425000841,None,right,1,1.5225438000634313,422.9161557999905,424.45182169997133,422.9161557999905,423.95191970001906,422.9161557999905,423.95191970001906,422.9161557999905,423.95191970001906,422.9161557999905,423.95191970001906,422.9161557999905,423.95191970001906,423.9346271000104,424.43577310000546,423.9346271000104,424.43577310000546,423.9346271000104,424.43577310000546,423.9346271000104,424.43577310000546,423.9346271000104,424.43577310000546,423.9346271000104,424.43577310000546,423.9346271000104,424.43577310000546,423.9346271000104,424.43577310000546,422.9161557999905,None,424.43577310000546,None,1.0300000000000007,425.7206406000769,None,426.47202740004286,None,,,,,,,[1.27066667],2.700000000000002,0.75,11017,001,2024_Jan_04_1500,MFTM_A_new1021,2021.2.3,60.36354550268046,
,,,,,,,,stim/Instruction_adaptive.png,conditions/adaptive.xlsx,test,-0.6,-0.6,-0.6,0.6,0.6,left,L,,,,,0,1,1,1,0,60,60,27,,,,,,,,,,,,,,,,,,,,,,,,,,,,,,,,,,,,,,,,,,,,426.9735002000816,None,left,1,1.1174751999787986,427.47340800007805,428.9925761000486,427.47340800007805,428.4918714000378,427.47340800007805,428.4918714000378,427.47340800007805,428.4918714000378,427.47340800007805,428.4918714000378,427.47340800007805,428.4918714000378,428.4584159000078,428.95946809998713,428.4584159000078,428.95946809998713,428.4584159000078,428.95946809998713,428.4584159000078,428.95946809998713,428.4584159000078,428.95946809998713,428.4584159000078,428.95946809998713,428.4584159000078,428.95946809998713,428.4584159000078,428.95946809998713,427.47340800007805,None,428.95946809998713,430.24499320006,1.0100000000000007,430.2601713000331,None,431.0118359000189,None,,,,,,,[1.2742623],2.730000000000002,0.7540983606557377,11017,001,2024_Jan_04_1500,MFTM_A_new1021,2021.2.3,60.36354550268046,
,,,,,,,,stim/Instruction_adaptive.png,conditions/adaptive.xlsx,test,-0.6,-0.6,-0.6,0.6,0.6,left,L,,,,,0,1,1,1,0,61,61,41,,,,,,,,,,,,,,,,,,,,,,,,,,,,,,,,,,,,,,,,,,,,431.5124944000272,None,left,1,1.3139048999873921,432.0135625000112,433.51544190000277,432.0135625000112,433.01448550005443,432.0135625000112,433.01448550005443,432.0135625000112,433.01448550005443,432.0135625000112,433.01448550005443,432.0135625000112,433.01448550005443,432.98089030000847,433.4826795000117,432.98089030000847,433.4826795000117,432.98089030000847,433.4826795000117,432.98089030000847,433.4826795000117,432.98089030000847,433.4826795000117,432.98089030000847,433.4826795000117,432.98089030000847,433.4826795000117,432.98089030000847,433.4826795000117,432.0135625000112,None,433.4826795000117,434.76696280005854,0.9900000000000007,434.78349719999824,None,435.5357553000795,None,,,,,,,[1.27806452],2.760000000000002,0.7580645161290323,11017,001,2024_Jan_04_1500,MFTM_A_new1021,2021.2.3,60.36354550268046,
,,,,,,,,stim/Instruction_adaptive.png,conditions/adaptive.xlsx,test,0.6,0.6,0.6,-0.6,-0.6,right,R,,,,,0,1,1,1,0,62,62,38,,,,,,,,,,,,,,,,,,,,,,,,,,,,,,,,,,,,,,,,,,,,436.0355995000573,None,left,0,1.3103751000016928,436.53632840001956,438.00571719999425,436.53632840001956,437.52097269997466,436.53632840001956,437.52097269997466,436.53632840001956,437.52097269997466,436.53632840001956,437.52097269997466,436.53632840001956,437.52097269997466,437.4877442000434,437.9903489999706,437.4877442000434,437.9903489999706,437.4877442000434,437.9903489999706,437.4877442000434,437.9903489999706,437.4877442000434,437.9903489999706,437.4877442000434,437.9903489999706,437.4877442000434,437.9903489999706,437.4877442000434,437.9903489999706,436.53632840001956,None,437.9903489999706,439.2744586999761,0.9700000000000006,439.2904294000473,None,440.04204189998563,None,,,,,,,[1.28206349],2.6700000000000017,0.746031746031746,11017,001,2024_Jan_04_1500,MFTM_A_new1021,2021.2.3,60.36354550268046,
,,,,,,,,stim/Instruction_adaptive.png,conditions/adaptive.xlsx,test,-0.6,-0.6,-0.6,0.6,0.6,left,L,,,,,0,1,1,1,0,63,63,71,,,,,,,,,,,,,,,,,,,,,,,,,,,,,,,,,,,,,,,,,,,,440.5429501000326,None,left,1,1.5963277000701055,441.0430226000026,442.57927590003237,441.0430226000026,442.0784714000765,441.0430226000026,442.0784714000765,441.0430226000026,442.0784714000765,441.0430226000026,442.0784714000765,441.0430226000026,442.0784714000765,442.061223500059,442.5619170999853,442.061223500059,442.5619170999853,442.061223500059,442.5619170999853,442.061223500059,442.5619170999853,442.061223500059,442.5619170999853,442.061223500059,442.5619170999853,442.061223500059,442.5619170999853,442.061223500059,442.5619170999853,441.0430226000026,None,442.5619170999853,443.84764579997864,1.0300000000000007,443.86445830005687,None,444.61499470006675,None,,,,,,,[1.285],2.700000000000002,0.75,11017,001,2024_Jan_04_1500,MFTM_A_new1021,2021.2.3,60.36354550268046,
,,,,,,,,stim/Instruction_adaptive.png,conditions/adaptive.xlsx,test,-0.6,-0.6,-0.6,0.6,0.6,left,L,,,,,0,1,1,1,0,64,64,99,,,,,,,,,,,,,,,,,,,,,,,,,,,,,,,,,,,,,,,,,,,,445.11560480005573,None,right,0,1.6550516000716016,445.616379700019,447.1352886999957,445.616379700019,446.6345897000283,445.616379700019,446.6345897000283,445.616379700019,446.6345897000283,445.616379700019,446.6345897000283,445.616379700019,446.6345897000283,446.6011829000199,447.10181460005697,446.6011829000199,447.10181460005697,446.6011829000199,447.10181460005697,446.6011829000199,447.10181460005697,446.6011829000199,447.10181460005697,446.6011829000199,447.10181460005697,446.6011829000199,447.10181460005697,446.6011829000199,447.10181460005697,445.616379700019,None,447.10181460005697,448.4040458999807,1.0100000000000007,448.42061849997845,None,449.1718881999841,None,,,,,,,[1.28815385],2.620000000000002,0.7384615384615385,11017,001,2024_Jan_04_1500,MFTM_A_new1021,2021.2.3,60.36354550268046,
,,,,,,,,stim/Instruction_adaptive.png,conditions/adaptive.xlsx,test,-0.6,-0.6,-0.6,0.6,0.6,left,L,,,,,0,1,1,1,0,65,65,3,,,,,,,,,,,,,,,,,,,,,,,,,,,,,,,,,,,,,,,,,,,,449.6734850000357,None,left,1,1.2491757000098005,450.17385230003856,451.758854100015,450.17385230003856,451.2586841000011,450.17385230003856,451.2586841000011,450.17385230003856,451.2586841000011,450.17385230003856,451.2586841000011,450.17385230003856,451.2586841000011,451.2252070000395,451.72615330002736,451.2252070000395,451.72615330002736,451.2252070000395,451.72615330002736,451.2252070000395,451.72615330002736,451.2252070000395,451.72615330002736,451.2252070000395,451.72615330002736,451.2252070000395,451.72615330002736,451.2252070000395,451.72615330002736,450.17385230003856,None,451.72615330002736,453.0278643000638,1.0700000000000007,453.04413340007886,None,453.7956090000225,None,,,,,,,[1.29030303],2.650000000000002,0.7424242424242424,11017,001,2024_Jan_04_1500,MFTM_A_new1021,2021.2.3,60.36354550268046,
,,,,,,,,stim/Instruction_adaptive.png,conditions/adaptive.xlsx,test,-0.6,-0.6,-0.6,0.6,0.6,left,L,,,,,0,1,1,1,0,66,66,97,,,,,,,,,,,,,,,,,,,,,,,,,,,,,,,,,,,,,,,,,,,,454.2961849999847,None,left,1,1.6262343000853434,454.79664379998576,456.34906699997373,454.79664379998576,455.8481336000841,454.79664379998576,455.8481336000841,454.79664379998576,455.8481336000841,454.79664379998576,455.8481336000841,454.79664379998576,455.8481336000841,455.83157010003924,456.3322608000599,455.83157010003924,456.3322608000599,455.83157010003924,456.3322608000599,455.83157010003924,456.3322608000599,455.83157010003924,456.3322608000599,455.83157010003924,456.3322608000599,455.83157010003924,456.3322608000599,455.83157010003924,456.3322608000599,454.79664379998576,None,456.3322608000599,457.6348164000083,1.0500000000000007,457.6513578000013,None,458.4022401000839,None,,,,,,,[1.29268657],2.6700000000000017,0.746268656716418,11017,001,2024_Jan_04_1500,MFTM_A_new1021,2021.2.3,60.36354550268046,
,,,,,,,,stim/Instruction_adaptive.png,conditions/adaptive.xlsx,test,0.6,0.6,0.6,-0.6,-0.6,right,R,,,,,0,1,1,1,0,67,67,82,,,,,,,,,,,,,,,,,,,,,,,,,,,,,,,,,,,,,,,,,,,,458.90277490008157,None,right,1,1.3309083000058308,459.40439629997127,460.9393087000353,459.40439629997127,460.43834260001313,459.40439629997127,460.43834260001313,459.40439629997127,460.43834260001313,459.40439629997127,460.43834260001313,459.40439629997127,460.43834260001313,460.42185570008587,460.9230655999854,460.42185570008587,460.9230655999854,460.42185570008587,460.9230655999854,460.42185570008587,460.9230655999854,460.42185570008587,460.9230655999854,460.42185570008587,460.9230655999854,460.42185570008587,460.9230655999854,460.42185570008587,460.9230655999854,459.40439629997127,None,460.9230655999854,462.225086200051,1.0300000000000007,462.2418029999826,None,462.9929472000804,None,,,,,,,[1.29529412],2.700000000000002,0.75,11017,001,2024_Jan_04_1500,MFTM_A_new1021,2021.2.3,60.36354550268046,
,,,,,,,,stim/Instruction_adaptive.png,conditions/adaptive.xlsx,test,0.6,0.6,0.6,-0.6,-0.6,right,R,,,,,0,1,1,1,0,68,68,4,,,,,,,,,,,,,,,,,,,,,,,,,,,,,,,,,,,,,,,,,,,,463.492989600054,None,right,1,1.3173514999216422,463.9937122000847,465.51334010006394,463.9937122000847,465.0119831999764,463.9937122000847,465.0119831999764,463.9937122000847,465.0119831999764,463.9937122000847,465.0119831999764,463.9937122000847,465.0119831999764,464.97909839998465,465.4791927000042,464.97909839998465,465.4791927000042,464.97909839998465,465.4791927000042,464.97909839998465,465.4791927000042,464.97909839998465,465.4791927000042,464.97909839998465,465.4791927000042,464.97909839998465,465.4791927000042,464.97909839998465,465.4791927000042,463.9937122000847,None,465.4791927000042,466.78123459999915,1.0100000000000007,466.81466899998486,None,467.5656834000256,None,,,,,,,[1.29811594],2.730000000000002,0.7536231884057971,11017,001,2024_Jan_04_1500,MFTM_A_new1021,2021.2.3,60.36354550268046,
,,,,,,,,stim/Instruction_adaptive.png,conditions/adaptive.xlsx,test,0.6,0.6,0.6,-0.6,-0.6,right,R,,,,,0,1,1,1,0,69,69,26,,,,,,,,,,,,,,,,,,,,,,,,,,,,,,,,,,,,,,,,,,,,468.0670867000008,None,right,1,1.3675246000057086,468.5672387999948,470.0700271000387,468.5672387999948,469.5690300000133,468.5672387999948,469.5690300000133,468.5672387999948,469.5690300000133,468.5672387999948,469.5690300000133,468.5672387999948,469.5690300000133,469.53585320001,470.03725489997305,469.53585320001,470.03725489997305,469.53585320001,470.03725489997305,469.53585320001,470.03725489997305,469.53585320001,470.03725489997305,469.53585320001,470.03725489997305,469.53585320001,470.03725489997305,469.53585320001,470.03725489997305,468.5672387999948,None,470.03725489997305,471.3387405000394,0.9900000000000007,471.37121910008136,None,472.1229110000422,None,,,,,,,[1.30114286],2.760000000000002,0.7571428571428571,11017,001,2024_Jan_04_1500,MFTM_A_new1021,2021.2.3,60.36354550268046,
,,,,,,,,stim/Instruction_adaptive.png,conditions/adaptive.xlsx,test,-0.6,-0.6,-0.6,0.6,0.6,left,L,,,,,0,1,1,1,0,70,70,93,,,,,,,,,,,,,,,,,,,,,,,,,,,,,,,,,,,,,,,,,,,,472.6231932999799,None,left,1,1.1306863999925554,473.12458180007525,474.6094234000193,473.12458180007525,474.10923619999085,473.12458180007525,474.10923619999085,473.12458180007525,474.10923619999085,473.12458180007525,474.10923619999085,473.12458180007525,474.10923619999085,474.0762788000284,474.57616840000264,474.0762788000284,474.57616840000264,474.0762788000284,474.57616840000264,474.0762788000284,474.57616840000264,474.0762788000284,474.57616840000264,474.0762788000284,474.57616840000264,474.0762788000284,474.57616840000264,474.0762788000284,474.57616840000264,473.12458180007525,None,474.57616840000264,475.8945900000399,0.9700000000000006,475.9113888000138,None,476.6627334000077,None,,,,,,,[1.3043662],2.780000000000002,0.7605633802816901,11017,001,2024_Jan_04_1500,MFTM_A_new1021,2021.2.3,60.36354550268046,
,,,,,,,,stim/Instruction_adaptive.png,conditions/adaptive.xlsx,test,0.6,0.6,0.6,-0.6,-0.6,right,R,,,,,0,1,1,1,0,71,71,60,,,,,,,,,,,,,,,,,,,,,,,,,,,,,,,,,,,,,,,,,,,,477.163010600023,None,right,1,1.5032936000498012,477.66421730001457,479.13282790000085,477.66421730001457,478.63297640008386,477.66421730001457,478.63297640008386,477.66421730001457,478.63297640008386,477.66421730001457,478.63297640008386,477.66421730001457,478.63297640008386,478.5992692,479.09974900004454,478.5992692,479.09974900004454,478.5992692,479.09974900004454,478.5992692,479.09974900004454,478.5992692,479.09974900004454,478.5992692,479.09974900004454,478.5992692,479.09974900004454,478.5992692,479.09974900004454,477.66421730001457,None,479.09974900004454,480.4185594000155,0.9600000000000006,480.4355153000215,None,481.1860535000451,None,,,,,,,[1.30763889],2.8100000000000023,0.7638888888888888,11017,001,2024_Jan_04_1500,MFTM_A_new1021,2021.2.3,60.36354550268046,
,,,,,,,,stim/Instruction_adaptive.png,conditions/adaptive.xlsx,test,0.6,0.6,0.6,-0.6,-0.6,right,R,,,,,0,1,1,1,0,72,72,24,,,,,,,,,,,,,,,,,,,,,,,,,,,,,,,,,,,,,,,,,,,,481.686515300069,None,right,1,1.3558404999785125,482.1871799000073,483.64105099998415,482.1871799000073,483.1391411999939,482.1871799000073,483.1391411999939,482.1871799000073,483.1391411999939,482.1871799000073,483.1391411999939,482.1871799000073,483.1391411999939,483.1058209000621,483.60607560002245,483.1058209000621,483.60607560002245,483.1058209000621,483.60607560002245,483.1058209000621,483.60607560002245,483.1058209000621,483.60607560002245,483.1058209000621,483.60607560002245,483.1058209000621,483.60607560002245,483.1058209000621,483.60607560002245,482.1871799000073,None,483.60607560002245,484.92521560005844,0.9400000000000006,484.94145809998736,None,485.6930475999834,None,,,,,,,[1.31109589],2.830000000000002,0.7671232876712328,11017,001,2024_Jan_04_1500,MFTM_A_new1021,2021.2.3,60.36354550268046,
,,,,,,,,stim/Instruction_adaptive.png,conditions/adaptive.xlsx,test,-0.6,-0.6,-0.6,0.6,0.6,left,L,,,,,0,1,1,1,0,73,73,5,,,,,,,,,,,,,,,,,,,,,,,,,,,,,,,,,,,,,,,,,,,,486.1944950000616,None,left,1,1.25682750006672,486.69411629997194,488.12950350006577,486.69411629997194,487.62853149999864,486.69411629997194,487.62853149999864,486.69411629997194,487.62853149999864,486.69411629997194,487.62853149999864,486.69411629997194,487.62853149999864,487.61177379998844,488.1134560999926,487.61177379998844,488.1134560999926,487.61177379998844,488.1134560999926,487.61177379998844,488.1134560999926,487.61177379998844,488.1134560999926,487.61177379998844,488.1134560999926,487.61177379998844,488.1134560999926,487.61177379998844,488.1134560999926,486.69411629997194,None,488.1134560999926,489.4321503000101,0.9300000000000006,489.4479339000536,None,490.20003100007307,None,,,,,,,[1.31459459],2.8500000000000023,0.7702702702702703,11017,001,2024_Jan_04_1500,MFTM_A_new1021,2021.2.3,60.36354550268046,
,,,,,,,,stim/Instruction_adaptive.png,conditions/adaptive.xlsx,test,0.6,0.6,0.6,-0.6,-0.6,right,R,,,,,0,1,1,1,0,74,74,32,,,,,,,,,,,,,,,,,,,,,,,,,,,,,,,,,,,,,,,,,,,,490.70042430004105,None,right,1,1.2376497999066487,491.20106019999366,492.6194304000819,491.20106019999366,492.1186218999792,491.20106019999366,492.1186218999792,491.20106019999366,492.1186218999792,491.20106019999366,492.1186218999792,491.20106019999366,492.1186218999792,492.1019191000378,492.60268120002,492.1019191000378,492.60268120002,492.1019191000378,492.60268120002,492.1019191000378,492.60268120002,492.1019191000378,492.60268120002,492.1019191000378,492.60268120002,492.1019191000378,492.60268120002,492.1019191000378,492.60268120002,491.20106019999366,None,492.5861511999974,493.9046412999742,0.9100000000000006,493.9380863000406,None,494.6897426000796,None,,,,,,,[1.31826667],2.880000000000002,0.7733333333333333,11017,001,2024_Jan_04_1500,MFTM_A_new1021,2021.2.3,60.36354550268046,
,,,,,,,,stim/Instruction_adaptive.png,conditions/adaptive.xlsx,test,-0.6,-0.6,-0.6,0.6,0.6,left,L,,,,,0,1,1,1,0,75,75,13,,,,,,,,,,,,,,,,,,,,,,,,,,,,,,,,,,,,,,,,,,,,495.19004910008516,None,left,1,1.22817869996652,495.6907199000707,497.09332760004327,495.6907199000707,496.59177469997667,495.6907199000707,496.59177469997667,495.6907199000707,496.59177469997667,495.6907199000707,496.59177469997667,495.6907199000707,496.59177469997667,496.5585664000828,497.0593086000299,496.5585664000828,497.0593086000299,496.5585664000828,497.0593086000299,496.5585664000828,497.0593086000299,496.5585664000828,497.0593086000299,496.5585664000828,497.0593086000299,496.5585664000828,497.0593086000299,496.5585664000828,497.0593086000299,495.6907199000707,None,497.0593086000299,498.39529570005834,0.8900000000000006,498.4112819000147,None,499.16254990000743,None,,,,,,,[1.32210526],2.900000000000002,0.7763157894736842,11017,001,2024_Jan_04_1500,MFTM_A_new1021,2021.2.3,60.36354550268046,
,,,,,,,,stim/Instruction_adaptive.png,conditions/adaptive.xlsx,test,-0.6,-0.6,-0.6,0.6,0.6,left,L,,,,,0,1,1,1,0,76,76,47,,,,,,,,,,,,,,,,,,,,,,,,,,,,,,,,,,,,,,,,,,,,499.6640097000636,None,right,0,1.4907733000582084,500.16417000000365,501.54983110004105,500.16417000000365,501.0498373999726,500.16417000000365,501.0498373999726,500.16417000000365,501.0498373999726,500.16417000000365,501.0498373999726,500.16417000000365,501.0498373999726,501.032561799977,501.5333895999938,501.032561799977,501.5333895999938,501.032561799977,501.5333895999938,501.032561799977,501.5333895999938,501.032561799977,501.5333895999938,501.032561799977,501.5333895999938,501.032561799977,501.5333895999938,501.032561799977,501.5333895999938,500.16417000000365,None,501.5333895999938,502.869085000013,0.8800000000000006,502.88397610001266,None,503.6364872000413,None,,,,,,,[1.32597403],2.830000000000002,0.7662337662337663,11017,001,2024_Jan_04_1500,MFTM_A_new1021,2021.2.3,60.36354550268046,
,,,,,,,,stim/Instruction_adaptive.png,conditions/adaptive.xlsx,test,0.6,0.6,0.6,-0.6,-0.6,right,R,,,,,0,1,1,1,0,77,77,66,,,,,,,,,,,,,,,,,,,,,,,,,,,,,,,,,,,,,,,,,,,,504.13716570008546,None,right,1,1.298021599999629,504.6371381999925,506.07350020005833,504.6371381999925,505.5718712999951,504.6371381999925,505.5718712999951,504.6371381999925,505.5718712999951,504.6371381999925,505.5718712999951,504.6371381999925,505.5718712999951,505.55529869999737,506.05599010002334,505.55529869999737,506.05599010002334,505.55529869999737,506.05599010002334,505.55529869999737,506.05599010002334,505.55529869999737,506.05599010002334,505.55529869999737,506.05599010002334,505.55529869999737,506.05599010002334,505.55529869999737,506.05599010002334,504.6371381999925,None,506.05599010002334,507.39209830004256,0.9300000000000006,507.40775310003664,None,508.1598230000818,None,,,,,,,[1.32910256],2.860000000000002,0.7692307692307693,11017,001,2024_Jan_04_1500,MFTM_A_new1021,2021.2.3,60.36354550268046,
,,,,,,,,stim/Instruction_adaptive.png,conditions/adaptive.xlsx,test,0.6,0.6,0.6,-0.6,-0.6,right,R,,,,,0,1,1,1,0,78,78,76,,,,,,,,,,,,,,,,,,,,,,,,,,,,,,,,,,,,,,,,,,,,508.66013179998845,None,right,1,1.4147206000052392,509.1607498000376,510.57990000001155,509.1607498000376,510.07887980004307,509.1607498000376,510.07887980004307,509.1607498000376,510.07887980004307,509.1607498000376,510.07887980004307,509.1607498000376,510.07887980004307,510.06200290005654,510.56280750001315,510.06200290005654,510.56280750001315,510.06200290005654,510.56280750001315,510.06200290005654,510.56280750001315,510.06200290005654,510.56280750001315,510.06200290005654,510.56280750001315,510.06200290005654,510.56280750001315,510.06200290005654,510.56280750001315,509.1607498000376,None,510.56280750001315,511.8987917000195,0.9100000000000006,511.91493430000264,None,512.6658211000031,None,,,,,,,[1.33240506],2.880000000000002,0.7721518987341772,11017,001,2024_Jan_04_1500,MFTM_A_new1021,2021.2.3,60.36354550268046,
,,,,,,,,stim/Instruction_adaptive.png,conditions/adaptive.xlsx,test,-0.6,-0.6,-0.6,0.6,0.6,left,L,,,,,0,1,1,1,0,79,79,73,,,,,,,,,,,,,,,,,,,,,,,,,,,,,,,,,,,,,,,,,,,,513.1667918000603,None,left,1,1.0836144000058994,513.6672264999943,515.0706044000108,513.6672264999943,514.5686104000779,513.6672264999943,514.5686104000779,513.6672264999943,514.5686104000779,513.6672264999943,514.5686104000779,513.6672264999943,514.5686104000779,514.5363830999704,515.0363322000485,514.5363830999704,515.0363322000485,514.5363830999704,515.0363322000485,514.5363830999704,515.0363322000485,514.5363830999704,515.0363322000485,514.5363830999704,515.0363322000485,514.5363830999704,515.0363322000485,514.5363830999704,515.0363322000485,513.6672264999943,None,515.0363322000485,516.3714868000243,0.8900000000000006,516.4043958000839,None,517.1556410000194,None,,,,,,,[1.335875],2.900000000000002,0.775,11017,001,2024_Jan_04_1500,MFTM_A_new1021,2021.2.3,60.36354550268046,
,,,,,,,,stim/Instruction_adaptive.png,conditions/adaptive.xlsx,test,0.6,0.6,0.6,-0.6,-0.6,right,R,,,,,0,1,1,1,0,80,80,70,,,,,,,,,,,,,,,,,,,,,,,,,,,,,,,,,,,,,,,,,,,,517.6571297000628,None,right,1,1.169269600068219,518.1576195000671,519.5428350999719,518.1576195000671,519.0419481999706,518.1576195000671,519.0419481999706,518.1576195000671,519.0419481999706,518.1576195000671,519.0419481999706,518.1576195000671,519.0419481999706,519.0251302000834,519.5257019000128,519.0251302000834,519.5257019000128,519.0251302000834,519.5257019000128,519.0251302000834,519.5257019000128,519.0251302000834,519.5257019000128,519.0251302000834,519.5257019000128,519.0251302000834,519.5257019000128,519.0251302000834,519.5257019000128,518.1576195000671,None,519.5257019000128,None,0.8800000000000006,520.8778473000275,None,521.6291285000043,None,,,,,,,[1.33938272],2.920000000000002,0.7777777777777778,11017,001,2024_Jan_04_1500,MFTM_A_new1021,2021.2.3,60.36354550268046,
,,,,,,,,stim/Instruction_adaptive.png,conditions/adaptive.xlsx,test,0.6,0.6,0.6,-0.6,-0.6,right,R,,,,,0,1,1,1,0,81,81,22,,,,,,,,,,,,,,,,,,,,,,,,,,,,,,,,,,,,,,,,,,,,522.1308572000125,None,left,0,1.224722700077109,522.6304893000051,523.9993296000175,522.6304893000051,523.5156084999908,522.6304893000051,523.5156084999908,522.6304893000051,523.5156084999908,522.6304893000051,523.5156084999908,522.6304893000051,523.5156084999908,523.4827369999839,523.9830935000209,523.4827369999839,523.9830935000209,523.4827369999839,523.9830935000209,523.4827369999839,523.9830935000209,523.4827369999839,523.9830935000209,523.4827369999839,523.9830935000209,523.4827369999839,523.9830935000209,523.4827369999839,523.9830935000209,522.6304893000051,None,523.9830935000209,525.3352151999716,0.8700000000000006,525.3512756000273,None,526.1030985000543,None,,,,,,,[1.34292683],2.860000000000002,0.7682926829268293,11017,001,2024_Jan_04_1500,MFTM_A_new1021,2021.2.3,60.36354550268046,
,,,,,,,,stim/Instruction_adaptive.png,conditions/adaptive.xlsx,test,0.6,0.6,0.6,-0.6,-0.6,right,R,,,,,0,1,1,1,0,82,82,64,,,,,,,,,,,,,,,,,,,,,,,,,,,,,,,,,,,,,,,,,,,,526.6031695000129,None,right,1,1.8068123999983072,527.1040539999958,528.5233637000201,527.1040539999958,528.0224886999931,527.1040539999958,528.0224886999931,527.1040539999958,528.0224886999931,527.1040539999958,528.0224886999931,527.1040539999958,528.0224886999931,527.9884767000331,528.4900808000239,527.9884767000331,528.4900808000239,527.9884767000331,528.4900808000239,527.9884767000331,528.4900808000239,527.9884767000331,528.4900808000239,527.9884767000331,528.4900808000239,527.9884767000331,528.4900808000239,527.9884767000331,528.4900808000239,527.1040539999958,None,528.4900808000239,529.8412090999773,0.9100000000000006,529.8745776000433,None,530.6258278000169,None,,,,,,,[1.34590361],2.880000000000002,0.7710843373493976,11017,001,2024_Jan_04_1500,MFTM_A_new1021,2021.2.3,60.36354550268046,
,,,,,,,,stim/Instruction_adaptive.png,conditions/adaptive.xlsx,test,-0.6,-0.6,-0.6,0.6,0.6,left,L,,,,,0,1,1,1,0,83,83,11,,,,,,,,,,,,,,,,,,,,,,,,,,,,,,,,,,,,,,,,,,,,531.1264765000669,None,right,0,1.403771199984476,531.6272004999919,533.0300647000549,531.6272004999919,532.5291178000625,531.6272004999919,532.5291178000625,531.6272004999919,532.5291178000625,531.6272004999919,532.5291178000625,531.6272004999919,532.5291178000625,532.4958863999927,532.9966860000277,532.4958863999927,532.9966860000277,532.4958863999927,532.9966860000277,532.4958863999927,532.9966860000277,532.4958863999927,532.9966860000277,532.4958863999927,532.9966860000277,532.4958863999927,532.9966860000277,532.4958863999927,532.9966860000277,531.6272004999919,None,532.9966860000277,534.3484906000085,0.8900000000000006,534.3810708000092,None,535.1323647000827,None,,,,,,,[1.34904762],2.820000000000002,0.7619047619047619,11017,001,2024_Jan_04_1500,MFTM_A_new1021,2021.2.3,60.36354550268046,
,,,,,,,,stim/Instruction_adaptive.png,conditions/adaptive.xlsx,test,-0.6,-0.6,-0.6,0.6,0.6,left,L,,,,,0,1,1,1,0,84,84,83,,,,,,,,,,,,,,,,,,,,,,,,,,,,,,,,,,,,,,,,,,,,535.6337436999893,None,left,1,1.4807083000196144,536.1344715000596,537.5694458000362,536.1344715000596,537.0687532000011,536.1344715000596,537.0687532000011,536.1344715000596,537.0687532000011,536.1344715000596,537.0687532000011,536.1344715000596,537.0687532000011,537.0519311000826,537.553242300055,537.0519311000826,537.553242300055,537.0519311000826,537.553242300055,537.0519311000826,537.553242300055,537.0519311000826,537.553242300055,537.0519311000826,537.553242300055,537.0519311000826,537.553242300055,537.0519311000826,537.553242300055,536.1344715000596,None,537.553242300055,538.9048085000832,0.9300000000000006,538.921385900001,None,539.6725382000441,None,,,,,,,[1.35164706],2.840000000000002,0.7647058823529411,11017,001,2024_Jan_04_1500,MFTM_A_new1021,2021.2.3,60.36354550268046,
,,,,,,,,stim/Instruction_adaptive.png,conditions/adaptive.xlsx,test,-0.6,-0.6,-0.6,0.6,0.6,left,L,,,,,0,1,1,1,0,85,85,35,,,,,,,,,,,,,,,,,,,,,,,,,,,,,,,,,,,,,,,,,,,,540.1732392000267,None,right,0,1.428997699986212,540.6738741999725,542.1093402000843,540.6738741999725,541.6092145000584,540.6738741999725,541.6092145000584,540.6738741999725,541.6092145000584,540.6738741999725,541.6092145000584,540.6738741999725,541.6092145000584,541.5752150000772,542.0760449999943,541.5752150000772,542.0760449999943,541.5752150000772,542.0760449999943,541.5752150000772,542.0760449999943,541.5752150000772,542.0760449999943,541.5752150000772,542.0760449999943,541.5752150000772,542.0760449999943,541.5752150000772,542.0760449999943,540.6738741999725,None,542.0760449999943,543.4454886000603,0.9200000000000006,543.4609091000166,None,544.2126776999794,None,,,,,,,[1.35430233],2.780000000000002,0.7558139534883721,11017,001,2024_Jan_04_1500,MFTM_A_new1021,2021.2.3,60.36354550268046,
,,,,,,,,stim/Instruction_adaptive.png,conditions/adaptive.xlsx,test,-0.6,-0.6,-0.6,0.6,0.6,left,L,,,,,0,1,1,1,0,86,86,33,,,,,,,,,,,,,,,,,,,,,,,,,,,,,,,,,,,,,,,,,,,,544.7131287000375,None,left,1,1.2811210999498144,545.2138569999952,546.6827177000232,545.2138569999952,546.1821204000153,545.2138569999952,546.1821204000153,545.2138569999952,546.1821204000153,545.2138569999952,546.1821204000153,545.2138569999952,546.1821204000153,546.1657091000816,546.6663705999963,546.1657091000816,546.6663705999963,546.1657091000816,546.6663705999963,546.1657091000816,546.6663705999963,546.1657091000816,546.6663705999963,546.1657091000816,546.6663705999963,546.1657091000816,546.6663705999963,546.1657091000816,546.6663705999963,545.2138569999952,None,546.6497091000201,548.0183697000612,0.9600000000000006,548.0348314000294,None,548.7860829000128,None,,,,,,,[1.35643678],2.800000000000002,0.7586206896551724,11017,001,2024_Jan_04_1500,MFTM_A_new1021,2021.2.3,60.36354550268046,
,,,,,,,,stim/Instruction_adaptive.png,conditions/adaptive.xlsx,test,0.6,0.6,0.6,-0.6,-0.6,right,R,,,,,0,1,1,1,0,87,87,46,,,,,,,,,,,,,,,,,,,,,,,,,,,,,,,,,,,,,,,,,,,,549.2868107000832,None,right,1,1.2997524000238627,549.7872661000583,551.2395471000345,549.7872661000583,550.7401741000358,549.7872661000583,550.7401741000358,549.7872661000583,550.7401741000358,549.7872661000583,550.7401741000358,549.7872661000583,550.7401741000358,550.7062634000322,551.2066443000222,550.7062634000322,551.2066443000222,550.7062634000322,551.2066443000222,550.7062634000322,551.2066443000222,550.7062634000322,551.2066443000222,550.7062634000322,551.2066443000222,550.7062634000322,551.2066443000222,550.7062634000322,551.2066443000222,549.7872661000583,None,551.2066443000222,552.5748417000286,0.9400000000000006,552.5916141000343,None,553.343248500023,None,,,,,,,[1.35875],2.820000000000002,0.7613636363636364,11017,001,2024_Jan_04_1500,MFTM_A_new1021,2021.2.3,60.36354550268046,
,,,,,,,,stim/Instruction_adaptive.png,conditions/adaptive.xlsx,test,-0.6,-0.6,-0.6,0.6,0.6,left,L,,,,,0,1,1,1,0,88,88,57,,,,,,,,,,,,,,,,,,,,,,,,,,,,,,,,,,,,,,,,,,,,553.8432846000651,None,left,1,1.5349681000225246,554.3446074000094,555.7796168000204,554.3446074000094,555.2793386999983,554.3446074000094,555.2793386999983,554.3446074000094,555.2793386999983,554.3446074000094,555.2793386999983,554.3446074000094,555.2793386999983,555.2623341999715,555.762919700006,555.2623341999715,555.762919700006,555.2623341999715,555.762919700006,555.2623341999715,555.762919700006,555.2623341999715,555.762919700006,555.2623341999715,555.762919700006,555.2623341999715,555.762919700006,555.2623341999715,555.762919700006,554.3446074000094,None,555.762919700006,557.1317090999801,0.9300000000000006,557.1483930000104,None,557.90053730004,None,,,,,,,[1.3611236],2.840000000000002,0.7640449438202247,11017,001,2024_Jan_04_1500,MFTM_A_new1021,2021.2.3,60.36354550268046,
,,,,,,,,stim/Instruction_adaptive.png,conditions/adaptive.xlsx,test,0.6,0.6,0.6,-0.6,-0.6,right,R,,,,,0,1,1,1,0,89,89,8,,,,,,,,,,,,,,,,,,,,,,,,,,,,,,,,,,,,,,,,,,,,558.4011910000117,None,right,1,1.3609814000083134,558.9019842999987,560.336501999991,558.9019842999987,559.8365795999998,558.9019842999987,559.8365795999998,558.9019842999987,559.8365795999998,558.9019842999987,559.8365795999998,558.9019842999987,559.8365795999998,559.8024125000229,560.3031624000287,559.8024125000229,560.3031624000287,559.8024125000229,560.3031624000287,559.8024125000229,560.3031624000287,559.8024125000229,560.3031624000287,559.8024125000229,560.3031624000287,559.8024125000229,560.3031624000287,559.8024125000229,560.3031624000287,558.9019842999987,None,560.3031624000287,561.6723575000651,0.9200000000000006,561.6884441999719,None,562.4402480000863,None,,,,,,,[1.36355556],2.860000000000002,0.7666666666666667,11017,001,2024_Jan_04_1500,MFTM_A_new1021,2021.2.3,60.36354550268046,
,,,,,,,,stim/Instruction_adaptive.png,conditions/adaptive.xlsx,test,0.6,0.6,0.6,-0.6,-0.6,right,R,,,,,0,1,1,1,0,90,90,90,,,,,,,,,,,,,,,,,,,,,,,,,,,,,,,,,,,,,,,,,,,,562.9403733999934,None,right,1,1.2859038000460714,563.4412006000057,564.8598916999763,563.4412006000057,564.35922079999,563.4412006000057,564.35922079999,563.4412006000057,564.35922079999,563.4412006000057,564.35922079999,563.4412006000057,564.35922079999,564.3423358000582,564.8441368000349,564.3423358000582,564.8441368000349,564.3423358000582,564.8441368000349,564.3423358000582,564.8441368000349,564.3423358000582,564.8441368000349,564.3423358000582,564.8441368000349,564.3423358000582,564.8441368000349,564.3423358000582,564.8441368000349,563.4412006000057,None,564.826330400072,566.195081599988,0.9100000000000006,566.2294536000118,None,566.979534800048,None,,,,,,,[1.36604396],2.880000000000002,0.7692307692307693,11017,001,2024_Jan_04_1500,MFTM_A_new1021,2021.2.3,60.36354550268046,
,,,,,,,,stim/Instruction_adaptive.png,conditions/adaptive.xlsx,test,-0.6,-0.6,-0.6,0.6,0.6,left,L,,,,,0,1,1,1,0,91,91,91,,,,,,,,,,,,,,,,,,,,,,,,,,,,,,,,,,,,,,,,,,,,567.4803030000767,None,left,1,1.2100825000088662,567.9810248999856,569.3833895000862,567.9810248999856,568.88229400001,567.9810248999856,568.88229400001,567.9810248999856,568.88229400001,567.9810248999856,568.88229400001,567.9810248999856,568.88229400001,568.8489192000125,569.3502266000723,568.8489192000125,569.3502266000723,568.8489192000125,569.3502266000723,568.8489192000125,569.3502266000723,568.8489192000125,569.3502266000723,568.8489192000125,569.3502266000723,568.8489192000125,569.3502266000723,568.8489192000125,569.3502266000723,567.9810248999856,None,569.3502266000723,570.7189077000367,0.8900000000000006,570.7519749000203,None,571.5030462000286,None,,,,,,,[1.36869565],2.900000000000002,0.7717391304347826,11017,001,2024_Jan_04_1500,MFTM_A_new1021,2021.2.3,60.36354550268046,
,,,,,,,,stim/Instruction_adaptive.png,conditions/adaptive.xlsx,test,0.6,0.6,0.6,-0.6,-0.6,right,R,,,,,0,1,1,1,0,92,92,16,,,,,,,,,,,,,,,,,,,,,,,,,,,,,,,,,,,,,,,,,,,,572.0036559000146,None,right,1,1.4463261000346392,572.5047136000358,573.8912549000233,572.5047136000358,573.3891995999729,572.5047136000358,573.3891995999729,572.5047136000358,573.3891995999729,572.5047136000358,573.3891995999729,572.5047136000358,573.3891995999729,573.3724126999732,573.8730426999973,573.3724126999732,573.8730426999973,573.3724126999732,573.8730426999973,573.3724126999732,573.8730426999973,573.3724126999732,573.8730426999973,573.3724126999732,573.8730426999973,573.3724126999732,573.8730426999973,573.3724126999732,573.8730426999973,572.5047136000358,None,573.8730426999973,None,0.8800000000000006,575.2585989000509,None,576.0099304000614,None,,,,,,,[1.37139785],2.920000000000002,0.7741935483870968,11017,001,2024_Jan_04_1500,MFTM_A_new1021,2021.2.3,60.36354550268046,
,,,,,,,,stim/Instruction_adaptive.png,conditions/adaptive.xlsx,test,0.6,0.6,0.6,-0.6,-0.6,right,R,,,,,0,1,1,1,0,93,93,52,,,,,,,,,,,,,,,,,,,,,,,,,,,,,,,,,,,,,,,,,,,,576.5110312000616,None,left,0,1.300296499975957,577.0110296000494,578.3802488000365,577.0110296000494,577.8959044000367,577.0110296000494,577.8959044000367,577.0110296000494,577.8959044000367,577.0110296000494,577.8959044000367,577.0110296000494,577.8959044000367,577.8623472000472,578.3639784000115,577.8623472000472,578.3639784000115,577.8623472000472,578.3639784000115,577.8623472000472,578.3639784000115,577.8623472000472,578.3639784000115,577.8623472000472,578.3639784000115,577.8623472000472,578.3639784000115,577.8623472000472,578.3639784000115,577.0110296000494,None,578.3639784000115,579.7485492000123,0.8700000000000006,579.7651660999982,None,580.5173338999739,None,,,,,,,[1.37414894],2.860000000000002,0.7659574468085106,11017,001,2024_Jan_04_1500,MFTM_A_new1021,2021.2.3,60.36354550268046,
