arrwidth1,arrwidth2,arrwidth3,arrwidth4,arrwidth5,keyb,type,orientation,instruction_image,block_filename,block_type,arrow11,arrow22,arrow33,arrow44,arrow55,keyb_3,orientation3,trials.thisRepN,trials.thisTrialN,trials.thisN,trials.thisIndex,trials_3.thisRepN,trials_3.thisTrialN,trials_3.thisN,trials_3.thisIndex,trials_2.thisRepN,trials_2.thisTrialN,trials_2.thisN,trials_2.thisIndex,welcome.started,welcome.stopped,key_resp.keys,key_resp.rt,key_resp.started,key_resp.stopped,instruction_example.started,instruction_example.stopped,key_resp_3.keys,key_resp_3.rt,key_resp_3.started,key_resp_3.stopped,instruction_task.started,instruction_task.stopped,key_resp_2.keys,key_resp_2.rt,key_resp_2.started,key_resp_2.stopped,text_2.started,text_2.stopped,A1.started,A1.stopped,A2.started,A2.stopped,A3.started,A3.stopped,A4.started,A4.stopped,A5.started,A5.stopped,key_resp_4.keys,key_resp_4.corr,key_resp_4.rt,key_resp_4.started,key_resp_4.stopped,fb.started,fb.stopped,instruction_block.started,instruction_block.stopped,key_resp_8.keys,key_resp_8.rt,key_resp_8.started,key_resp_8.stopped,text_8.started,text_8.stopped,key_resp_9.keys,key_resp_9.corr,key_resp_9.rt,text_5.started,text_5.stopped,A11_3.started,A11_3.stopped,A22_2.started,A22_2.stopped,A33_2.started,A33_2.stopped,A44_2.started,A44_2.stopped,A55_2.started,A55_2.stopped,M1_3.started,M1_3.stopped,M2_2.started,M2_2.stopped,M3_2.started,M3_2.stopped,M4_2.started,M4_2.stopped,M5_2.started,M5_2.stopped,M6_2.started,M6_2.stopped,M7_2.started,M7_2.stopped,M8_2.started,M8_2.stopped,key_resp_9.started,key_resp_9.stopped,fixation.started,fixation.stopped,ET,fb_3.started,fb_3.stopped,text_9.started,text_9.stopped,fb_4.started,fb_4.stopped,text_7.started,text_7.stopped,endtext.started,endtext.stopped,fixation_ITI,CCC,Acc,participant,session,date,expName,psychopyVersion,frameRate,
,,,,,,,,,,,,,,,,,,,,,,,,,,,,,,11.240268100053072,None,left,1.4075948998797685,11.240268100053072,None,,,,,,,,,,,,,,,,,,,,,,,,,,,,,,,,,,,,,,,,,,,,,,,,,,,,,,,,,,,,,,,,,,,,,,,,,,,,,,,,,,,,,,,,,11027,001,2024_Jan_10_1052,MFTM_A_new1021,2021.2.3,59.820168563097674,
,,,,,,,,,,,,,,,,,,,,,,,,,,,,,,,,,,,,12.675770499976352,None,left,9.603975499980152,12.675770499976352,None,,,,,,,,,,,,,,,,,,,,,,,,,,,,,,,,,,,,,,,,,,,,,,,,,,,,,,,,,,,,,,,,,,,,,,,,,,,,,,,,,,,11027,001,2024_Jan_10_1052,MFTM_A_new1021,2021.2.3,59.820168563097674,
,,,,,,,,,,,,,,,,,,,,,,,,,,,,,,,,,,,,,,,,,,22.30660849995911,None,left,9.05299949995242,22.30660849995911,None,,,,,,,,,,,,,,,,,,,,,,,,,,,,,,,,,,,,,,,,,,,,,,,,,,,,,,,,,,,,,,,,,,,,,,,,,,,,,11027,001,2024_Jan_10_1052,MFTM_A_new1021,2021.2.3,59.820168563097674,
-0.6,-0.6,-0.6,0.6,0.6,left,3:2,L,,,,,,,,,,,0,0,0,1,,,,,,,,,,,,,,,,,,,,,,,,,,,31.40528169996105,None,31.40528169996105,None,31.40528169996105,None,31.40528169996105,None,31.40528169996105,None,31.40528169996105,None,left,1,2.7300250998232514,31.40528169996105,None,34.17517010006122,None,,,,,,,,,,,,,,,,,,,,,,,,,,,,,,,,,,,,,,,,,,,,,,,,,,,,,,,,,,11027,001,2024_Jan_10_1052,MFTM_A_new1021,2021.2.3,59.820168563097674,
0.6,0.6,0.6,-0.6,-0.6,right,3:2,R,,,,,,,,,,,0,1,1,0,,,,,,,,,,,,,,,,,,,,,,,,,,,34.92530269990675,None,34.92530269990675,None,34.92530269990675,None,34.92530269990675,None,34.92530269990675,None,34.92530269990675,None,right,1,1.4345788999926299,34.92530269990675,None,36.37814370007254,None,,,,,,,,,,,,,,,,,,,,,,,,,,,,,,,,,,,,,,,,,,,,,,,,,,,,,,,,,,11027,001,2024_Jan_10_1052,MFTM_A_new1021,2021.2.3,59.820168563097674,
0.6,0.6,0.6,-0.6,-0.6,right,3:2,R,,,,,,,,,,,1,0,2,0,,,,,,,,,,,,,,,,,,,,,,,,,,,37.12872030003928,None,37.12872030003928,None,37.12872030003928,None,37.12872030003928,None,37.12872030003928,None,37.12872030003928,None,right,1,1.0705981999635696,37.12872030003928,None,38.23036630009301,None,,,,,,,,,,,,,,,,,,,,,,,,,,,,,,,,,,,,,,,,,,,,,,,,,,,,,,,,,,11027,001,2024_Jan_10_1052,MFTM_A_new1021,2021.2.3,59.820168563097674,
-0.6,-0.6,-0.6,0.6,0.6,left,3:2,L,,,,,,,,,,,1,1,3,1,,,,,,,,,,,,,,,,,,,,,,,,,,,38.982226399937645,None,38.982226399937645,None,38.982226399937645,None,38.982226399937645,None,38.982226399937645,None,38.982226399937645,None,right,0,0.06556519982405007,38.982226399937645,None,39.0647420999594,None,,,,,,,,,,,,,,,,,,,,,,,,,,,,,,,,,,,,,,,,,,,,,,,,,,,,,,,,,,11027,001,2024_Jan_10_1052,MFTM_A_new1021,2021.2.3,59.820168563097674,
,,,,,,,,stim/Instruction_mask.png,conditions/adaptive.xlsx,practice,0.6,0.6,0.6,-0.6,-0.6,right,R,,,,,0,0,0,0,0,0,0,62,,,,,,,,,,,,,,,,,,,,,,,,,,,,,,,,,,,,,,40.04877100000158,None,right,25.64655419997871,40.04877100000158,None,65.80480569996871,None,right,1,2.601736399810761,66.23847179999575,None,66.23847179999575,69.24291469994932,66.23847179999575,69.24291469994932,66.23847179999575,69.24291469994932,66.23847179999575,69.24291469994932,66.23847179999575,69.24291469994932,69.22625810001045,69.72758259996772,69.22625810001045,69.72758259996772,69.22625810001045,69.72758259996772,69.22625810001045,69.72758259996772,69.22625810001045,69.72758259996772,69.22625810001045,69.72758259996772,69.22625810001045,69.72758259996772,69.22625810001045,69.72758259996772,66.23847179999575,None,69.72758259996772,69.72758259996772,3,69.74404389993288,None,70.49597600009292,None,,,,,,,,,,11027,001,2024_Jan_10_1052,MFTM_A_new1021,2021.2.3,59.820168563097674,
,,,,,,,,stim/Instruction_mask.png,conditions/adaptive.xlsx,practice,0.6,0.6,0.6,-0.6,-0.6,right,R,,,,,0,0,0,0,0,1,1,42,,,,,,,,,,,,,,,,,,,,,,,,,,,,,,,,,,,,,,,,,,,,70.99560980009846,None,right,1,1.7836182001046836,71.49624540004879,73.50014190003276,71.49624540004879,72.99910859996453,71.49624540004879,72.99910859996453,71.49624540004879,72.99910859996453,71.49624540004879,72.99910859996453,71.49624540004879,72.99910859996453,72.98367159999907,73.50014190003276,72.98367159999907,73.50014190003276,72.98367159999907,73.50014190003276,72.98367159999907,73.50014190003276,72.98367159999907,73.50014190003276,72.98367159999907,73.50014190003276,72.98367159999907,73.50014190003276,72.98367159999907,73.50014190003276,71.49624540004879,None,73.4827757999301,74.9854971000459,1.5,75.00139029999264,None,75.75278549990617,None,,,,,,,,,,11027,001,2024_Jan_10_1052,MFTM_A_new1021,2021.2.3,59.820168563097674,
,,,,,,,,stim/Instruction_mask.png,conditions/adaptive.xlsx,practice,-0.6,-0.6,-0.6,0.6,0.6,left,L,,,,,0,0,0,0,0,2,2,3,,,,,,,,,,,,,,,,,,,,,,,,,,,,,,,,,,,,,,,,,,,,76.25337960012257,None,left,1,1.6691790998447686,76.75411340012215,78.05678199999966,76.75411340012215,77.55531660001725,76.75411340012215,77.55531660001725,76.75411340012215,77.55531660001725,76.75411340012215,77.55531660001725,76.75411340012215,77.55531660001725,77.53839070000686,78.03940050001256,77.53839070000686,78.03940050001256,77.53839070000686,78.03940050001256,77.53839070000686,78.03940050001256,77.53839070000686,78.03940050001256,77.53839070000686,78.03940050001256,77.53839070000686,78.03940050001256,77.53839070000686,78.03940050001256,76.75411340012215,None,78.03940050001256,80.2425871999003,0.8,80.25920980004594,None,81.01023010001518,None,,,,,,,,,,11027,001,2024_Jan_10_1052,MFTM_A_new1021,2021.2.3,59.820168563097674,
,,,,,,,,stim/Instruction_mask.png,conditions/adaptive.xlsx,practice,-0.6,-0.6,-0.6,0.6,0.6,left,L,,,,,0,0,0,0,0,3,3,9,,,,,,,,,,,,,,,,,,,,,,,,,,,,,,,,,,,,,,,,,,,,81.51159069989808,None,right,0,1.2033608998171985,82.01192059996538,82.76354050007649,82.01192059996538,82.26204550010152,82.01192059996538,82.26204550010152,82.01192059996538,82.26204550010152,82.01192059996538,82.26204550010152,82.01192059996538,82.26204550010152,82.24554449995048,82.74660780001432,82.24554449995048,82.74660780001432,82.24554449995048,82.74660780001432,82.24554449995048,82.74660780001432,82.24554449995048,82.74660780001432,82.24554449995048,82.74660780001432,82.24554449995048,82.74660780001432,82.24554449995048,82.74660780001432,82.01192059996538,None,82.74660780001432,85.50205049989745,3,85.51739490008913,None,86.26832600007765,None,,,,,,,,,,11027,001,2024_Jan_10_1052,MFTM_A_new1021,2021.2.3,59.820168563097674,
,,,,,,,,stim/Instruction_mask.png,conditions/adaptive.xlsx,practice,,,,,,,,,,,,0,0,0,0,,,,,,,,,,,,,,,,,,,,,,,,,,,,,,,,,,,,,,,,,,,,,,,,,,,,,,,,,,,,,,,,,,,,,,,,,,,,,,,,,,,,,,,,,,86.78804460004903,87.78742359997705,87.75379640003666,87.75379640003666,87.75379640003666,None,,,,11027,001,2024_Jan_10_1052,MFTM_A_new1021,2021.2.3,59.820168563097674,
,,,,,,,,stim/Instruction_adaptive.png,conditions/adaptive.xlsx,test,0.6,0.6,0.6,-0.6,-0.6,right,R,,,,,0,1,1,1,0,0,0,50,,,,,,,,,,,,,,,,,,,,,,,,,,,,,,,,,,,,,,90.90800720010884,None,right,11.859461800195277,90.90800720010884,None,102.80908409995027,None,right,1,2.1292024001013488,103.31009990000166,None,103.31009990000166,106.31522090011276,103.31009990000166,106.31522090011276,103.31009990000166,106.31522090011276,103.31009990000166,106.31522090011276,103.31009990000166,106.31522090011276,106.29805470001884,106.79946439992636,106.29805470001884,106.79946439992636,106.29805470001884,106.79946439992636,106.29805470001884,106.79946439992636,106.29805470001884,106.79946439992636,106.29805470001884,106.79946439992636,106.29805470001884,106.79946439992636,106.29805470001884,106.79946439992636,103.31009990000166,None,106.79946439992636,106.79946439992636,3,106.81520129996352,None,107.56642829999328,None,,,,,,,0,6.000000000000005,1.0,11027,001,2024_Jan_10_1052,MFTM_A_new1021,2021.2.3,59.820168563097674,
,,,,,,,,stim/Instruction_adaptive.png,conditions/adaptive.xlsx,test,-0.6,-0.6,-0.6,0.6,0.6,left,L,,,,,0,1,1,1,0,1,1,27,,,,,,,,,,,,,,,,,,,,,,,,,,,,,,,,,,,,,,,,,,,,108.0680986000225,None,left,1,1.4463150000665337,108.56912379991263,109.31901609990746,108.56912379991263,108.8187005999498,108.56912379991263,108.8187005999498,108.56912379991263,108.8187005999498,108.56912379991263,108.8187005999498,108.56912379991263,108.8187005999498,108.80193870002404,109.3023190998938,108.80193870002404,109.3023190998938,108.80193870002404,109.3023190998938,108.80193870002404,109.3023190998938,108.80193870002404,109.3023190998938,108.80193870002404,109.3023190998938,108.80193870002404,109.3023190998938,108.80193870002404,109.3023190998938,108.56912379991263,None,109.3023190998938,110.18665440008044,0.25,110.2035854998976,None,110.95493729994632,None,,,,,,,[0.875],6.000000000000005,1.0,11027,001,2024_Jan_10_1052,MFTM_A_new1021,2021.2.3,59.820168563097674,
,,,,,,,,stim/Instruction_adaptive.png,conditions/adaptive.xlsx,test,0.6,0.6,0.6,-0.6,-0.6,right,R,,,,,0,1,1,1,0,2,2,22,,,,,,,,,,,,,,,,,,,,,,,,,,,,,,,,,,,,,,,,,,,,111.45627660001628,None,right,1,1.2019373001530766,111.95741240005009,112.7074064000044,111.95741240005009,112.20722640003078,111.95741240005009,112.20722640003078,111.95741240005009,112.20722640003078,111.95741240005009,112.20722640003078,111.95741240005009,112.20722640003078,112.19062240002677,112.69120209990069,112.19062240002677,112.69120209990069,112.19062240002677,112.69120209990069,112.19062240002677,112.69120209990069,112.19062240002677,112.69120209990069,112.19062240002677,112.69120209990069,112.19062240002677,112.69120209990069,112.19062240002677,112.69120209990069,111.95741240005009,None,112.69120209990069,114.02672920003533,0.25,114.04354840004817,None,114.7949765000958,None,,,,,,,[1.33333333],6.000000000000005,1.0,11027,001,2024_Jan_10_1052,MFTM_A_new1021,2021.2.3,59.820168563097674,
,,,,,,,,stim/Instruction_adaptive.png,conditions/adaptive.xlsx,test,0.6,0.6,0.6,-0.6,-0.6,right,R,,,,,0,1,1,1,0,3,3,0,,,,,,,,,,,,,,,,,,,,,,,,,,,,,,,,,,,,,,,,,,,,115.29448339994997,None,right,1,1.516849100124091,115.7955066000577,116.54662910010666,115.7955066000577,116.04555950011127,115.7955066000577,116.04555950011127,115.7955066000577,116.04555950011127,115.7955066000577,116.04555950011127,115.7955066000577,116.04555950011127,116.02939060004428,116.53140139998868,116.02939060004428,116.53140139998868,116.02939060004428,116.53140139998868,116.02939060004428,116.53140139998868,116.02939060004428,116.53140139998868,116.02939060004428,116.53140139998868,116.02939060004428,116.53140139998868,116.02939060004428,116.53140139998868,115.7955066000577,None,116.53140139998868,118.09987780009396,0.25,118.11537620006129,None,118.86661539995112,None,,,,,,,[1.5625],6.000000000000005,1.0,11027,001,2024_Jan_10_1052,MFTM_A_new1021,2021.2.3,59.820168563097674,
,,,,,,,,stim/Instruction_adaptive.png,conditions/adaptive.xlsx,test,0.6,0.6,0.6,-0.6,-0.6,right,R,,,,,0,1,1,1,0,4,4,66,,,,,,,,,,,,,,,,,,,,,,,,,,,,,,,,,,,,,,,,,,,,119.36824900005013,None,left,0,1.0518890998791903,119.86781729990616,120.61891019996256,119.86781729990616,120.11906150006689,119.86781729990616,120.11906150006689,119.86781729990616,120.11906150006689,119.86781729990616,120.11906150006689,119.86781729990616,120.11906150006689,120.10215799999423,120.60269040009007,120.10215799999423,120.60269040009007,120.10215799999423,120.60269040009007,120.10215799999423,120.60269040009007,120.10215799999423,120.60269040009007,120.10215799999423,120.60269040009007,120.10215799999423,120.60269040009007,120.10215799999423,120.60269040009007,119.86781729990616,None,120.60269040009007,122.30510629992932,0.25,122.32159710000269,None,123.07261410006322,None,,,,,,,[1.7],4.720000000000004,0.8,11027,001,2024_Jan_10_1052,MFTM_A_new1021,2021.2.3,59.820168563097674,
,,,,,,,,stim/Instruction_adaptive.png,conditions/adaptive.xlsx,test,0.6,0.6,0.6,-0.6,-0.6,right,R,,,,,0,1,1,1,0,5,5,18,,,,,,,,,,,,,,,,,,,,,,,,,,,,,,,,,,,,,,,,,,,,123.57435130001977,None,right,1,1.6925085000693798,124.07501609995961,124.82564130006358,124.07501609995961,124.32564710010774,124.07501609995961,124.32564710010774,124.07501609995961,124.32564710010774,124.07501609995961,124.32564710010774,124.07501609995961,124.32564710010774,124.30865680007264,124.80945700011216,124.30865680007264,124.80945700011216,124.30865680007264,124.80945700011216,124.30865680007264,124.80945700011216,124.30865680007264,124.80945700011216,124.30865680007264,124.80945700011216,124.30865680007264,124.80945700011216,124.30865680007264,124.80945700011216,124.07501609995961,None,124.80945700011216,126.61168659990653,0.25,126.62787059997208,None,127.37938620010391,None,,,,,,,[1.79166667],5.1200000000000045,0.8333333333333334,11027,001,2024_Jan_10_1052,MFTM_A_new1021,2021.2.3,59.820168563097674,
,,,,,,,,stim/Instruction_adaptive.png,conditions/adaptive.xlsx,test,-0.6,-0.6,-0.6,0.6,0.6,left,L,,,,,0,1,1,1,0,6,6,95,,,,,,,,,,,,,,,,,,,,,,,,,,,,,,,,,,,,,,,,,,,,127.8807457999792,None,left,1,0.9546654000878334,128.38064430002123,129.13199599995278,128.38064430002123,128.63099609990604,128.38064430002123,128.63099609990604,128.38064430002123,128.63099609990604,128.38064430002123,128.63099609990604,128.38064430002123,128.63099609990604,128.61420530010946,129.11495939991437,128.61420530010946,129.11495939991437,128.61420530010946,129.11495939991437,128.61420530010946,129.11495939991437,128.61420530010946,129.11495939991437,128.61420530010946,129.11495939991437,128.61420530010946,129.11495939991437,128.61420530010946,129.11495939991437,128.38064430002123,None,129.11495939991437,130.98513739998452,0.25,131.00163389998488,None,131.75246350001544,None,,,,,,,[1.85714286],5.380000000000004,0.8571428571428571,11027,001,2024_Jan_10_1052,MFTM_A_new1021,2021.2.3,59.820168563097674,
,,,,,,,,stim/Instruction_adaptive.png,conditions/adaptive.xlsx,test,-0.6,-0.6,-0.6,0.6,0.6,left,L,,,,,0,1,1,1,0,7,7,63,,,,,,,,,,,,,,,,,,,,,,,,,,,,,,,,,,,,,,,,,,,,132.25335339992307,None,right,0,1.2618950000032783,132.75366910011508,133.50588919990696,132.75366910011508,133.00408069998957,132.75366910011508,133.00408069998957,132.75366910011508,133.00408069998957,132.75366910011508,133.00408069998957,132.75366910011508,133.00408069998957,132.98769180011004,133.48851740011014,132.98769180011004,133.48851740011014,132.98769180011004,133.48851740011014,132.98769180011004,133.48851740011014,132.98769180011004,133.48851740011014,132.98769180011004,133.48851740011014,132.98769180011004,133.48851740011014,132.98769180011004,133.48851740011014,132.75366910011508,None,133.48851740011014,135.4082351999823,0.25,135.42437359993346,None,136.1754326999653,None,,,,,,,[1.90625],4.4200000000000035,0.75,11027,001,2024_Jan_10_1052,MFTM_A_new1021,2021.2.3,59.820168563097674,
,,,,,,,,stim/Instruction_adaptive.png,conditions/adaptive.xlsx,test,-0.6,-0.6,-0.6,0.6,0.6,left,L,,,,,0,1,1,1,0,8,8,57,,,,,,,,,,,,,,,,,,,,,,,,,,,,,,,,,,,,,,,,,,,,136.67673159996048,None,left,1,1.1100979000329971,137.17739790002815,137.9953960001003,137.17739790002815,137.49407269991934,137.17739790002815,137.49407269991934,137.17739790002815,137.49407269991934,137.17739790002815,137.49407269991934,137.17739790002815,137.49407269991934,137.47740070009604,137.97853419999592,137.47740070009604,137.97853419999592,137.47740070009604,137.97853419999592,137.47740070009604,137.97853419999592,137.47740070009604,137.97853419999592,137.47740070009604,137.97853419999592,137.47740070009604,137.97853419999592,137.47740070009604,137.97853419999592,137.17739790002815,None,137.97853419999592,None,0.31000000000000005,139.9310868999455,None,140.6822746999096,None,,,,,,,[1.93777778],4.720000000000004,0.7777777777777778,11027,001,2024_Jan_10_1052,MFTM_A_new1021,2021.2.3,59.820168563097674,
,,,,,,,,stim/Instruction_adaptive.png,conditions/adaptive.xlsx,test,-0.6,-0.6,-0.6,0.6,0.6,left,L,,,,,0,1,1,1,0,9,9,87,,,,,,,,,,,,,,,,,,,,,,,,,,,,,,,,,,,,,,,,,,,,141.18268520012498,None,left,1,1.4439534998964518,141.68352989992127,142.4352390000131,141.68352989992127,141.93442780012265,141.68352989992127,141.93442780012265,141.68352989992127,141.93442780012265,141.68352989992127,141.93442780012265,141.68352989992127,141.93442780012265,141.91770619992167,142.41868150001392,141.91770619992167,142.41868150001392,141.91770619992167,142.41868150001392,141.91770619992167,142.41868150001392,141.91770619992167,142.41868150001392,141.91770619992167,142.41868150001392,141.91770619992167,142.41868150001392,141.91770619992167,142.41868150001392,141.68352989992127,None,142.41868150001392,144.38752770004794,0.25,144.40427580010146,None,145.15596270002425,None,,,,,,,[1.969],4.940000000000004,0.8,11027,001,2024_Jan_10_1052,MFTM_A_new1021,2021.2.3,59.820168563097674,
,,,,,,,,stim/Instruction_adaptive.png,conditions/adaptive.xlsx,test,0.6,0.6,0.6,-0.6,-0.6,right,R,,,,,0,1,1,1,0,10,10,90,,,,,,,,,,,,,,,,,,,,,,,,,,,,,,,,,,,,,,,,,,,,145.6561575999949,None,right,1,1.1620497000403702,146.15745760011487,146.9080328999553,146.15745760011487,146.4075231999159,146.15745760011487,146.4075231999159,146.15745760011487,146.4075231999159,146.15745760011487,146.4075231999159,146.15745760011487,146.4075231999159,146.3905835999176,146.8917441999074,146.3905835999176,146.8917441999074,146.3905835999176,146.8917441999074,146.3905835999176,146.8917441999074,146.3905835999176,146.8917441999074,146.3905835999176,146.8917441999074,146.3905835999176,146.8917441999074,146.3905835999176,146.8917441999074,146.15745760011487,None,146.8917441999074,148.8941502000671,0.25,148.91161220008507,None,149.66290839994326,None,,,,,,,[1.99454545],5.110000000000004,0.8181818181818182,11027,001,2024_Jan_10_1052,MFTM_A_new1021,2021.2.3,59.820168563097674,
,,,,,,,,stim/Instruction_adaptive.png,conditions/adaptive.xlsx,test,-0.6,-0.6,-0.6,0.6,0.6,left,L,,,,,0,1,1,1,0,11,11,73,,,,,,,,,,,,,,,,,,,,,,,,,,,,,,,,,,,,,,,,,,,,150.1632699999027,None,right,0,2.0713015999644995,150.6641102998983,151.41531409998424,150.6641102998983,150.91383099998347,150.6641102998983,150.91383099998347,150.6641102998983,150.91383099998347,150.6641102998983,150.91383099998347,150.6641102998983,150.91383099998347,150.89702740008943,151.3988145000767,150.89702740008943,151.3988145000767,150.89702740008943,151.3988145000767,150.89702740008943,151.3988145000767,150.89702740008943,151.3988145000767,150.89702740008943,151.3988145000767,150.89702740008943,151.3988145000767,150.89702740008943,151.3988145000767,150.6641102998983,None,151.3988145000767,153.41781780007295,0.25,153.43422699999064,None,154.18527989997528,None,,,,,,,[2.01583333],4.530000000000004,0.75,11027,001,2024_Jan_10_1052,MFTM_A_new1021,2021.2.3,59.820168563097674,
,,,,,,,,stim/Instruction_adaptive.png,conditions/adaptive.xlsx,test,0.6,0.6,0.6,-0.6,-0.6,right,R,,,,,0,1,1,1,0,12,12,26,,,,,,,,,,,,,,,,,,,,,,,,,,,,,,,,,,,,,,,,,,,,154.68691199994646,None,left,0,1.6365654999390244,155.18703490006737,155.9720550000202,155.18703490006737,155.4705862000119,155.18703490006737,155.4705862000119,155.18703490006737,155.4705862000119,155.18703490006737,155.4705862000119,155.18703490006737,155.4705862000119,155.45483659999445,155.95571530004963,155.45483659999445,155.95571530004963,155.45483659999445,155.95571530004963,155.45483659999445,155.95571530004963,155.45483659999445,155.95571530004963,155.45483659999445,155.95571530004963,155.45483659999445,155.95571530004963,155.45483659999445,155.95571530004963,155.18703490006737,None,155.95571530004963,157.99194029998034,0.28,158.00856889993884,None,158.75987199996598,None,,,,,,,[2.03153846],3.9300000000000033,0.6923076923076923,11027,001,2024_Jan_10_1052,MFTM_A_new1021,2021.2.3,59.820168563097674,
,,,,,,,,stim/Instruction_adaptive.png,conditions/adaptive.xlsx,test,-0.6,-0.6,-0.6,0.6,0.6,left,L,,,,,0,1,1,1,0,13,13,93,,,,,,,,,,,,,,,,,,,,,,,,,,,,,,,,,,,,,,,,,,,,159.2597443999257,None,right,0,1.6383565999567509,159.7609357999172,160.69575980002992,159.7609357999172,160.1949265000876,159.7609357999172,160.1949265000876,159.7609357999172,160.1949265000876,159.7609357999172,160.1949265000876,159.7609357999172,160.1949265000876,160.17767650005408,160.6784544000402,160.17767650005408,160.6784544000402,160.17767650005408,160.6784544000402,160.17767650005408,160.6784544000402,160.17767650005408,160.6784544000402,160.17767650005408,160.6784544000402,160.17767650005408,160.6784544000402,160.17767650005408,160.6784544000402,159.7609357999172,None,160.6784544000402,162.71527289994992,0.43000000000000016,162.7314718000125,None,163.4832256999798,None,,,,,,,[2.03428571],3.0900000000000025,0.6428571428571429,11027,001,2024_Jan_10_1052,MFTM_A_new1021,2021.2.3,59.820168563097674,
,,,,,,,,stim/Instruction_adaptive.png,conditions/adaptive.xlsx,test,-0.6,-0.6,-0.6,0.6,0.6,left,L,,,,,0,1,1,1,0,14,14,65,,,,,,,,,,,,,,,,,,,,,,,,,,,,,,,,,,,,,,,,,,,,163.9838996999897,None,left,1,2.419482900062576,164.48461519996636,165.7701914999634,164.48461519996636,165.26914269989356,164.48461519996636,165.26914269989356,164.48461519996636,165.26914269989356,164.48461519996636,165.26914269989356,164.48461519996636,165.26914269989356,165.2352269999683,165.7358675999567,165.2352269999683,165.7358675999567,165.2352269999683,165.7358675999567,165.2352269999683,165.7358675999567,165.2352269999683,165.7358675999567,165.2352269999683,165.7358675999567,165.2352269999683,165.7358675999567,165.2352269999683,165.7358675999567,164.48461519996636,None,165.7358675999567,167.47191440011375,0.7700000000000005,167.48883250006475,None,168.2403013999574,None,,,,,,,[[1.73]],3.4600000000000026,0.6666666666666666,11027,001,2024_Jan_10_1052,MFTM_A_new1021,2021.2.3,59.820168563097674,
,,,,,,,,stim/Instruction_adaptive.png,conditions/adaptive.xlsx,test,0.6,0.6,0.6,-0.6,-0.6,right,R,,,,,0,1,1,1,0,15,15,96,,,,,,,,,,,,,,,,,,,,,,,,,,,,,,,,,,,,,,,,,,,,168.74073980003595,None,right,1,1.294541000155732,169.2408741998952,170.34308520006016,169.2408741998952,169.84281620010734,169.2408741998952,169.84281620010734,169.2408741998952,169.84281620010734,169.2408741998952,169.84281620010734,169.2408741998952,169.84281620010734,169.82562500005588,170.32810049992986,169.82562500005588,170.32810049992986,169.82562500005588,170.32810049992986,169.82562500005588,170.32810049992986,169.82562500005588,170.32810049992986,169.82562500005588,170.32810049992986,169.82562500005588,170.32810049992986,169.82562500005588,170.32810049992986,169.2408741998952,None,170.32810049992986,172.22880839998834,0.6000000000000003,172.24554709997028,None,172.99672450008802,None,,,,,,,[[1.9]],3.7100000000000026,0.6875,11027,001,2024_Jan_10_1052,MFTM_A_new1021,2021.2.3,59.820168563097674,
,,,,,,,,stim/Instruction_adaptive.png,conditions/adaptive.xlsx,test,-0.6,-0.6,-0.6,0.6,0.6,left,L,,,,,0,1,1,1,0,16,16,3,,,,,,,,,,,,,,,,,,,,,,,,,,,,,,,,,,,,,,,,,,,,173.49801509990357,None,left,1,2.6174166998825967,173.99800450005569,174.9996700999327,173.99800450005569,174.49981730012223,173.99800450005569,174.49981730012223,173.99800450005569,174.49981730012223,173.99800450005569,174.49981730012223,173.99800450005569,174.49981730012223,174.48224729998037,174.98290479998104,174.48224729998037,174.98290479998104,174.48224729998037,174.98290479998104,174.48224729998037,174.98290479998104,174.48224729998037,174.98290479998104,174.48224729998037,174.98290479998104,174.48224729998037,174.98290479998104,174.48224729998037,174.98290479998104,173.99800450005569,None,174.98290479998104,176.98581270012073,0.5000000000000002,177.00240919995122,None,177.75395009992644,None,,,,,,,[[2.]],3.910000000000003,0.7058823529411765,11027,001,2024_Jan_10_1052,MFTM_A_new1021,2021.2.3,59.820168563097674,
,,,,,,,,stim/Instruction_adaptive.png,conditions/adaptive.xlsx,test,-0.6,-0.6,-0.6,0.6,0.6,left,L,,,,,0,1,1,1,0,17,17,13,,,,,,,,,,,,,,,,,,,,,,,,,,,,,,,,,,,,,,,,,,,,178.25446989992633,None,right,0,1.740900699980557,178.75507709989324,179.70760300010443,178.75507709989324,179.2059961000923,178.75507709989324,179.2059961000923,178.75507709989324,179.2059961000923,178.75507709989324,179.2059961000923,178.75507709989324,179.2059961000923,179.1725177001208,179.6730090000201,179.1725177001208,179.6730090000201,179.1725177001208,179.6730090000201,179.1725177001208,179.6730090000201,179.1725177001208,179.6730090000201,179.1725177001208,179.6730090000201,179.1725177001208,179.6730090000201,179.1725177001208,179.6730090000201,178.75507709989324,None,179.6730090000201,181.69371380005032,0.44000000000000017,181.70949780009687,None,182.46057299990207,None,,,,,,,[2.00944444],3.410000000000003,0.6666666666666666,11027,001,2024_Jan_10_1052,MFTM_A_new1021,2021.2.3,59.820168563097674,
,,,,,,,,stim/Instruction_adaptive.png,conditions/adaptive.xlsx,test,0.6,0.6,0.6,-0.6,-0.6,right,R,,,,,0,1,1,1,0,18,18,34,,,,,,,,,,,,,,,,,,,,,,,,,,,,,,,,,,,,,,,,,,,,182.96136020007543,None,right,1,1.697939399862662,183.462182499934,184.5806583999656,183.462182499934,184.096545800101,183.462182499934,184.096545800101,183.462182499934,184.096545800101,183.462182499934,184.096545800101,183.462182499934,184.096545800101,184.06342949997634,184.56468670000322,184.06342949997634,184.56468670000322,184.06342949997634,184.56468670000322,184.06342949997634,184.56468670000322,184.06342949997634,184.56468670000322,184.06342949997634,184.56468670000322,184.06342949997634,184.56468670000322,184.06342949997634,184.56468670000322,183.462182499934,None,184.56468670000322,186.44991849991493,0.6200000000000003,186.46656890003942,None,187.2179592999164,None,,,,,,,[[1.88]],3.610000000000003,0.6842105263157895,11027,001,2024_Jan_10_1052,MFTM_A_new1021,2021.2.3,59.820168563097674,
,,,,,,,,stim/Instruction_adaptive.png,conditions/adaptive.xlsx,test,0.6,0.6,0.6,-0.6,-0.6,right,R,,,,,0,1,1,1,0,19,19,68,,,,,,,,,,,,,,,,,,,,,,,,,,,,,,,,,,,,,,,,,,,,187.7194235001225,None,right,1,1.348666099831462,188.21925690001808,189.27089740009978,188.21925690001808,188.77006429992616,188.21925690001808,188.77006429992616,188.21925690001808,188.77006429992616,188.21925690001808,188.77006429992616,188.21925690001808,188.77006429992616,188.7367438999936,189.23763739992864,188.7367438999936,189.23763739992864,188.7367438999936,189.23763739992864,188.7367438999936,189.23763739992864,188.7367438999936,189.23763739992864,188.7367438999936,189.23763739992864,188.7367438999936,189.23763739992864,188.7367438999936,189.23763739992864,188.21925690001808,None,189.23763739992864,191.2074253000319,0.5400000000000003,191.22381239989772,None,191.97467990010045,None,,,,,,,[[1.96]],3.770000000000003,0.7,11027,001,2024_Jan_10_1052,MFTM_A_new1021,2021.2.3,59.820168563097674,
,,,,,,,,stim/Instruction_adaptive.png,conditions/adaptive.xlsx,test,0.6,0.6,0.6,-0.6,-0.6,right,R,,,,,0,1,1,1,0,20,20,78,,,,,,,,,,,,,,,,,,,,,,,,,,,,,,,,,,,,,,,,,,,,192.47602929989807,None,right,1,1.2232679999433458,192.9770591999404,193.96186259994283,192.9770591999404,193.46023819991387,192.9770591999404,193.46023819991387,192.9770591999404,193.46023819991387,192.9770591999404,193.46023819991387,192.9770591999404,193.46023819991387,193.44465370010585,193.94447480002418,193.44465370010585,193.94447480002418,193.44465370010585,193.94447480002418,193.44465370010585,193.94447480002418,193.44465370010585,193.94447480002418,193.44465370010585,193.94447480002418,193.44465370010585,193.94447480002418,193.44465370010585,193.94447480002418,192.9770591999404,None,193.94447480002418,195.9487672999967,0.4800000000000002,195.964063399937,None,196.716057700105,None,,,,,,,[2.00142857],3.910000000000003,0.7142857142857143,11027,001,2024_Jan_10_1052,MFTM_A_new1021,2021.2.3,59.820168563097674,
,,,,,,,,stim/Instruction_adaptive.png,conditions/adaptive.xlsx,test,-0.6,-0.6,-0.6,0.6,0.6,left,L,,,,,0,1,1,1,0,21,21,85,,,,,,,,,,,,,,,,,,,,,,,,,,,,,,,,,,,,,,,,,,,,197.2160901001189,None,right,0,1.259048700099811,197.7166242999956,198.66814680001698,197.7166242999956,198.16744589991868,197.7166242999956,198.16744589991868,197.7166242999956,198.16744589991868,197.7166242999956,198.16744589991868,197.7166242999956,198.16744589991868,198.1339642999228,198.63468550005928,198.1339642999228,198.63468550005928,198.1339642999228,198.63468550005928,198.1339642999228,198.63468550005928,198.1339642999228,198.63468550005928,198.1339642999228,198.63468550005928,198.1339642999228,198.63468550005928,198.1339642999228,198.63468550005928,197.7166242999956,None,198.63468550005928,200.65441010007635,0.44000000000000017,200.6714776000008,None,201.42237729998305,None,,,,,,,[2.00409091],3.5400000000000027,0.6818181818181818,11027,001,2024_Jan_10_1052,MFTM_A_new1021,2021.2.3,59.820168563097674,
,,,,,,,,stim/Instruction_adaptive.png,conditions/adaptive.xlsx,test,-0.6,-0.6,-0.6,0.6,0.6,left,L,,,,,0,1,1,1,0,22,22,83,,,,,,,,,,,,,,,,,,,,,,,,,,,,,,,,,,,,,,,,,,,,201.92286760010757,None,right,0,1.8625370999798179,202.42500369995832,203.508951399941,202.42500369995832,203.00880570011213,202.42500369995832,203.00880570011213,202.42500369995832,203.00880570011213,202.42500369995832,203.00880570011213,202.42500369995832,203.00880570011213,202.97554029989988,203.475540000014,202.97554029989988,203.475540000014,202.97554029989988,203.475540000014,202.97554029989988,203.475540000014,202.97554029989988,203.475540000014,202.97554029989988,203.475540000014,202.97554029989988,203.475540000014,202.97554029989988,203.475540000014,202.42500369995832,None,203.475540000014,205.41284719994292,0.5700000000000003,205.42808529990725,None,206.17943020001985,None,,,,,,,[[1.93]],3.1000000000000023,0.6521739130434783,11027,001,2024_Jan_10_1052,MFTM_A_new1021,2021.2.3,59.820168563097674,
,,,,,,,,stim/Instruction_adaptive.png,conditions/adaptive.xlsx,test,-0.6,-0.6,-0.6,0.6,0.6,left,L,,,,,0,1,1,1,0,23,23,7,,,,,,,,,,,,,,,,,,,,,,,,,,,,,,,,,,,,,,,,,,,,206.68022660003044,None,left,1,2.6346440999768674,207.18102320004255,208.4659804000985,207.18102320004255,207.96522099990398,207.18102320004255,207.96522099990398,207.18102320004255,207.96522099990398,207.18102320004255,207.96522099990398,207.18102320004255,207.96522099990398,207.9321969000157,208.4327070999425,207.9321969000157,208.4327070999425,207.9321969000157,208.4327070999425,207.9321969000157,208.4327070999425,207.9321969000157,208.4327070999425,207.9321969000157,208.4327070999425,207.9321969000157,208.4327070999425,207.9321969000157,208.4327070999425,207.18102320004255,None,208.4327070999425,210.17027570004575,0.7700000000000005,210.18517170008272,None,210.93725820002146,None,,,,,,,[[1.73]],3.2700000000000022,0.6666666666666666,11027,001,2024_Jan_10_1052,MFTM_A_new1021,2021.2.3,59.820168563097674,
,,,,,,,,stim/Instruction_adaptive.png,conditions/adaptive.xlsx,test,0.6,0.6,0.6,-0.6,-0.6,right,R,,,,,0,1,1,1,0,24,24,74,,,,,,,,,,,,,,,,,,,,,,,,,,,,,,,,,,,,,,,,,,,,211.43761010002345,None,right,1,1.9099657000042498,211.93766449997202,213.12320869998075,211.93766449997202,212.62328330008313,211.93766449997202,212.62328330008313,211.93766449997202,212.62328330008313,211.93766449997202,212.62328330008313,211.93766449997202,212.62328330008313,212.6059658001177,213.10625159996562,212.6059658001177,213.10625159996562,212.6059658001177,213.10625159996562,212.6059658001177,213.10625159996562,212.6059658001177,213.10625159996562,212.6059658001177,213.10625159996562,212.6059658001177,213.10625159996562,212.6059658001177,213.10625159996562,211.93766449997202,None,213.10625159996562,214.92646669992246,0.6800000000000004,214.94215749995783,None,215.6947174000088,None,,,,,,,[[1.82]],3.410000000000003,0.68,11027,001,2024_Jan_10_1052,MFTM_A_new1021,2021.2.3,59.820168563097674,
,,,,,,,,stim/Instruction_adaptive.png,conditions/adaptive.xlsx,test,-0.6,-0.6,-0.6,0.6,0.6,left,L,,,,,0,1,1,1,0,25,25,1,,,,,,,,,,,,,,,,,,,,,,,,,,,,,,,,,,,,,,,,,,,,216.19394190004095,None,right,0,1.4002948000561446,216.6951917000115,217.8302507000044,216.6951917000115,217.32914869999513,216.6951917000115,217.32914869999513,216.6951917000115,217.32914869999513,216.6951917000115,217.32914869999513,216.6951917000115,217.32914869999513,217.2956715999171,217.79651960008778,217.2956715999171,217.79651960008778,217.2956715999171,217.79651960008778,217.2956715999171,217.79651960008778,217.2956715999171,217.79651960008778,217.2956715999171,217.79651960008778,217.2956715999171,217.79651960008778,217.2956715999171,217.79651960008778,216.6951917000115,None,217.79651960008778,219.6823704999406,0.6200000000000003,219.69919169996865,None,220.45017380011268,None,,,,,,,[[1.88]],3.030000000000002,0.6538461538461539,11027,001,2024_Jan_10_1052,MFTM_A_new1021,2021.2.3,59.820168563097674,
,,,,,,,,stim/Instruction_adaptive.png,conditions/adaptive.xlsx,test,0.6,0.6,0.6,-0.6,-0.6,right,R,,,,,0,1,1,1,0,26,26,94,,,,,,,,,,,,,,,,,,,,,,,,,,,,,,,,,,,,,,,,,,,,220.9509199000895,None,right,1,1.5875235002022237,221.45185879990458,222.77047750004567,221.45185879990458,222.26958320010453,221.45185879990458,222.26958320010453,221.45185879990458,222.26958320010453,221.45185879990458,222.26958320010453,221.45185879990458,222.26958320010453,222.2528518999461,222.75379050010815,222.2528518999461,222.75379050010815,222.2528518999461,222.75379050010815,222.2528518999461,222.75379050010815,222.2528518999461,222.75379050010815,222.2528518999461,222.75379050010815,222.2528518999461,222.75379050010815,222.2528518999461,222.75379050010815,221.45185879990458,None,222.73709670011885,224.4394133000169,0.8100000000000005,224.45606809994206,None,225.20731989992782,None,,,,,,,[[1.69]],3.1800000000000024,0.6666666666666666,11027,001,2024_Jan_10_1052,MFTM_A_new1021,2021.2.3,59.820168563097674,
,,,,,,,,stim/Instruction_adaptive.png,conditions/adaptive.xlsx,test,-0.6,-0.6,-0.6,0.6,0.6,left,L,,,,,0,1,1,1,0,27,27,69,,,,,,,,,,,,,,,,,,,,,,,,,,,,,,,,,,,,,,,,,,,,225.70807679998688,None,left,1,1.9346074999775738,226.20895060012117,227.44394179992378,226.20895060012117,226.94333359994926,226.20895060012117,226.94333359994926,226.20895060012117,226.94333359994926,226.20895060012117,226.94333359994926,226.20895060012117,226.94333359994926,226.92660370003432,227.42760689998977,226.92660370003432,227.42760689998977,226.92660370003432,227.42760689998977,226.92660370003432,227.42760689998977,226.92660370003432,227.42760689998977,226.92660370003432,227.42760689998977,226.92660370003432,227.42760689998977,226.92660370003432,227.42760689998977,226.20895060012117,None,227.42760689998977,229.19699739990756,0.7300000000000004,229.21306969993748,None,229.96501159993932,None,,,,,,,[[1.77]],3.3000000000000025,0.6785714285714286,11027,001,2024_Jan_10_1052,MFTM_A_new1021,2021.2.3,59.820168563097674,
,,,,,,,,stim/Instruction_adaptive.png,conditions/adaptive.xlsx,test,-0.6,-0.6,-0.6,0.6,0.6,left,L,,,,,0,1,1,1,0,28,28,9,,,,,,,,,,,,,,,,,,,,,,,,,,,,,,,,,,,,,,,,,,,,230.46552839991637,None,left,1,1.649554899893701,230.96596579998732,232.1344173999969,230.96596579998732,231.65053900005296,230.96596579998732,231.65053900005296,230.96596579998732,231.65053900005296,230.96596579998732,231.65053900005296,230.96596579998732,231.65053900005296,231.61686330009252,232.1186103001237,231.61686330009252,232.1186103001237,231.61686330009252,232.1186103001237,231.61686330009252,232.1186103001237,231.61686330009252,232.1186103001237,231.61686330009252,232.1186103001237,231.61686330009252,232.1186103001237,231.61686330009252,232.1186103001237,230.96596579998732,None,232.1186103001237,233.9538066999521,0.6700000000000004,233.97031960007735,None,234.72215129993856,None,,,,,,,[[1.83]],3.410000000000003,0.6896551724137931,11027,001,2024_Jan_10_1052,MFTM_A_new1021,2021.2.3,59.820168563097674,
,,,,,,,,stim/Instruction_adaptive.png,conditions/adaptive.xlsx,test,-0.6,-0.6,-0.6,0.6,0.6,left,L,,,,,0,1,1,1,0,29,29,39,,,,,,,,,,,,,,,,,,,,,,,,,,,,,,,,,,,,,,,,,,,,235.22226159996353,None,left,1,3.0527107999660075,235.72326799994335,236.85866079991683,235.72326799994335,236.3571629000362,235.72326799994335,236.3571629000362,235.72326799994335,236.3571629000362,235.72326799994335,236.3571629000362,235.72326799994335,236.3571629000362,236.3240648000501,236.8251771000214,236.3240648000501,236.8251771000214,236.3240648000501,236.8251771000214,236.3240648000501,236.8251771000214,236.3240648000501,236.8251771000214,236.3240648000501,236.8251771000214,236.3240648000501,236.8251771000214,236.3240648000501,236.8251771000214,235.72326799994335,None,236.8251771000214,238.79420450003818,0.6200000000000003,238.81086539989337,None,239.56235289992765,None,,,,,,,[[1.88]],3.5100000000000025,0.7,11027,001,2024_Jan_10_1052,MFTM_A_new1021,2021.2.3,59.820168563097674,
,,,,,,,,stim/Instruction_adaptive.png,conditions/adaptive.xlsx,test,0.6,0.6,0.6,-0.6,-0.6,right,R,,,,,0,1,1,1,0,30,30,20,,,,,,,,,,,,,,,,,,,,,,,,,,,,,,,,,,,,,,,,,,,,240.0626320000738,None,right,1,1.2039379000198096,240.56359219993465,241.64961720001884,240.56359219993465,241.1476392999757,240.56359219993465,241.1476392999757,240.56359219993465,241.1476392999757,240.56359219993465,241.1476392999757,240.56359219993465,241.1476392999757,241.13200640003197,241.6317692999728,241.13200640003197,241.6317692999728,241.13200640003197,241.6317692999728,241.13200640003197,241.6317692999728,241.13200640003197,241.6317692999728,241.13200640003197,241.6317692999728,241.13200640003197,241.6317692999728,241.13200640003197,241.6317692999728,240.56359219993465,None,241.6317692999728,243.55202870001085,0.5800000000000003,243.56796719995327,None,244.31971310009249,None,,,,,,,[[1.92]],3.6000000000000028,0.7096774193548387,11027,001,2024_Jan_10_1052,MFTM_A_new1021,2021.2.3,59.820168563097674,
,,,,,,,,stim/Instruction_adaptive.png,conditions/adaptive.xlsx,test,0.6,0.6,0.6,-0.6,-0.6,right,R,,,,,0,1,1,1,0,31,31,2,,,,,,,,,,,,,,,,,,,,,,,,,,,,,,,,,,,,,,,,,,,,244.81975820008665,None,right,1,1.279496300034225,245.32053150003776,246.37271109991707,245.32053150003776,245.87208139989525,245.32053150003776,245.87208139989525,245.32053150003776,245.87208139989525,245.32053150003776,245.87208139989525,245.32053150003776,245.87208139989525,245.83881999994628,246.33878699992783,245.83881999994628,246.33878699992783,245.83881999994628,246.33878699992783,245.83881999994628,246.33878699992783,245.83881999994628,246.33878699992783,245.83881999994628,246.33878699992783,245.83881999994628,246.33878699992783,245.83881999994628,246.33878699992783,245.32053150003776,None,246.33878699992783,248.29181550000794,0.5400000000000003,248.32507009990513,None,249.07601749990135,None,,,,,,,[1.953125],3.680000000000003,0.71875,11027,001,2024_Jan_10_1052,MFTM_A_new1021,2021.2.3,59.820168563097674,
,,,,,,,,stim/Instruction_adaptive.png,conditions/adaptive.xlsx,test,0.6,0.6,0.6,-0.6,-0.6,right,R,,,,,0,1,1,1,0,32,32,82,,,,,,,,,,,,,,,,,,,,,,,,,,,,,,,,,,,,,,,,,,,,249.5767514000181,None,left,0,1.3380738999694586,250.07760059996508,251.0964699999895,250.07760059996508,250.59497139998712,250.07760059996508,250.59497139998712,250.07760059996508,250.59497139998712,250.07760059996508,250.59497139998712,250.07760059996508,250.59497139998712,250.56163059989922,251.06273550004698,250.56163059989922,251.06273550004698,250.56163059989922,251.06273550004698,250.56163059989922,251.06273550004698,250.56163059989922,251.06273550004698,250.56163059989922,251.06273550004698,250.56163059989922,251.06273550004698,250.56163059989922,251.06273550004698,250.07760059996508,None,251.06273550004698,253.0323836999014,0.5100000000000002,253.0490522000473,None,253.79966749995947,None,,,,,,,[1.95424242],3.4600000000000026,0.696969696969697,11027,001,2024_Jan_10_1052,MFTM_A_new1021,2021.2.3,59.820168563097674,
,,,,,,,,stim/Instruction_adaptive.png,conditions/adaptive.xlsx,test,-0.6,-0.6,-0.6,0.6,0.6,left,L,,,,,0,1,1,1,0,33,33,45,,,,,,,,,,,,,,,,,,,,,,,,,,,,,,,,,,,,,,,,,,,,254.3011608000379,None,left,1,2.4303706001956016,254.80132619990036,255.90279379999265,254.80132619990036,255.40212059998885,254.80132619990036,255.40212059998885,254.80132619990036,255.40212059998885,254.80132619990036,255.40212059998885,254.80132619990036,255.40212059998885,255.386169699952,255.8861493000295,255.386169699952,255.8861493000295,255.386169699952,255.8861493000295,255.386169699952,255.8861493000295,255.386169699952,255.8861493000295,255.386169699952,255.8861493000295,255.386169699952,255.8861493000295,255.386169699952,255.8861493000295,254.80132619990036,None,255.8861493000295,257.7893529001158,0.6000000000000003,257.8051575999707,None,258.55672039999627,None,,,,,,,[[1.9]],3.5400000000000027,0.7058823529411765,11027,001,2024_Jan_10_1052,MFTM_A_new1021,2021.2.3,59.820168563097674,
,,,,,,,,stim/Instruction_adaptive.png,conditions/adaptive.xlsx,test,-0.6,-0.6,-0.6,0.6,0.6,left,L,,,,,0,1,1,1,0,34,34,37,,,,,,,,,,,,,,,,,,,,,,,,,,,,,,,,,,,,,,,,,,,,259.05761120002717,None,right,0,1.4577376001980156,259.55823400011286,260.6267647999339,259.55823400011286,260.1426226000767,259.55823400011286,260.1426226000767,259.55823400011286,260.1426226000767,259.55823400011286,260.1426226000767,259.55823400011286,260.1426226000767,260.10940379998647,260.61086119990796,260.10940379998647,260.61086119990796,260.10940379998647,260.61086119990796,260.10940379998647,260.61086119990796,260.10940379998647,260.61086119990796,260.10940379998647,260.61086119990796,260.10940379998647,260.61086119990796,260.10940379998647,260.61086119990796,259.55823400011286,None,260.61086119990796,262.54662699997425,0.5700000000000003,262.5626179999672,None,263.31428980012424,None,,,,,,,[[1.93]],3.3100000000000023,0.6857142857142857,11027,001,2024_Jan_10_1052,MFTM_A_new1021,2021.2.3,59.820168563097674,
,,,,,,,,stim/Instruction_adaptive.png,conditions/adaptive.xlsx,test,0.6,0.6,0.6,-0.6,-0.6,right,R,,,,,0,1,1,1,0,35,35,92,,,,,,,,,,,,,,,,,,,,,,,,,,,,,,,,,,,,,,,,,,,,263.8150937000755,None,left,0,2.6050435001961887,264.3154043999966,265.48360619996674,264.3154043999966,264.98297769995406,264.3154043999966,264.98297769995406,264.3154043999966,264.98297769995406,264.3154043999966,264.98297769995406,264.3154043999966,264.98297769995406,264.9496166999452,265.4509463000577,264.9496166999452,265.4509463000577,264.9496166999452,265.4509463000577,264.9496166999452,265.4509463000577,264.9496166999452,265.4509463000577,264.9496166999452,265.4509463000577,264.9496166999452,265.4509463000577,264.9496166999452,265.4509463000577,264.3154043999966,None,265.4509463000577,267.3032052000053,0.6600000000000004,267.31978900008835,None,268.0723614001181,None,,,,,,,[[1.84]],3.0600000000000023,0.6666666666666666,11027,001,2024_Jan_10_1052,MFTM_A_new1021,2021.2.3,59.820168563097674,
,,,,,,,,stim/Instruction_adaptive.png,conditions/adaptive.xlsx,test,-0.6,-0.6,-0.6,0.6,0.6,left,L,,,,,0,1,1,1,0,36,36,67,,,,,,,,,,,,,,,,,,,,,,,,,,,,,,,,,,,,,,,,,,,,268.5722270999104,None,right,0,1.7359010998625308,269.07241560006514,270.37428859993815,269.07241560006514,269.87397460010834,269.07241560006514,269.87397460010834,269.07241560006514,269.87397460010834,269.07241560006514,269.87397460010834,269.07241560006514,269.87397460010834,269.84093439998105,270.3421672999393,269.84093439998105,270.3421672999393,269.84093439998105,270.3421672999393,269.84093439998105,270.3421672999393,269.84093439998105,270.3421672999393,269.84093439998105,270.3421672999393,269.84093439998105,270.3421672999393,269.84093439998105,270.3421672999393,269.07241560006514,None,270.3421672999393,272.0601327000186,0.7900000000000005,272.076827700017,None,272.8279748999048,None,,,,,,,[[1.71]],2.760000000000002,0.6486486486486487,11027,001,2024_Jan_10_1052,MFTM_A_new1021,2021.2.3,59.820168563097674,
,,,,,,,,stim/Instruction_adaptive.png,conditions/adaptive.xlsx,test,0.6,0.6,0.6,-0.6,-0.6,right,R,,,,,0,1,1,1,0,37,37,42,,,,,,,,,,,,,,,,,,,,,,,,,,,,,,,,,,,,,,,,,,,,273.32861470011994,None,right,1,1.7142409000080079,273.8293689999264,275.29841660009697,273.8293689999264,274.8149459999986,273.8293689999264,274.8149459999986,273.8293689999264,274.8149459999986,273.8293689999264,274.8149459999986,273.8293689999264,274.8149459999986,274.7814619001001,275.28235110011883,274.7814619001001,275.28235110011883,274.7814619001001,275.28235110011883,274.7814619001001,275.28235110011883,274.7814619001001,275.28235110011883,274.7814619001001,275.28235110011883,274.7814619001001,275.28235110011883,274.7814619001001,275.28235110011883,273.8293689999264,None,275.28235110011883,276.8174016000703,0.9700000000000006,276.83393789990805,None,277.58557979995385,None,,,,,,,[[1.53]],2.870000000000002,0.6578947368421053,11027,001,2024_Jan_10_1052,MFTM_A_new1021,2021.2.3,59.820168563097674,
,,,,,,,,stim/Instruction_adaptive.png,conditions/adaptive.xlsx,test,-0.6,-0.6,-0.6,0.6,0.6,left,L,,,,,0,1,1,1,0,38,38,97,,,,,,,,,,,,,,,,,,,,,,,,,,,,,,,,,,,,,,,,,,,,278.0859161000699,None,right,0,2.941222900059074,278.5863840999082,279.9890739999246,278.5863840999082,279.4879912000615,278.5863840999082,279.4879912000615,278.5863840999082,279.4879912000615,278.5863840999082,279.4879912000615,278.5863840999082,279.4879912000615,279.4710369000677,279.97187580005266,279.4710369000677,279.97187580005266,279.4710369000677,279.97187580005266,279.4710369000677,279.97187580005266,279.4710369000677,279.97187580005266,279.4710369000677,279.97187580005266,279.4710369000677,279.97187580005266,279.4710369000677,279.97187580005266,278.5863840999082,None,279.97187580005266,281.5750792999752,0.9000000000000006,281.5912152999081,None,282.3420688000042,None,,,,,,,[[1.6]],2.5500000000000016,0.6410256410256411,11027,001,2024_Jan_10_1052,MFTM_A_new1021,2021.2.3,59.820168563097674,
,,,,,,,,stim/Instruction_adaptive.png,conditions/adaptive.xlsx,test,-0.6,-0.6,-0.6,0.6,0.6,left,L,,,,,0,1,1,1,0,39,39,23,,,,,,,,,,,,,,,,,,,,,,,,,,,,,,,,,,,,,,,,,,,,282.843422899954,None,left,1,1.880341000156477,283.3436002000235,284.9633524999954,283.3436002000235,284.4786616000347,283.3436002000235,284.4786616000347,283.3436002000235,284.4786616000347,283.3436002000235,284.4786616000347,283.3436002000235,284.4786616000347,284.4450662001036,284.94673219998367,284.4450662001036,284.94673219998367,284.4450662001036,284.94673219998367,284.4450662001036,284.94673219998367,284.4450662001036,284.94673219998367,284.4450662001036,284.94673219998367,284.4450662001036,284.94673219998367,284.4450662001036,284.94673219998367,283.3436002000235,None,284.94673219998367,286.3317334000021,1.1200000000000008,286.34793159994297,None,287.09977050009184,None,,,,,,,[[1.38]],2.6700000000000017,0.65,11027,001,2024_Jan_10_1052,MFTM_A_new1021,2021.2.3,59.820168563097674,
,,,,,,,,stim/Instruction_adaptive.png,conditions/adaptive.xlsx,test,0.6,0.6,0.6,-0.6,-0.6,right,R,,,,,0,1,1,1,0,40,40,46,,,,,,,,,,,,,,,,,,,,,,,,,,,,,,,,,,,,,,,,,,,,287.60001390008256,None,right,1,1.5792171000503004,288.10094020003453,289.6368237999268,288.10094020003453,289.1355552999303,288.10094020003453,289.1355552999303,288.10094020003453,289.1355552999303,288.10094020003453,289.1355552999303,288.10094020003453,289.1355552999303,289.1187058999203,289.61963799991645,289.1187058999203,289.61963799991645,289.1187058999203,289.61963799991645,289.1187058999203,289.61963799991645,289.1187058999203,289.61963799991645,289.1187058999203,289.61963799991645,289.1187058999203,289.61963799991645,289.1187058999203,289.61963799991645,288.10094020003453,None,289.61963799991645,291.088964600116,1.0300000000000007,291.10443469998427,None,291.85624739993364,None,,,,,,,[[1.47]],2.780000000000002,0.6585365853658537,11027,001,2024_Jan_10_1052,MFTM_A_new1021,2021.2.3,59.820168563097674,
,,,,,,,,stim/Instruction_adaptive.png,conditions/adaptive.xlsx,test,0.6,0.6,0.6,-0.6,-0.6,right,R,,,,,0,1,1,1,0,41,41,70,,,,,,,,,,,,,,,,,,,,,,,,,,,,,,,,,,,,,,,,,,,,292.357050599996,None,right,1,1.7261842999141663,292.8575476000551,294.3271667000372,292.8575476000551,293.82622239994816,292.8575476000551,293.82622239994816,292.8575476000551,293.82622239994816,292.8575476000551,293.82622239994816,292.8575476000551,293.82622239994816,293.8091994000133,294.3097226000391,293.8091994000133,294.3097226000391,293.8091994000133,294.3097226000391,293.8091994000133,294.3097226000391,293.8091994000133,294.3097226000391,293.8091994000133,294.3097226000391,293.8091994000133,294.3097226000391,293.8091994000133,294.3097226000391,292.8575476000551,None,294.29320720001124,295.84667319990695,0.9600000000000006,295.86198960011825,None,296.6135372000281,None,,,,,,,[[1.54]],2.870000000000002,0.6666666666666666,11027,001,2024_Jan_10_1052,MFTM_A_new1021,2021.2.3,59.820168563097674,
,,,,,,,,stim/Instruction_adaptive.png,conditions/adaptive.xlsx,test,0.6,0.6,0.6,-0.6,-0.6,right,R,,,,,0,1,1,1,0,42,42,14,,,,,,,,,,,,,,,,,,,,,,,,,,,,,,,,,,,,,,,,,,,,297.1139869999606,None,right,1,2.0175514000002295,297.61470149992965,299.0171262999065,297.61470149992965,298.5159688000567,297.61470149992965,298.5159688000567,297.61470149992965,298.5159688000567,297.61470149992965,298.5159688000567,297.61470149992965,298.5159688000567,298.4994107999373,299.00009509990923,298.4994107999373,299.00009509990923,298.4994107999373,299.00009509990923,298.4994107999373,299.00009509990923,298.4994107999373,299.00009509990923,298.4994107999373,299.00009509990923,298.4994107999373,299.00009509990923,298.4994107999373,299.00009509990923,297.61470149992965,None,299.00009509990923,300.603192999959,0.9000000000000006,300.61918030004017,None,301.37048169993795,None,,,,,,,[[1.6]],2.950000000000002,0.6744186046511628,11027,001,2024_Jan_10_1052,MFTM_A_new1021,2021.2.3,59.820168563097674,
,,,,,,,,stim/Instruction_adaptive.png,conditions/adaptive.xlsx,test,-0.6,-0.6,-0.6,0.6,0.6,left,L,,,,,0,1,1,1,0,43,43,59,,,,,,,,,,,,,,,,,,,,,,,,,,,,,,,,,,,,,,,,,,,,301.8720088999253,None,left,1,1.7315756999887526,302.37259240006097,303.72397039993666,302.37259240006097,303.2236546999775,302.37259240006097,303.2236546999775,302.37259240006097,303.2236546999775,302.37259240006097,303.2236546999775,302.37259240006097,303.2236546999775,303.2064942000434,303.7071034000255,303.2064942000434,303.7071034000255,303.2064942000434,303.7071034000255,303.2064942000434,303.7071034000255,303.2064942000434,303.7071034000255,303.2064942000434,303.7071034000255,303.2064942000434,303.7071034000255,303.2064942000434,303.7071034000255,302.37259240006097,None,303.7071034000255,305.3596155999694,0.8500000000000005,305.3760877000168,None,306.127282399917,None,,,,,,,[[1.65]],3.030000000000002,0.6818181818181818,11027,001,2024_Jan_10_1052,MFTM_A_new1021,2021.2.3,59.820168563097674,
,,,,,,,,stim/Instruction_adaptive.png,conditions/adaptive.xlsx,test,0.6,0.6,0.6,-0.6,-0.6,right,R,,,,,0,1,1,1,0,44,44,28,,,,,,,,,,,,,,,,,,,,,,,,,,,,,,,,,,,,,,,,,,,,306.6280336000491,None,right,1,1.4226650998461992,307.129093100084,308.4471553999465,307.129093100084,307.94659149996005,307.129093100084,307.94659149996005,307.129093100084,307.94659149996005,307.129093100084,307.94659149996005,307.129093100084,307.94659149996005,307.9132354001049,308.41434099990875,307.9132354001049,308.41434099990875,307.9132354001049,308.41434099990875,307.9132354001049,308.41434099990875,307.9132354001049,308.41434099990875,307.9132354001049,308.41434099990875,307.9132354001049,308.41434099990875,307.9132354001049,308.41434099990875,307.129093100084,None,308.41434099990875,310.1165622000117,0.8100000000000005,310.1331629999913,None,310.884592999937,None,,,,,,,[[1.69]],3.0900000000000025,0.6888888888888889,11027,001,2024_Jan_10_1052,MFTM_A_new1021,2021.2.3,59.820168563097674,
,,,,,,,,stim/Instruction_adaptive.png,conditions/adaptive.xlsx,test,-0.6,-0.6,-0.6,0.6,0.6,left,L,,,,,0,1,1,1,0,45,45,15,,,,,,,,,,,,,,,,,,,,,,,,,,,,,,,,,,,,,,,,,,,,311.38585010007955,None,left,1,2.0338435999583453,311.8858547001146,313.15494120004587,311.8858547001146,312.65355270006694,311.8858547001146,312.65355270006694,311.8858547001146,312.65355270006694,311.8858547001146,312.65355270006694,311.8858547001146,312.65355270006694,312.6386533000041,313.1383475000039,312.6386533000041,313.1383475000039,312.6386533000041,313.1383475000039,312.6386533000041,313.1383475000039,312.6386533000041,313.1383475000039,312.6386533000041,313.1383475000039,312.6386533000041,313.1383475000039,312.6386533000041,313.1383475000039,311.8858547001146,None,313.1383475000039,314.87427340005524,0.7700000000000005,314.8903864999302,None,315.642453599954,None,,,,,,,[[1.73]],3.1600000000000024,0.6956521739130435,11027,001,2024_Jan_10_1052,MFTM_A_new1021,2021.2.3,59.820168563097674,
,,,,,,,,stim/Instruction_adaptive.png,conditions/adaptive.xlsx,test,0.6,0.6,0.6,-0.6,-0.6,right,R,,,,,0,1,1,1,0,46,46,52,,,,,,,,,,,,,,,,,,,,,,,,,,,,,,,,,,,,,,,,,,,,316.1439958999399,None,right,1,1.9170014997944236,316.64296400011517,317.8946599001065,316.64296400011517,317.3942170001101,316.64296400011517,317.3942170001101,316.64296400011517,317.3942170001101,316.64296400011517,317.3942170001101,316.64296400011517,317.3942170001101,317.3606960999314,317.86136629991233,317.3606960999314,317.86136629991233,317.3606960999314,317.86136629991233,317.3606960999314,317.86136629991233,317.3606960999314,317.86136629991233,317.3606960999314,317.86136629991233,317.3606960999314,317.86136629991233,317.3606960999314,317.86136629991233,316.64296400011517,None,317.86136629991233,319.6309235000517,0.7400000000000004,319.6471277999226,None,320.39877970004454,None,,,,,,,[[1.76]],3.2100000000000026,0.7021276595744681,11027,001,2024_Jan_10_1052,MFTM_A_new1021,2021.2.3,59.820168563097674,
,,,,,,,,stim/Instruction_adaptive.png,conditions/adaptive.xlsx,test,-0.6,-0.6,-0.6,0.6,0.6,left,L,,,,,0,1,1,1,0,47,47,43,,,,,,,,,,,,,,,,,,,,,,,,,,,,,,,,,,,,,,,,,,,,320.8997935000807,None,left,1,1.8630430998746306,321.40066500008106,322.618445900036,321.40066500008106,322.1180843000766,321.40066500008106,322.1180843000766,321.40066500008106,322.1180843000766,321.40066500008106,322.1180843000766,321.40066500008106,322.1180843000766,322.0841947000008,322.58494310011156,322.0841947000008,322.58494310011156,322.0841947000008,322.58494310011156,322.0841947000008,322.58494310011156,322.0841947000008,322.58494310011156,322.0841947000008,322.58494310011156,322.0841947000008,322.58494310011156,322.0841947000008,322.58494310011156,321.40066500008106,None,322.58494310011156,324.3880227000918,0.7100000000000004,324.40434150001965,None,325.1552907999139,None,,,,,,,[[1.79]],3.2700000000000022,0.7083333333333334,11027,001,2024_Jan_10_1052,MFTM_A_new1021,2021.2.3,59.820168563097674,
,,,,,,,,stim/Instruction_adaptive.png,conditions/adaptive.xlsx,test,0.6,0.6,0.6,-0.6,-0.6,right,R,,,,,0,1,1,1,0,48,48,24,,,,,,,,,,,,,,,,,,,,,,,,,,,,,,,,,,,,,,,,,,,,325.6571671999991,None,right,1,1.3542714999057353,326.15757089992985,327.34306009998545,326.15757089992985,326.8424653999973,326.15757089992985,326.8424653999973,326.15757089992985,326.8424653999973,326.15757089992985,326.8424653999973,326.15757089992985,326.8424653999973,326.8244892000221,327.3261967001017,326.8244892000221,327.3261967001017,326.8244892000221,327.3261967001017,326.8244892000221,327.3261967001017,326.8244892000221,327.3261967001017,326.8244892000221,327.3261967001017,326.8244892000221,327.3261967001017,326.8244892000221,327.3261967001017,326.15757089992985,None,327.3261967001017,None,0.6800000000000004,329.1621244000271,None,329.9125361999031,None,,,,,,,[[1.82]],3.3200000000000025,0.7142857142857143,11027,001,2024_Jan_10_1052,MFTM_A_new1021,2021.2.3,59.820168563097674,
,,,,,,,,stim/Instruction_adaptive.png,conditions/adaptive.xlsx,test,-0.6,-0.6,-0.6,0.6,0.6,left,L,,,,,0,1,1,1,0,49,49,21,,,,,,,,,,,,,,,,,,,,,,,,,,,,,,,,,,,,,,,,,,,,330.41327399993315,None,left,1,1.8935611001215875,330.91420100000687,332.08260730002075,330.91420100000687,331.5815379000269,330.91420100000687,331.5815379000269,330.91420100000687,331.5815379000269,330.91420100000687,331.5815379000269,330.91420100000687,331.5815379000269,331.5648934999481,332.0658130000811,331.5648934999481,332.0658130000811,331.5648934999481,332.0658130000811,331.5648934999481,332.0658130000811,331.5648934999481,332.0658130000811,331.5648934999481,332.0658130000811,331.5648934999481,332.0658130000811,331.5648934999481,332.0658130000811,330.91420100000687,None,332.04904090007767,333.90270449989475,0.6600000000000004,333.9184423999395,None,334.6702113999054,None,,,,,,,[[1.84]],3.3700000000000028,0.72,11027,001,2024_Jan_10_1052,MFTM_A_new1021,2021.2.3,59.820168563097674,
,,,,,,,,stim/Instruction_adaptive.png,conditions/adaptive.xlsx,test,-0.6,-0.6,-0.6,0.6,0.6,left,L,,,,,0,1,1,1,0,50,50,53,,,,,,,,,,,,,,,,,,,,,,,,,,,,,,,,,,,,,,,,,,,,335.1711440999061,None,left,1,1.2805476998910308,335.671069300035,336.82330249994993,335.671069300035,336.3218588999007,335.671069300035,336.3218588999007,335.671069300035,336.3218588999007,335.671069300035,336.3218588999007,335.671069300035,336.3218588999007,336.288566299947,336.7894347999245,336.288566299947,336.7894347999245,336.288566299947,336.7894347999245,336.288566299947,336.7894347999245,336.288566299947,336.7894347999245,336.288566299947,336.7894347999245,336.288566299947,336.7894347999245,336.288566299947,336.7894347999245,335.671069300035,None,336.7894347999245,338.6595002999529,0.6400000000000003,338.6756098999176,None,339.42712599993683,None,,,,,,,[[1.86]],3.410000000000003,0.7254901960784313,11027,001,2024_Jan_10_1052,MFTM_A_new1021,2021.2.3,59.820168563097674,
,,,,,,,,stim/Instruction_adaptive.png,conditions/adaptive.xlsx,test,0.6,0.6,0.6,-0.6,-0.6,right,R,,,,,0,1,1,1,0,51,51,6,,,,,,,,,,,,,,,,,,,,,,,,,,,,,,,,,,,,,,,,,,,,339.9275678000413,None,right,1,1.9880430998746306,340.42802889994346,341.56310610007495,340.42802889994346,341.06246810010634,340.42802889994346,341.06246810010634,340.42802889994346,341.06246810010634,340.42802889994346,341.06246810010634,340.42802889994346,341.06246810010634,341.0290588999633,341.5298138000071,341.0290588999633,341.5298138000071,341.0290588999633,341.5298138000071,341.0290588999633,341.5298138000071,341.0290588999633,341.5298138000071,341.0290588999633,341.5298138000071,341.0290588999633,341.5298138000071,341.0290588999633,341.5298138000071,340.42802889994346,None,341.5298138000071,343.40084720007144,0.6200000000000003,343.41553350002505,None,344.1678536001127,None,,,,,,,[1.86557692],3.4600000000000026,0.7307692307692307,11027,001,2024_Jan_10_1052,MFTM_A_new1021,2021.2.3,59.820168563097674,
,,,,,,,,stim/Instruction_adaptive.png,conditions/adaptive.xlsx,test,-0.6,-0.6,-0.6,0.6,0.6,left,L,,,,,0,1,1,1,0,52,52,11,,,,,,,,,,,,,,,,,,,,,,,,,,,,,,,,,,,,,,,,,,,,344.66809340007603,None,left,1,1.3431425001472235,345.1685194999445,346.27074349997565,345.1685194999445,345.7693465000484,345.1685194999445,345.7693465000484,345.1685194999445,345.7693465000484,345.1685194999445,345.7693465000484,345.1685194999445,345.7693465000484,345.753678600071,346.25338690006174,345.753678600071,346.25338690006174,345.753678600071,346.25338690006174,345.753678600071,346.25338690006174,345.753678600071,346.25338690006174,345.753678600071,346.25338690006174,345.753678600071,346.25338690006174,345.753678600071,346.25338690006174,345.1685194999445,None,346.25338690006174,348.1241532000713,0.6000000000000003,348.14022750011645,None,348.89096740004607,None,,,,,,,[1.86622642],3.5000000000000027,0.7358490566037735,11027,001,2024_Jan_10_1052,MFTM_A_new1021,2021.2.3,59.820168563097674,
,,,,,,,,stim/Instruction_adaptive.png,conditions/adaptive.xlsx,test,0.6,0.6,0.6,-0.6,-0.6,right,R,,,,,0,1,1,1,0,53,53,30,,,,,,,,,,,,,,,,,,,,,,,,,,,,,,,,,,,,,,,,,,,,349.3916746999603,None,right,1,1.2110756998881698,349.89252240001224,350.97744980012067,349.89252240001224,350.47724879998714,349.89252240001224,350.47724879998714,349.89252240001224,350.47724879998714,349.89252240001224,350.47724879998714,349.89252240001224,350.47724879998714,350.4598296000622,350.9609219999984,350.4598296000622,350.9609219999984,350.4598296000622,350.9609219999984,350.4598296000622,350.9609219999984,350.4598296000622,350.9609219999984,350.4598296000622,350.9609219999984,350.4598296000622,350.9609219999984,350.4598296000622,350.9609219999984,349.89252240001224,None,350.9609219999984,352.8297339999117,0.5800000000000003,352.84743329999037,None,353.597862200113,None,,,,,,,[1.86722222],3.5400000000000027,0.7407407407407407,11027,001,2024_Jan_10_1052,MFTM_A_new1021,2021.2.3,59.820168563097674,
,,,,,,,,stim/Instruction_adaptive.png,conditions/adaptive.xlsx,test,-0.6,-0.6,-0.6,0.6,0.6,left,L,,,,,0,1,1,1,0,54,54,51,,,,,,,,,,,,,,,,,,,,,,,,,,,,,,,,,,,,,,,,,,,,354.0986512999516,None,left,1,1.192400500178337,354.5991436999757,355.68432269990444,354.5991436999757,355.1835388999898,354.5991436999757,355.1835388999898,354.5991436999757,355.1835388999898,354.5991436999757,355.1835388999898,354.5991436999757,355.1835388999898,355.1506056000944,355.65102700004354,355.1506056000944,355.65102700004354,355.1506056000944,355.65102700004354,355.1506056000944,355.65102700004354,355.1506056000944,355.65102700004354,355.1506056000944,355.65102700004354,355.1506056000944,355.65102700004354,355.1506056000944,355.65102700004354,354.5991436999757,None,355.65102700004354,357.52040769997984,0.5700000000000003,357.53661620011553,None,358.2886038001161,None,,,,,,,[1.86836364],3.5800000000000027,0.7454545454545455,11027,001,2024_Jan_10_1052,MFTM_A_new1021,2021.2.3,59.820168563097674,
,,,,,,,,stim/Instruction_adaptive.png,conditions/adaptive.xlsx,test,0.6,0.6,0.6,-0.6,-0.6,right,R,,,,,0,1,1,1,0,55,55,84,,,,,,,,,,,,,,,,,,,,,,,,,,,,,,,,,,,,,,,,,,,,358.7892046999186,None,right,1,1.198893299791962,359.2892837000545,360.3408763001207,359.2892837000545,359.8410769999027,359.2892837000545,359.8410769999027,359.2892837000545,359.8410769999027,359.2892837000545,359.8410769999027,359.2892837000545,359.8410769999027,359.82343049999326,360.324701000005,359.82343049999326,360.324701000005,359.82343049999326,360.324701000005,359.82343049999326,360.324701000005,359.82343049999326,360.324701000005,359.82343049999326,360.324701000005,359.82343049999326,360.324701000005,359.82343049999326,360.324701000005,359.2892837000545,None,360.324701000005,362.19472169992514,0.5500000000000003,362.2113489001058,None,362.96287550008856,None,,,,,,,[1.86982143],3.610000000000003,0.75,11027,001,2024_Jan_10_1052,MFTM_A_new1021,2021.2.3,59.820168563097674,
,,,,,,,,stim/Instruction_adaptive.png,conditions/adaptive.xlsx,test,-0.6,-0.6,-0.6,0.6,0.6,left,L,,,,,0,1,1,1,0,56,56,99,,,,,,,,,,,,,,,,,,,,,,,,,,,,,,,,,,,,,,,,,,,,363.4635695000179,None,left,1,1.2207142999395728,363.9630189000163,365.015175400069,363.9630189000163,364.5137920998968,363.9630189000163,364.5137920998968,363.9630189000163,364.5137920998968,363.9630189000163,364.5137920998968,363.9630189000163,364.5137920998968,364.4802876999602,364.98141200002283,364.4802876999602,364.98141200002283,364.4802876999602,364.98141200002283,364.4802876999602,364.98141200002283,364.4802876999602,364.98141200002283,364.4802876999602,364.98141200002283,364.4802876999602,364.98141200002283,364.4802876999602,364.98141200002283,363.9630189000163,None,364.98141200002283,366.86785960011184,0.5400000000000003,366.88405549991876,None,367.6359208000358,None,,,,,,,[1.87140351],3.650000000000003,0.7543859649122807,11027,001,2024_Jan_10_1052,MFTM_A_new1021,2021.2.3,59.820168563097674,
,,,,,,,,stim/Instruction_adaptive.png,conditions/adaptive.xlsx,test,0.6,0.6,0.6,-0.6,-0.6,right,R,,,,,0,1,1,1,0,57,57,58,,,,,,,,,,,,,,,,,,,,,,,,,,,,,,,,,,,,,,,,,,,,368.1361589001026,None,right,1,1.2272061000112444,368.63653620006517,369.67172689992003,368.63653620006517,369.17065090010874,368.63653620006517,369.17065090010874,368.63653620006517,369.17065090010874,368.63653620006517,369.17065090010874,368.63653620006517,369.17065090010874,369.1373614000622,369.63854079996236,369.1373614000622,369.63854079996236,369.1373614000622,369.63854079996236,369.1373614000622,369.63854079996236,369.1373614000622,369.63854079996236,369.1373614000622,369.63854079996236,369.1373614000622,369.63854079996236,369.1373614000622,369.63854079996236,368.63653620006517,None,369.63854079996236,371.5250158000272,0.5200000000000002,371.54065999994054,None,372.2918628999032,None,,,,,,,[1.87327586],3.680000000000003,0.7586206896551724,11027,001,2024_Jan_10_1052,MFTM_A_new1021,2021.2.3,59.820168563097674,
,,,,,,,,stim/Instruction_adaptive.png,conditions/adaptive.xlsx,test,0.6,0.6,0.6,-0.6,-0.6,right,R,,,,,0,1,1,1,0,58,58,86,,,,,,,,,,,,,,,,,,,,,,,,,,,,,,,,,,,,,,,,,,,,372.7928395001218,None,right,1,1.9936991999857128,373.29400429991074,374.31239360012114,373.29400429991074,373.81098140007816,373.29400429991074,373.81098140007816,373.29400429991074,373.81098140007816,373.29400429991074,373.81098140007816,373.29400429991074,373.81098140007816,373.77859120001085,374.27827399992384,373.77859120001085,374.27827399992384,373.77859120001085,374.27827399992384,373.77859120001085,374.27827399992384,373.77859120001085,374.27827399992384,373.77859120001085,374.27827399992384,373.77859120001085,374.27827399992384,373.77859120001085,374.27827399992384,373.29400429991074,None,374.27827399992384,376.16502740001306,0.5100000000000002,376.1817010999657,None,376.93218540004455,None,,,,,,,[1.87525424],3.7100000000000026,0.7627118644067796,11027,001,2024_Jan_10_1052,MFTM_A_new1021,2021.2.3,59.820168563097674,
,,,,,,,,stim/Instruction_adaptive.png,conditions/adaptive.xlsx,test,-0.6,-0.6,-0.6,0.6,0.6,left,L,,,,,0,1,1,1,0,59,59,5,,,,,,,,,,,,,,,,,,,,,,,,,,,,,,,,,,,,,,,,,,,,377.4337059999816,None,left,1,1.0349231001455337,377.93416849989444,378.9353000000119,377.93416849989444,378.43507119989954,377.93416849989444,378.43507119989954,377.93416849989444,378.43507119989954,377.93416849989444,378.43507119989954,377.93416849989444,378.43507119989954,378.4178476999514,378.91856859996915,378.4178476999514,378.91856859996915,378.4178476999514,378.91856859996915,378.4178476999514,378.91856859996915,378.4178476999514,378.91856859996915,378.4178476999514,378.91856859996915,378.4178476999514,378.91856859996915,378.4178476999514,378.91856859996915,377.93416849989444,None,378.91856859996915,380.8046415001154,0.5000000000000002,380.8215294999536,None,381.5724275999237,None,,,,,,,[1.87733333],3.7500000000000027,0.7666666666666667,11027,001,2024_Jan_10_1052,MFTM_A_new1021,2021.2.3,59.820168563097674,
,,,,,,,,stim/Instruction_adaptive.png,conditions/adaptive.xlsx,test,-0.6,-0.6,-0.6,0.6,0.6,left,L,,,,,0,1,1,1,0,60,60,31,,,,,,,,,,,,,,,,,,,,,,,,,,,,,,,,,,,,,,,,,,,,382.07371650007553,None,right,0,0.5770302000455558,382.57477509998716,383.5756143000908,382.57477509998716,383.07542839995585,382.57477509998716,383.07542839995585,382.57477509998716,383.07542839995585,382.57477509998716,383.07542839995585,382.57477509998716,383.07542839995585,383.04130919999443,383.5420913998969,383.04130919999443,383.5420913998969,383.04130919999443,383.5420913998969,383.04130919999443,383.5420913998969,383.04130919999443,383.5420913998969,383.04130919999443,383.5420913998969,383.04130919999443,383.5420913998969,383.04130919999443,383.5420913998969,382.57477509998716,None,383.5420913998969,385.42825759993866,0.4900000000000002,385.44490100000985,None,386.19610149995424,None,,,,,,,[1.8795082],3.650000000000003,0.7540983606557377,11027,001,2024_Jan_10_1052,MFTM_A_new1021,2021.2.3,59.820168563097674,
,,,,,,,,stim/Instruction_adaptive.png,conditions/adaptive.xlsx,test,0.6,0.6,0.6,-0.6,-0.6,right,R,,,,,0,1,1,1,0,61,61,62,,,,,,,,,,,,,,,,,,,,,,,,,,,,,,,,,,,,,,,,,,,,386.6975855000783,None,left,0,1.6904450000729412,387.1973965000361,388.21634680009447,387.1973965000361,387.73237959994003,387.1973965000361,387.73237959994003,387.1973965000361,387.73237959994003,387.1973965000361,387.73237959994003,387.1973965000361,387.73237959994003,387.6981611000374,388.20003550010733,387.6981611000374,388.20003550010733,387.6981611000374,388.20003550010733,387.6981611000374,388.20003550010733,387.6981611000374,388.20003550010733,387.6981611000374,388.20003550010733,387.6981611000374,388.20003550010733,387.6981611000374,388.20003550010733,387.1973965000361,None,388.20003550010733,390.0855425000191,0.5200000000000002,390.1016007999424,None,390.8541773001198,None,,,,,,,[1.88112903],3.5600000000000027,0.7419354838709677,11027,001,2024_Jan_10_1052,MFTM_A_new1021,2021.2.3,59.820168563097674,
,,,,,,,,stim/Instruction_adaptive.png,conditions/adaptive.xlsx,test,0.6,0.6,0.6,-0.6,-0.6,right,R,,,,,0,1,1,1,0,62,62,64,,,,,,,,,,,,,,,,,,,,,,,,,,,,,,,,,,,,,,,,,,,,391.3540419000201,None,right,1,1.8405397001188248,391.85540420003235,392.92344300006516,391.85540420003235,392.42187640001066,391.85540420003235,392.42187640001066,391.85540420003235,392.42187640001066,391.85540420003235,392.42187640001066,391.85540420003235,392.42187640001066,392.40555680007674,392.9059707999695,392.40555680007674,392.9059707999695,392.40555680007674,392.9059707999695,392.40555680007674,392.9059707999695,392.40555680007674,392.9059707999695,392.40555680007674,392.9059707999695,392.40555680007674,392.9059707999695,392.40555680007674,392.9059707999695,391.85540420003235,None,392.9059707999695,394.7926986000966,0.5600000000000003,394.8087337000761,None,395.56025209999643,None,,,,,,,[1.88206349],3.5900000000000025,0.746031746031746,11027,001,2024_Jan_10_1052,MFTM_A_new1021,2021.2.3,59.820168563097674,
,,,,,,,,stim/Instruction_adaptive.png,conditions/adaptive.xlsx,test,0.6,0.6,0.6,-0.6,-0.6,right,R,,,,,0,1,1,1,0,63,63,36,,,,,,,,,,,,,,,,,,,,,,,,,,,,,,,,,,,,,,,,,,,,396.0610964000225,None,right,1,1.7742729000747204,396.5615228000097,397.6134367000777,396.5615228000097,397.1120794999879,396.5615228000097,397.1120794999879,396.5615228000097,397.1120794999879,396.5615228000097,397.1120794999879,396.5615228000097,397.1120794999879,397.09684400004335,397.59637550008483,397.09684400004335,397.59637550008483,397.09684400004335,397.59637550008483,397.09684400004335,397.59637550008483,397.09684400004335,397.59637550008483,397.09684400004335,397.59637550008483,397.09684400004335,397.59637550008483,397.09684400004335,397.59637550008483,396.5615228000097,None,397.59637550008483,399.48250939999707,0.5500000000000003,399.499608800048,None,400.25059959990904,None,,,,,,,[1.883125],3.6200000000000028,0.75,11027,001,2024_Jan_10_1052,MFTM_A_new1021,2021.2.3,59.820168563097674,
,,,,,,,,stim/Instruction_adaptive.png,conditions/adaptive.xlsx,test,0.6,0.6,0.6,-0.6,-0.6,right,R,,,,,0,1,1,1,0,64,64,56,,,,,,,,,,,,,,,,,,,,,,,,,,,,,,,,,,,,,,,,,,,,400.7512747000437,None,right,1,1.660413600038737,401.25130899995565,402.30391020001844,401.25130899995565,401.80225750012323,401.25130899995565,401.80225750012323,401.25130899995565,401.80225750012323,401.25130899995565,401.80225750012323,401.25130899995565,401.80225750012323,401.7694272999652,402.27044810005464,401.7694272999652,402.27044810005464,401.7694272999652,402.27044810005464,401.7694272999652,402.27044810005464,401.7694272999652,402.27044810005464,401.7694272999652,402.27044810005464,401.7694272999652,402.27044810005464,401.7694272999652,402.27044810005464,401.25130899995565,None,402.27044810005464,404.156292000087,0.5400000000000003,404.1891348999925,None,404.9407631000504,None,,,,,,,[1.88430769],3.660000000000003,0.7538461538461538,11027,001,2024_Jan_10_1052,MFTM_A_new1021,2021.2.3,59.820168563097674,
,,,,,,,,stim/Instruction_adaptive.png,conditions/adaptive.xlsx,test,-0.6,-0.6,-0.6,0.6,0.6,left,L,,,,,0,1,1,1,0,65,65,55,,,,,,,,,,,,,,,,,,,,,,,,,,,,,,,,,,,,,,,,,,,,405.44139840011485,None,left,1,1.4417958999983966,405.941913299961,406.9778617999982,405.941913299961,406.47634120006114,405.941913299961,406.47634120006114,405.941913299961,406.47634120006114,405.941913299961,406.47634120006114,405.941913299961,406.47634120006114,406.442682400113,406.94398689991795,406.442682400113,406.94398689991795,406.442682400113,406.94398689991795,406.442682400113,406.94398689991795,406.442682400113,406.94398689991795,406.442682400113,406.94398689991795,406.442682400113,406.94398689991795,406.442682400113,406.94398689991795,405.941913299961,None,406.94398689991795,408.82976750005037,0.5200000000000002,408.86325610009953,None,409.6145498000551,None,,,,,,,[1.88575758],3.690000000000003,0.7575757575757576,11027,001,2024_Jan_10_1052,MFTM_A_new1021,2021.2.3,59.820168563097674,
,,,,,,,,stim/Instruction_adaptive.png,conditions/adaptive.xlsx,test,0.6,0.6,0.6,-0.6,-0.6,right,R,,,,,0,1,1,1,0,66,66,38,,,,,,,,,,,,,,,,,,,,,,,,,,,,,,,,,,,,,,,,,,,,410.1147465999238,None,right,1,1.3363763999659568,410.61537340003997,411.63424700009637,410.61537340003997,411.1327710999176,410.61537340003997,411.1327710999176,410.61537340003997,411.1327710999176,410.61537340003997,411.1327710999176,410.61537340003997,411.1327710999176,411.1162403000053,411.61704139993526,411.1162403000053,411.61704139993526,411.1162403000053,411.61704139993526,411.1162403000053,411.61704139993526,411.1162403000053,411.61704139993526,411.1162403000053,411.61704139993526,411.1162403000053,411.61704139993526,411.1162403000053,411.61704139993526,410.61537340003997,None,411.6005836999975,413.486110100057,0.5100000000000002,413.5195464999415,None,414.2718032000121,None,,,,,,,[1.88731343],3.7100000000000026,0.7611940298507462,11027,001,2024_Jan_10_1052,MFTM_A_new1021,2021.2.3,59.820168563097674,
,,,,,,,,stim/Instruction_adaptive.png,conditions/adaptive.xlsx,test,-0.6,-0.6,-0.6,0.6,0.6,left,L,,,,,0,1,1,1,0,67,67,35,,,,,,,,,,,,,,,,,,,,,,,,,,,,,,,,,,,,,,,,,,,,414.7717577998992,None,left,1,1.2553870999254286,415.27259680000134,416.2745372999925,415.27259680000134,415.77398640010506,415.27259680000134,415.77398640010506,415.27259680000134,415.77398640010506,415.27259680000134,415.77398640010506,415.27259680000134,415.77398640010506,415.75708950008266,416.2572486998979,415.75708950008266,416.2572486998979,415.75708950008266,416.2572486998979,415.75708950008266,416.2572486998979,415.75708950008266,416.2572486998979,415.75708950008266,416.2572486998979,415.75708950008266,416.2572486998979,415.75708950008266,416.2572486998979,415.27259680000134,None,416.2572486998979,None,0.5000000000000002,418.1598867001012,None,418.91132690012455,None,,,,,,,[1.88897059],3.740000000000003,0.7647058823529411,11027,001,2024_Jan_10_1052,MFTM_A_new1021,2021.2.3,59.820168563097674,
,,,,,,,,stim/Instruction_adaptive.png,conditions/adaptive.xlsx,test,-0.6,-0.6,-0.6,0.6,0.6,left,L,,,,,0,1,1,1,0,68,68,49,,,,,,,,,,,,,,,,,,,,,,,,,,,,,,,,,,,,,,,,,,,,419.41209060000256,None,left,1,1.1431625001132488,419.912561400095,420.91406799992546,419.912561400095,420.41321350005455,419.912561400095,420.41321350005455,419.912561400095,420.41321350005455,419.912561400095,420.41321350005455,419.912561400095,420.41321350005455,420.3799117000308,420.881784300087,420.3799117000308,420.881784300087,420.3799117000308,420.881784300087,420.3799117000308,420.881784300087,420.3799117000308,420.881784300087,420.3799117000308,420.881784300087,420.3799117000308,420.881784300087,420.3799117000308,420.881784300087,419.912561400095,None,420.881784300087,422.78430130006745,0.4900000000000002,422.8004099999089,None,423.55127890012227,None,,,,,,,[1.89072464],3.770000000000003,0.7681159420289855,11027,001,2024_Jan_10_1052,MFTM_A_new1021,2021.2.3,59.820168563097674,
,,,,,,,,stim/Instruction_adaptive.png,conditions/adaptive.xlsx,test,0.6,0.6,0.6,-0.6,-0.6,right,R,,,,,0,1,1,1,0,69,69,60,,,,,,,,,,,,,,,,,,,,,,,,,,,,,,,,,,,,,,,,,,,,424.05223520006984,None,right,1,1.6233155000954866,424.552542099962,425.5374445000198,424.552542099962,425.0368482999038,424.552542099962,425.0368482999038,424.552542099962,425.0368482999038,424.552542099962,425.0368482999038,424.552542099962,425.0368482999038,425.0201701000333,425.52105810004286,425.0201701000333,425.52105810004286,425.0201701000333,425.52105810004286,425.0201701000333,425.52105810004286,425.0201701000333,425.52105810004286,425.0201701000333,425.52105810004286,425.0201701000333,425.52105810004286,425.0201701000333,425.52105810004286,424.552542099962,None,425.52105810004286,None,0.4800000000000002,427.42378480010666,None,428.17525570001453,None,,,,,,,[1.89257143],3.800000000000003,0.7714285714285715,11027,001,2024_Jan_10_1052,MFTM_A_new1021,2021.2.3,59.820168563097674,
,,,,,,,,stim/Instruction_adaptive.png,conditions/adaptive.xlsx,test,0.6,0.6,0.6,-0.6,-0.6,right,R,,,,,0,1,1,1,0,70,70,76,,,,,,,,,,,,,,,,,,,,,,,,,,,,,,,,,,,,,,,,,,,,428.67585300002247,None,right,1,1.2318095001392066,429.1763997999951,430.1618443999905,429.1763997999951,429.66102800006047,429.1763997999951,429.66102800006047,429.1763997999951,429.66102800006047,429.1763997999951,429.66102800006047,429.1763997999951,429.66102800006047,429.62703519989736,430.12844219990075,429.62703519989736,430.12844219990075,429.62703519989736,430.12844219990075,429.62703519989736,430.12844219990075,429.62703519989736,430.12844219990075,429.62703519989736,430.12844219990075,429.62703519989736,430.12844219990075,429.62703519989736,430.12844219990075,429.1763997999951,None,430.12844219990075,432.03057379997335,0.4700000000000002,432.0472681000829,None,432.7982824000064,None,,,,,,,[1.89450704],3.820000000000003,0.7746478873239436,11027,001,2024_Jan_10_1052,MFTM_A_new1021,2021.2.3,59.820168563097674,
,,,,,,,,stim/Instruction_adaptive.png,conditions/adaptive.xlsx,test,0.6,0.6,0.6,-0.6,-0.6,right,R,,,,,0,1,1,1,0,71,71,40,,,,,,,,,,,,,,,,,,,,,,,,,,,,,,,,,,,,,,,,,,,,433.2991440000478,None,right,1,1.169030699878931,433.7999249000568,434.7846462999005,433.7999249000568,434.2844005001243,433.7999249000568,434.2844005001243,433.7999249000568,434.2844005001243,433.7999249000568,434.2844005001243,433.7999249000568,434.2844005001243,434.25127739994787,434.75197990005836,434.25127739994787,434.75197990005836,434.25127739994787,434.75197990005836,434.25127739994787,434.75197990005836,434.25127739994787,434.75197990005836,434.25127739994787,434.75197990005836,434.25127739994787,434.75197990005836,434.25127739994787,434.75197990005836,433.7999249000568,None,434.75197990005836,436.65487940004095,0.4700000000000002,436.67070550005883,None,437.4225775001105,None,,,,,,,[1.89638889],3.850000000000003,0.7777777777777778,11027,001,2024_Jan_10_1052,MFTM_A_new1021,2021.2.3,59.820168563097674,
,,,,,,,,stim/Instruction_adaptive.png,conditions/adaptive.xlsx,test,-0.6,-0.6,-0.6,0.6,0.6,left,L,,,,,0,1,1,1,0,72,72,33,,,,,,,,,,,,,,,,,,,,,,,,,,,,,,,,,,,,,,,,,,,,437.922477300046,None,right,0,1.1365053998306394,438.4233055000659,439.39152600010857,438.4233055000659,438.8916575999465,438.4233055000659,438.8916575999465,438.4233055000659,438.8916575999465,438.4233055000659,438.8916575999465,438.4233055000659,438.8916575999465,438.8570960999932,439.35812840005383,438.8570960999932,439.35812840005383,438.8570960999932,439.35812840005383,438.8570960999932,439.35812840005383,438.8570960999932,439.35812840005383,438.8570960999932,439.35812840005383,438.8570960999932,439.35812840005383,438.8570960999932,439.35812840005383,438.4233055000659,None,439.35812840005383,441.2606897999067,0.4600000000000002,441.29427110007964,None,442.0457017000299,None,,,,,,,[1.89835616],3.770000000000003,0.7671232876712328,11027,001,2024_Jan_10_1052,MFTM_A_new1021,2021.2.3,59.820168563097674,
,,,,,,,,stim/Instruction_adaptive.png,conditions/adaptive.xlsx,test,-0.6,-0.6,-0.6,0.6,0.6,left,L,,,,,0,1,1,1,0,73,73,89,,,,,,,,,,,,,,,,,,,,,,,,,,,,,,,,,,,,,,,,,,,,442.54597710003145,None,right,0,1.3768835999071598,443.04691889998503,444.03144600009546,443.04691889998503,443.5316914001014,443.04691889998503,443.5316914001014,443.04691889998503,443.5316914001014,443.04691889998503,443.5316914001014,443.04691889998503,443.5316914001014,443.51419329992495,444.015153599903,443.51419329992495,444.015153599903,443.51419329992495,444.015153599903,443.51419329992495,444.015153599903,443.51419329992495,444.015153599903,443.51419329992495,444.015153599903,443.51419329992495,444.015153599903,443.51419329992495,444.015153599903,443.04691889998503,None,444.015153599903,445.9177874000743,0.4800000000000002,445.93463920010254,None,446.68569940002635,None,,,,,,,[1.9],3.700000000000003,0.7567567567567568,11027,001,2024_Jan_10_1052,MFTM_A_new1021,2021.2.3,59.820168563097674,
,,,,,,,,stim/Instruction_adaptive.png,conditions/adaptive.xlsx,test,0.6,0.6,0.6,-0.6,-0.6,right,R,,,,,0,1,1,1,0,74,74,10,,,,,,,,,,,,,,,,,,,,,,,,,,,,,,,,,,,,,,,,,,,,447.1866488000378,None,right,1,2.264000399969518,447.6883531999774,448.7055218000896,447.6883531999774,448.2042847000994,447.6883531999774,448.2042847000994,447.6883531999774,448.2042847000994,447.6883531999774,448.2042847000994,447.6883531999774,448.2042847000994,448.17140200012363,448.67216850002296,448.17140200012363,448.67216850002296,448.17140200012363,448.67216850002296,448.17140200012363,448.67216850002296,448.17140200012363,448.67216850002296,448.17140200012363,448.67216850002296,448.17140200012363,448.67216850002296,448.17140200012363,448.67216850002296,447.6883531999774,None,448.67216850002296,450.57492929999717,0.5100000000000002,450.608009400079,None,451.3592376001179,None,,,,,,,[1.9012],3.720000000000003,0.76,11027,001,2024_Jan_10_1052,MFTM_A_new1021,2021.2.3,59.820168563097674,
,,,,,,,,stim/Instruction_adaptive.png,conditions/adaptive.xlsx,test,-0.6,-0.6,-0.6,0.6,0.6,left,L,,,,,0,1,1,1,0,75,75,17,,,,,,,,,,,,,,,,,,,,,,,,,,,,,,,,,,,,,,,,,,,,451.8606912998948,None,left,1,1.3270165000576526,452.3607916000765,453.3620816001203,452.3607916000765,452.8614374999888,452.3607916000765,452.8614374999888,452.3607916000765,452.8614374999888,452.3607916000765,452.8614374999888,452.3607916000765,452.8614374999888,452.84478699998,453.3453009999357,452.84478699998,453.3453009999357,452.84478699998,453.3453009999357,452.84478699998,453.3453009999357,452.84478699998,453.3453009999357,452.84478699998,453.3453009999357,452.84478699998,453.3453009999357,452.84478699998,453.3453009999357,452.3607916000765,None,453.3453009999357,455.2488794999663,0.5000000000000002,455.26531650009565,None,456.0167690999806,None,,,,,,,[1.9025],3.7500000000000027,0.7631578947368421,11027,001,2024_Jan_10_1052,MFTM_A_new1021,2021.2.3,59.820168563097674,
,,,,,,,,stim/Instruction_adaptive.png,conditions/adaptive.xlsx,test,0.6,0.6,0.6,-0.6,-0.6,right,R,,,,,0,1,1,1,0,76,76,80,,,,,,,,,,,,,,,,,,,,,,,,,,,,,,,,,,,,,,,,,,,,456.51748559996486,None,right,1,1.4622695001307875,457.01754179992713,458.0196829000488,457.01754179992713,457.51865609991364,457.01754179992713,457.51865609991364,457.01754179992713,457.51865609991364,457.01754179992713,457.51865609991364,457.01754179992713,457.51865609991364,457.4852821000386,457.98556139995344,457.4852821000386,457.98556139995344,457.4852821000386,457.98556139995344,457.4852821000386,457.98556139995344,457.4852821000386,457.98556139995344,457.4852821000386,457.98556139995344,457.4852821000386,457.98556139995344,457.4852821000386,457.98556139995344,457.01754179992713,None,457.98556139995344,459.888914299896,0.4900000000000002,459.92200209992006,None,460.6728374999948,None,,,,,,,[1.9038961],3.770000000000003,0.7662337662337663,11027,001,2024_Jan_10_1052,MFTM_A_new1021,2021.2.3,59.820168563097674,
,,,,,,,,stim/Instruction_adaptive.png,conditions/adaptive.xlsx,test,-0.6,-0.6,-0.6,0.6,0.6,left,L,,,,,0,1,1,1,0,77,77,29,,,,,,,,,,,,,,,,,,,,,,,,,,,,,,,,,,,,,,,,,,,,461.1751989000477,None,left,1,1.101332699880004,461.6746426001191,462.659771699924,461.6746426001191,462.15832070005126,461.6746426001191,462.15832070005126,461.6746426001191,462.15832070005126,461.6746426001191,462.15832070005126,461.6746426001191,462.15832070005126,462.1417288999073,462.64385170000605,462.1417288999073,462.64385170000605,462.1417288999073,462.64385170000605,462.1417288999073,462.64385170000605,462.1417288999073,462.64385170000605,462.1417288999073,462.64385170000605,462.1417288999073,462.64385170000605,462.1417288999073,462.64385170000605,461.6746426001191,None,462.64385170000605,None,0.4800000000000002,464.5619870000519,None,465.3138325999025,None,,,,,,,[1.90538462],3.800000000000003,0.7692307692307693,11027,001,2024_Jan_10_1052,MFTM_A_new1021,2021.2.3,59.820168563097674,
,,,,,,,,stim/Instruction_adaptive.png,conditions/adaptive.xlsx,test,0.6,0.6,0.6,-0.6,-0.6,right,R,,,,,0,1,1,1,0,78,78,44,,,,,,,,,,,,,,,,,,,,,,,,,,,,,,,,,,,,,,,,,,,,465.8138619000092,None,right,1,1.1655057000461966,466.31471560010687,467.30071619991213,466.31471560010687,466.79887460009195,466.31471560010687,466.79887460009195,466.31471560010687,466.79887460009195,466.31471560010687,466.79887460009195,466.31471560010687,466.79887460009195,466.76533260010183,467.26613119989634,466.76533260010183,467.26613119989634,466.76533260010183,467.26613119989634,466.76533260010183,467.26613119989634,466.76533260010183,467.26613119989634,466.76533260010183,467.26613119989634,466.76533260010183,467.26613119989634,466.76533260010183,467.26613119989634,466.31471560010687,None,467.26613119989634,469.18563259998336,0.4700000000000002,469.20211789989844,None,469.95340050011873,None,,,,,,,[1.90696203],3.820000000000003,0.7721518987341772,11027,001,2024_Jan_10_1052,MFTM_A_new1021,2021.2.3,59.820168563097674,
,,,,,,,,stim/Instruction_adaptive.png,conditions/adaptive.xlsx,test,0.6,0.6,0.6,-0.6,-0.6,right,R,,,,,0,1,1,1,0,79,79,98,,,,,,,,,,,,,,,,,,,,,,,,,,,,,,,,,,,,,,,,,,,,470.4540943999309,None,right,1,1.2212479999288917,470.9547896999866,471.93977900012396,470.9547896999866,471.43911950010806,470.9547896999866,471.43911950010806,470.9547896999866,471.43911950010806,470.9547896999866,471.43911950010806,470.9547896999866,471.43911950010806,471.4058379000053,471.9069600000512,471.4058379000053,471.9069600000512,471.4058379000053,471.9069600000512,471.4058379000053,471.9069600000512,471.4058379000053,471.9069600000512,471.4058379000053,471.9069600000512,471.4058379000053,471.9069600000512,471.4058379000053,471.9069600000512,470.9547896999866,None,471.9069600000512,473.82579170004465,0.4700000000000002,473.84348420007154,None,474.5937902000733,None,,,,,,,[1.9085],3.840000000000003,0.775,11027,001,2024_Jan_10_1052,MFTM_A_new1021,2021.2.3,59.820168563097674,
,,,,,,,,stim/Instruction_adaptive.png,conditions/adaptive.xlsx,test,-0.6,-0.6,-0.6,0.6,0.6,left,L,,,,,0,1,1,1,0,80,80,61,,,,,,,,,,,,,,,,,,,,,,,,,,,,,,,,,,,,,,,,,,,,475.0951954999473,None,right,0,1.3167010000906885,475.59528309991583,476.5634822999127,475.59528309991583,476.0627635999117,475.59528309991583,476.0627635999117,475.59528309991583,476.0627635999117,475.59528309991583,476.0627635999117,475.59528309991583,476.0627635999117,476.04617070010863,476.54689020011574,476.04617070010863,476.54689020011574,476.04617070010863,476.54689020011574,476.04617070010863,476.54689020011574,476.04617070010863,476.54689020011574,476.04617070010863,476.54689020011574,476.04617070010863,476.54689020011574,476.04617070010863,476.54689020011574,475.59528309991583,None,476.52982709999196,478.4493859000504,0.4600000000000002,478.4660475999117,None,479.2169443999883,None,,,,,,,[1.91012346],3.780000000000003,0.7654320987654321,11027,001,2024_Jan_10_1052,MFTM_A_new1021,2021.2.3,59.820168563097674,
,,,,,,,,stim/Instruction_adaptive.png,conditions/adaptive.xlsx,test,0.6,0.6,0.6,-0.6,-0.6,right,R,,,,,0,1,1,1,0,81,81,16,,,,,,,,,,,,,,,,,,,,,,,,,,,,,,,,,,,,,,,,,,,,479.7179572999012,None,right,1,1.8533352001104504,480.2186966999434,481.2034694000613,480.2186966999434,480.7033420999069,480.2186966999434,480.7033420999069,480.2186966999434,480.7033420999069,480.2186966999434,480.7033420999069,480.2186966999434,480.7033420999069,480.6859120998997,481.1867637000978,480.6859120998997,481.1867637000978,480.6859120998997,481.1867637000978,480.6859120998997,481.1867637000978,480.6859120998997,481.1867637000978,480.6859120998997,481.1867637000978,480.6859120998997,481.1867637000978,480.6859120998997,481.1867637000978,480.2186966999434,None,481.1867637000978,483.1062996999826,0.4800000000000002,483.12284930003807,None,483.87402909994125,None,,,,,,,[1.91146341],3.800000000000003,0.7682926829268293,11027,001,2024_Jan_10_1052,MFTM_A_new1021,2021.2.3,59.820168563097674,
,,,,,,,,stim/Instruction_adaptive.png,conditions/adaptive.xlsx,test,-0.6,-0.6,-0.6,0.6,0.6,left,L,,,,,0,1,1,1,0,82,82,41,,,,,,,,,,,,,,,,,,,,,,,,,,,,,,,,,,,,,,,,,,,,484.374883600045,None,right,0,1.5720695001073182,484.8758547999896,485.8609410999343,484.8758547999896,485.3601166999433,484.8758547999896,485.3601166999433,484.8758547999896,485.3601166999433,484.8758547999896,485.3601166999433,484.8758547999896,485.3601166999433,485.3267618000973,485.82767760008574,485.3267618000973,485.82767760008574,485.3267618000973,485.82767760008574,485.3267618000973,485.82767760008574,485.3267618000973,485.82767760008574,485.3267618000973,485.82767760008574,485.3267618000973,485.82767760008574,485.3267618000973,485.82767760008574,484.8758547999896,None,485.82767760008574,487.7467750001233,0.4700000000000002,487.7638034999836,None,488.51509010000154,None,,,,,,,[1.91289157],3.730000000000003,0.7590361445783133,11027,001,2024_Jan_10_1052,MFTM_A_new1021,2021.2.3,59.820168563097674,
,,,,,,,,stim/Instruction_adaptive.png,conditions/adaptive.xlsx,test,-0.6,-0.6,-0.6,0.6,0.6,left,L,,,,,0,1,1,1,0,83,83,91,,,,,,,,,,,,,,,,,,,,,,,,,,,,,,,,,,,,,,,,,,,,489.01503879996017,None,left,1,1.2276844000443816,489.51618120004423,490.5177355001215,489.51618120004423,490.0169112998992,489.51618120004423,490.0169112998992,489.51618120004423,490.0169112998992,489.51618120004423,490.0169112998992,489.51618120004423,490.0169112998992,489.99995870003477,490.5010796999559,489.99995870003477,490.5010796999559,489.99995870003477,490.5010796999559,489.99995870003477,490.5010796999559,489.99995870003477,490.5010796999559,489.99995870003477,490.5010796999559,489.99995870003477,490.5010796999559,489.99995870003477,490.5010796999559,489.51618120004423,None,490.5010796999559,492.4209346999414,0.5000000000000002,492.4365759000648,None,493.1877854000777,None,,,,,,,[1.91392857],3.7500000000000027,0.7619047619047619,11027,001,2024_Jan_10_1052,MFTM_A_new1021,2021.2.3,59.820168563097674,
,,,,,,,,stim/Instruction_adaptive.png,conditions/adaptive.xlsx,test,0.6,0.6,0.6,-0.6,-0.6,right,R,,,,,0,1,1,1,0,84,84,88,,,,,,,,,,,,,,,,,,,,,,,,,,,,,,,,,,,,,,,,,,,,493.689261399908,None,right,1,2.018822999903932,494.1897366999183,495.19265530002303,494.1897366999183,494.68994019995444,494.1897366999183,494.68994019995444,494.1897366999183,494.68994019995444,494.1897366999183,494.68994019995444,494.1897366999183,494.68994019995444,494.6576878000051,495.15826410008594,494.6576878000051,495.15826410008594,494.6576878000051,495.15826410008594,494.6576878000051,495.15826410008594,494.6576878000051,495.15826410008594,494.6576878000051,495.15826410008594,494.6576878000051,495.15826410008594,494.6576878000051,495.15826410008594,494.1897366999183,None,495.15826410008594,497.07824439997785,0.4900000000000002,497.0935396000277,None,497.8464814000763,None,,,,,,,[1.91505882],3.780000000000003,0.7647058823529411,11027,001,2024_Jan_10_1052,MFTM_A_new1021,2021.2.3,59.820168563097674,
,,,,,,,,stim/Instruction_adaptive.png,conditions/adaptive.xlsx,test,0.6,0.6,0.6,-0.6,-0.6,right,R,,,,,0,1,1,1,0,85,85,8,,,,,,,,,,,,,,,,,,,,,,,,,,,,,,,,,,,,,,,,,,,,498.3467707999516,None,left,0,1.1778995001222938,498.84592749993317,499.83138670003973,498.84592749993317,499.33027080004103,498.84592749993317,499.33027080004103,498.84592749993317,499.33027080004103,498.84592749993317,499.33027080004103,498.84592749993317,499.33027080004103,499.3136078999378,499.81441110000014,499.3136078999378,499.81441110000014,499.3136078999378,499.81441110000014,499.3136078999378,499.81441110000014,499.3136078999378,499.81441110000014,499.3136078999378,499.81441110000014,499.3136078999378,499.81441110000014,499.3136078999378,499.81441110000014,498.84592749993317,None,499.81441110000014,501.7346592999529,0.4800000000000002,501.75052300002426,None,502.5014138999395,None,,,,,,,[1.91627907],3.7100000000000026,0.7558139534883721,11027,001,2024_Jan_10_1052,MFTM_A_new1021,2021.2.3,59.820168563097674,
,,,,,,,,stim/Instruction_adaptive.png,conditions/adaptive.xlsx,test,-0.6,-0.6,-0.6,0.6,0.6,left,L,,,,,0,1,1,1,0,86,86,71,,,,,,,,,,,,,,,,,,,,,,,,,,,,,,,,,,,,,,,,,,,,503.0024329998996,None,left,1,1.7444490999914706,503.5033829000313,504.5052146001253,503.5033829000313,504.0040527000092,503.5033829000313,504.0040527000092,503.5033829000313,504.0040527000092,503.5033829000313,504.0040527000092,503.5033829000313,504.0040527000092,503.9880594999995,504.4882062000688,503.9880594999995,504.4882062000688,503.9880594999995,504.4882062000688,503.9880594999995,504.4882062000688,503.9880594999995,504.4882062000688,503.9880594999995,504.4882062000688,503.9880594999995,504.4882062000688,503.9880594999995,504.4882062000688,503.5033829000313,None,504.4882062000688,506.40746170002967,0.5000000000000002,506.42423010012135,None,507.1751785001252,None,,,,,,,[1.91724138],3.730000000000003,0.7586206896551724,11027,001,2024_Jan_10_1052,MFTM_A_new1021,2021.2.3,59.820168563097674,
,,,,,,,,stim/Instruction_adaptive.png,conditions/adaptive.xlsx,test,-0.6,-0.6,-0.6,0.6,0.6,left,L,,,,,0,1,1,1,0,87,87,79,,,,,,,,,,,,,,,,,,,,,,,,,,,,,,,,,,,,,,,,,,,,507.67722250008956,None,left,1,1.3431210999842733,508.1768020000309,509.17875030008145,508.1768020000309,508.67747829994187,508.1768020000309,508.67747829994187,508.1768020000309,508.67747829994187,508.1768020000309,508.67747829994187,508.1768020000309,508.67747829994187,508.6607574999798,509.1621999000199,508.6607574999798,509.1621999000199,508.6607574999798,509.1621999000199,508.6607574999798,509.1621999000199,508.6607574999798,509.1621999000199,508.6607574999798,509.1621999000199,508.6607574999798,509.1621999000199,508.6607574999798,509.1621999000199,508.1768020000309,None,509.1621999000199,511.08105310006067,0.5000000000000002,511.0977245999966,None,511.8488791999407,None,,,,,,,[1.91818182],3.760000000000003,0.7613636363636364,11027,001,2024_Jan_10_1052,MFTM_A_new1021,2021.2.3,59.820168563097674,
,,,,,,,,stim/Instruction_adaptive.png,conditions/adaptive.xlsx,test,-0.6,-0.6,-0.6,0.6,0.6,left,L,,,,,0,1,1,1,0,88,88,77,,,,,,,,,,,,,,,,,,,,,,,,,,,,,,,,,,,,,,,,,,,,512.349995699944,None,left,1,2.2054532999172807,512.8504053999204,513.8534385999665,512.8504053999204,513.3515602999832,512.8504053999204,513.3515602999832,512.8504053999204,513.3515602999832,512.8504053999204,513.3515602999832,512.8504053999204,513.3515602999832,513.3184760999866,513.8188453000039,513.3184760999866,513.8188453000039,513.3184760999866,513.8188453000039,513.3184760999866,513.8188453000039,513.3184760999866,513.8188453000039,513.3184760999866,513.8188453000039,513.3184760999866,513.8188453000039,513.3184760999866,513.8188453000039,512.8504053999204,None,513.8188453000039,515.7389728999697,0.4900000000000002,515.7713327000383,None,516.522298600059,None,,,,,,,[1.91921348],3.780000000000003,0.7640449438202247,11027,001,2024_Jan_10_1052,MFTM_A_new1021,2021.2.3,59.820168563097674,
,,,,,,,,stim/Instruction_adaptive.png,conditions/adaptive.xlsx,test,-0.6,-0.6,-0.6,0.6,0.6,left,L,,,,,0,1,1,1,0,89,89,25,,,,,,,,,,,,,,,,,,,,,,,,,,,,,,,,,,,,,,,,,,,,517.0239220999647,None,None,0,0,517.5238940999843,518.5089569999836,517.5238940999843,518.0081011001021,517.5238940999843,518.0081011001021,517.5238940999843,518.0081011001021,517.5238940999843,518.0081011001021,517.5238940999843,518.0081011001021,517.9913457999937,518.4927274000365,517.9913457999937,518.4927274000365,517.9913457999937,518.4927274000365,517.9913457999937,518.4927274000365,517.9913457999937,518.4927274000365,517.9913457999937,518.4927274000365,517.9913457999937,518.4927274000365,517.9913457999937,518.4927274000365,517.5238940999843,None,518.4751299999189,520.9966158000752,0.4800000000000002,521.0284134999383,None,521.7807430999819,None,,,,,,,[[2.52]],3.7100000000000026,0.7555555555555555,11027,001,2024_Jan_10_1052,MFTM_A_new1021,2021.2.3,59.820168563097674,
,,,,,,,,stim/Instruction_adaptive.png,conditions/adaptive.xlsx,test,-0.6,-0.6,-0.6,0.6,0.6,left,L,,,,,0,1,1,1,0,90,90,75,,,,,,,,,,,,,,,,,,,,,,,,,,,,,,,,,,,,,,,,,,,,522.2816399000585,None,left,1,1.2979931998997927,522.7822809999343,523.7839613000397,522.7822809999343,523.2835818999447,522.7822809999343,523.2835818999447,522.7822809999343,523.2835818999447,522.7822809999343,523.2835818999447,522.7822809999343,523.2835818999447,523.2656111000106,523.7668649998959,523.2656111000106,523.7668649998959,523.2656111000106,523.7668649998959,523.2656111000106,523.7668649998959,523.2656111000106,523.7668649998959,523.2656111000106,523.7668649998959,523.2656111000106,523.7668649998959,523.2656111000106,523.7668649998959,522.7822809999343,None,523.7668649998959,525.6861849999987,0.5000000000000002,525.7025705999695,None,526.4543645000085,None,,,,,,,[1.92120879],3.740000000000003,0.7582417582417582,11027,001,2024_Jan_10_1052,MFTM_A_new1021,2021.2.3,59.820168563097674,
,,,,,,,,stim/Instruction_adaptive.png,conditions/adaptive.xlsx,test,0.6,0.6,0.6,-0.6,-0.6,right,R,,,,,0,1,1,1,0,91,91,72,,,,,,,,,,,,,,,,,,,,,,,,,,,,,,,,,,,,,,,,,,,,526.955801700009,None,right,1,1.5367163000628352,527.455395200057,528.4590541999787,527.455395200057,527.9562099999748,527.455395200057,527.9562099999748,527.455395200057,527.9562099999748,527.455395200057,527.9562099999748,527.455395200057,527.9562099999748,527.9234672000166,528.4237259000074,527.9234672000166,528.4237259000074,527.9234672000166,528.4237259000074,527.9234672000166,528.4237259000074,527.9234672000166,528.4237259000074,527.9234672000166,528.4237259000074,527.9234672000166,528.4237259000074,527.9234672000166,528.4237259000074,527.455395200057,None,528.4237259000074,530.3601075999904,0.4900000000000002,530.376446200069,None,531.128048799932,None,,,,,,,[1.92217391],3.760000000000003,0.7608695652173914,11027,001,2024_Jan_10_1052,MFTM_A_new1021,2021.2.3,59.820168563097674,
,,,,,,,,stim/Instruction_adaptive.png,conditions/adaptive.xlsx,test,0.6,0.6,0.6,-0.6,-0.6,right,R,,,,,0,1,1,1,0,92,92,54,,,,,,,,,,,,,,,,,,,,,,,,,,,,,,,,,,,,,,,,,,,,531.628861800069,None,right,1,1.8393310999963433,532.1288407999091,533.1308919999283,532.1288407999091,532.6298303999938,532.1288407999091,532.6298303999938,532.1288407999091,532.6298303999938,532.1288407999091,532.6298303999938,532.1288407999091,532.6298303999938,532.5961317000911,533.0982695999555,532.5961317000911,533.0982695999555,532.5961317000911,533.0982695999555,532.5961317000911,533.0982695999555,532.5961317000911,533.0982695999555,532.5961317000911,533.0982695999555,532.5961317000911,533.0982695999555,532.5961317000911,533.0982695999555,532.1288407999091,None,533.0982695999555,535.0335498999339,0.4900000000000002,535.049801300047,None,535.8017152999528,None,,,,,,,[1.92311828],3.780000000000003,0.7634408602150538,11027,001,2024_Jan_10_1052,MFTM_A_new1021,2021.2.3,59.820168563097674,
