arrwidth1,arrwidth2,arrwidth3,arrwidth4,arrwidth5,keyb,type,orientation,instruction_image,block_filename,block_type,arrow11,arrow22,arrow33,arrow44,arrow55,keyb_3,orientation3,trials.thisRepN,trials.thisTrialN,trials.thisN,trials.thisIndex,trials_3.thisRepN,trials_3.thisTrialN,trials_3.thisN,trials_3.thisIndex,trials_2.thisRepN,trials_2.thisTrialN,trials_2.thisN,trials_2.thisIndex,welcome.started,welcome.stopped,key_resp.keys,key_resp.rt,key_resp.started,key_resp.stopped,instruction_example.started,instruction_example.stopped,key_resp_3.keys,key_resp_3.rt,key_resp_3.started,key_resp_3.stopped,instruction_task.started,instruction_task.stopped,key_resp_2.keys,key_resp_2.rt,key_resp_2.started,key_resp_2.stopped,text_2.started,text_2.stopped,A1.started,A1.stopped,A2.started,A2.stopped,A3.started,A3.stopped,A4.started,A4.stopped,A5.started,A5.stopped,key_resp_4.keys,key_resp_4.corr,key_resp_4.rt,key_resp_4.started,key_resp_4.stopped,fb.started,fb.stopped,instruction_block.started,instruction_block.stopped,key_resp_8.keys,key_resp_8.rt,key_resp_8.started,key_resp_8.stopped,text_8.started,text_8.stopped,key_resp_9.keys,key_resp_9.corr,key_resp_9.rt,text_5.started,text_5.stopped,A11_3.started,A11_3.stopped,A22_2.started,A22_2.stopped,A33_2.started,A33_2.stopped,A44_2.started,A44_2.stopped,A55_2.started,A55_2.stopped,M1_3.started,M1_3.stopped,M2_2.started,M2_2.stopped,M3_2.started,M3_2.stopped,M4_2.started,M4_2.stopped,M5_2.started,M5_2.stopped,M6_2.started,M6_2.stopped,M7_2.started,M7_2.stopped,M8_2.started,M8_2.stopped,key_resp_9.started,key_resp_9.stopped,fixation.started,fixation.stopped,ET,fb_3.started,fb_3.stopped,text_9.started,text_9.stopped,fb_4.started,fb_4.stopped,text_7.started,text_7.stopped,endtext.started,endtext.stopped,fixation_ITI,CCC,Acc,participant,session,date,expName,psychopyVersion,frameRate,
,,,,,,,,,,,,,,,,,,,,,,,,,,,,,,10.851633100071922,None,space,15.003575199982151,10.851633100071922,None,,,,,,,,,,,,,,,,,,,,,,,,,,,,,,,,,,,,,,,,,,,,,,,,,,,,,,,,,,,,,,,,,,,,,,,,,,,,,,,,,,,,,,,,,11031,001,2024_Jan_11_1030,MFTM_A_new1021,2021.2.3,60.073121000186276,
,,,,,,,,,,,,,,,,,,,,,,,,,,,,,,,,,,,,25.87392730009742,None,right,6.693292599869892,25.87392730009742,None,,,,,,,,,,,,,,,,,,,,,,,,,,,,,,,,,,,,,,,,,,,,,,,,,,,,,,,,,,,,,,,,,,,,,,,,,,,,,,,,,,,11031,001,2024_Jan_11_1030,MFTM_A_new1021,2021.2.3,60.073121000186276,
,,,,,,,,,,,,,,,,,,,,,,,,,,,,,,,,,,,,,,,,,,32.58405219996348,None,space,9.311649000039324,32.58405219996348,None,,,,,,,,,,,,,,,,,,,,,,,,,,,,,,,,,,,,,,,,,,,,,,,,,,,,,,,,,,,,,,,,,,,,,,,,,,,,,11031,001,2024_Jan_11_1030,MFTM_A_new1021,2021.2.3,60.073121000186276,
-0.6,-0.6,-0.6,0.6,0.6,left,3:2,L,,,,,,,,,,,0,0,0,1,,,,,,,,,,,,,,,,,,,,,,,,,,,41.93179309996776,None,41.93179309996776,None,41.93179309996776,None,41.93179309996776,None,41.93179309996776,None,41.93179309996776,None,left,1,3.195882699918002,41.93179309996776,None,45.16928489995189,None,,,,,,,,,,,,,,,,,,,,,,,,,,,,,,,,,,,,,,,,,,,,,,,,,,,,,,,,,,11031,001,2024_Jan_11_1030,MFTM_A_new1021,2021.2.3,60.073121000186276,
0.6,0.6,0.6,-0.6,-0.6,right,3:2,R,,,,,,,,,,,0,1,1,0,,,,,,,,,,,,,,,,,,,,,,,,,,,45.92048249999061,None,45.92048249999061,None,45.92048249999061,None,45.92048249999061,None,45.92048249999061,None,45.92048249999061,None,right,1,1.590732900192961,45.92048249999061,None,47.539499799953774,None,,,,,,,,,,,,,,,,,,,,,,,,,,,,,,,,,,,,,,,,,,,,,,,,,,,,,,,,,,11031,001,2024_Jan_11_1030,MFTM_A_new1021,2021.2.3,60.073121000186276,
-0.6,-0.6,-0.6,0.6,0.6,left,3:2,L,,,,,,,,,,,1,0,2,1,,,,,,,,,,,,,,,,,,,,,,,,,,,48.29082220001146,None,48.29082220001146,None,48.29082220001146,None,48.29082220001146,None,48.29082220001146,None,48.29082220001146,None,left,1,4.773583199828863,48.29082220001146,None,53.08101409999654,None,,,,,,,,,,,,,,,,,,,,,,,,,,,,,,,,,,,,,,,,,,,,,,,,,,,,,,,,,,11031,001,2024_Jan_11_1030,MFTM_A_new1021,2021.2.3,60.073121000186276,
0.6,0.6,0.6,-0.6,-0.6,right,3:2,R,,,,,,,,,,,1,1,3,0,,,,,,,,,,,,,,,,,,,,,,,,,,,53.832961400039494,None,53.832961400039494,None,53.832961400039494,None,53.832961400039494,None,53.832961400039494,None,53.832961400039494,None,right,1,2.9344929999206215,53.832961400039494,None,56.786614099983126,None,,,,,,,,,,,,,,,,,,,,,,,,,,,,,,,,,,,,,,,,,,,,,,,,,,,,,,,,,,11031,001,2024_Jan_11_1030,MFTM_A_new1021,2021.2.3,60.073121000186276,
,,,,,,,,stim/Instruction_mask.png,conditions/adaptive.xlsx,practice,0.6,0.6,0.6,-0.6,-0.6,right,R,,,,,0,0,0,0,0,0,0,38,,,,,,,,,,,,,,,,,,,,,,,,,,,,,,,,,,,,,,57.78785470011644,None,space,49.163719799835235,57.78785470011644,None,107.06211240007542,None,left,0,3.344725700095296,107.49485450005159,None,107.49485450005159,110.49944559996948,107.49485450005159,110.49944559996948,107.49485450005159,110.49944559996948,107.49485450005159,110.49944559996948,107.49485450005159,110.49944559996948,110.48279749997891,110.98353260010481,110.48279749997891,110.98353260010481,110.48279749997891,110.98353260010481,110.48279749997891,110.98353260010481,110.48279749997891,110.98353260010481,110.48279749997891,110.98353260010481,110.48279749997891,110.98353260010481,110.48279749997891,110.98353260010481,107.49485450005159,None,110.98353260010481,110.98353260010481,3,111.00013169995509,None,111.75153080001473,None,,,,,,,,,,11031,001,2024_Jan_11_1030,MFTM_A_new1021,2021.2.3,60.073121000186276,
,,,,,,,,stim/Instruction_mask.png,conditions/adaptive.xlsx,practice,-0.6,-0.6,-0.6,0.6,0.6,left,L,,,,,0,0,0,0,0,1,1,29,,,,,,,,,,,,,,,,,,,,,,,,,,,,,,,,,,,,,,,,,,,,112.2520534999203,None,left,1,1.5829361998476088,112.75288169994019,114.75680759991519,112.75288169994019,114.25501439999789,112.75288169994019,114.25501439999789,112.75288169994019,114.25501439999789,112.75288169994019,114.25501439999789,112.75288169994019,114.25501439999789,114.23852570005693,114.73923270008527,114.23852570005693,114.73923270008527,114.23852570005693,114.73923270008527,114.23852570005693,114.73923270008527,114.23852570005693,114.73923270008527,114.23852570005693,114.73923270008527,114.23852570005693,114.73923270008527,114.23852570005693,114.73923270008527,112.75288169994019,None,114.73923270008527,116.24286270001903,1.5,116.25805700011551,None,117.00900590000674,None,,,,,,,,,,11031,001,2024_Jan_11_1030,MFTM_A_new1021,2021.2.3,60.073121000186276,
,,,,,,,,stim/Instruction_mask.png,conditions/adaptive.xlsx,practice,-0.6,-0.6,-0.6,0.6,0.6,left,L,,,,,0,0,0,0,0,2,2,35,,,,,,,,,,,,,,,,,,,,,,,,,,,,,,,,,,,,,,,,,,,,117.51022910000756,None,left,1,0.9886614000424743,118.01075119990855,119.31321060005575,118.01075119990855,118.81187450001016,118.01075119990855,118.81187450001016,118.01075119990855,118.81187450001016,118.01075119990855,118.81187450001016,118.01075119990855,118.81187450001016,118.79525760002434,119.295997899957,118.79525760002434,119.295997899957,118.79525760002434,119.295997899957,118.79525760002434,119.295997899957,118.79525760002434,119.295997899957,118.79525760002434,119.295997899957,118.79525760002434,119.295997899957,118.79525760002434,119.295997899957,118.01075119990855,None,119.295997899957,121.49983120011166,0.8,121.51587180001661,None,122.26758540002629,None,,,,,,,,,,11031,001,2024_Jan_11_1030,MFTM_A_new1021,2021.2.3,60.073121000186276,
,,,,,,,,stim/Instruction_mask.png,conditions/adaptive.xlsx,practice,-0.6,-0.6,-0.6,0.6,0.6,left,L,,,,,0,0,0,0,0,3,3,13,,,,,,,,,,,,,,,,,,,,,,,,,,,,,,,,,,,,,,,,,,,,122.76790790003724,None,right,0,0.9470718998927623,123.2684053000994,124.01983330002986,123.2684053000994,123.51893600006588,123.2684053000994,123.51893600006588,123.2684053000994,123.51893600006588,123.2684053000994,123.51893600006588,123.2684053000994,123.51893600006588,123.50215810001828,124.00391820003279,123.50215810001828,124.00391820003279,123.50215810001828,124.00391820003279,123.50215810001828,124.00391820003279,123.50215810001828,124.00391820003279,123.50215810001828,124.00391820003279,123.50215810001828,124.00391820003279,123.50215810001828,124.00391820003279,123.2684053000994,None,124.00391820003279,126.7569569000043,3,126.77355109993368,None,127.52461310010403,None,,,,,,,,,,11031,001,2024_Jan_11_1030,MFTM_A_new1021,2021.2.3,60.073121000186276,
,,,,,,,,stim/Instruction_mask.png,conditions/adaptive.xlsx,practice,,,,,,,,,,,,0,0,0,0,,,,,,,,,,,,,,,,,,,,,,,,,,,,,,,,,,,,,,,,,,,,,,,,,,,,,,,,,,,,,,,,,,,,,,,,,,,,,,,,,,,,,,,,,,128.04206590005197,129.04417330003344,129.01112399995327,129.01112399995327,129.01112399995327,None,,,,11031,001,2024_Jan_11_1030,MFTM_A_new1021,2021.2.3,60.073121000186276,
,,,,,,,,stim/Instruction_adaptive.png,conditions/adaptive.xlsx,test,0.6,0.6,0.6,-0.6,-0.6,right,R,,,,,0,1,1,1,0,0,0,76,,,,,,,,,,,,,,,,,,,,,,,,,,,,,,,,,,,,,,132.1648824000731,None,space,68.73904650006443,132.1648824000731,None,200.95003210008144,None,left,0,1.2688237000256777,201.45107880001888,None,201.45107880001888,204.45609740004875,201.45107880001888,204.45609740004875,201.45107880001888,204.45609740004875,201.45107880001888,204.45609740004875,201.45107880001888,204.45609740004875,204.439155299915,204.93939840001985,204.439155299915,204.93939840001985,204.439155299915,204.93939840001985,204.439155299915,204.93939840001985,204.439155299915,204.93939840001985,204.439155299915,204.93939840001985,204.439155299915,204.93939840001985,204.439155299915,204.93939840001985,201.45107880001888,None,204.93939840001985,204.93939840001985,3,204.95614090003073,None,205.70735920011066,None,,,,,,,0,0.5,0.0,11031,001,2024_Jan_11_1030,MFTM_A_new1021,2021.2.3,60.073121000186276,
,,,,,,,,stim/Instruction_adaptive.png,conditions/adaptive.xlsx,test,0.6,0.6,0.6,-0.6,-0.6,right,R,,,,,0,1,1,1,0,1,1,58,,,,,,,,,,,,,,,,,,,,,,,,,,,,,,,,,,,,,,,,,,,,206.20796120003797,None,right,1,1.922817099839449,206.70856850012206,None,206.70856850012206,209.71332300012,206.70856850012206,209.71332300012,206.70856850012206,209.71332300012,206.70856850012206,209.71332300012,206.70856850012206,209.71332300012,209.69748830003664,210.1970605000388,209.69748830003664,210.1970605000388,209.69748830003664,210.1970605000388,209.69748830003664,210.1970605000388,209.69748830003664,210.1970605000388,209.69748830003664,210.1970605000388,209.69748830003664,210.1970605000388,209.69748830003664,210.1970605000388,206.70856850012206,None,210.1970605000388,210.1970605000388,3.0000000000000027,210.21368020004593,None,210.96545889996924,None,,,,,,,0,0.5,0.5,11031,001,2024_Jan_11_1030,MFTM_A_new1021,2021.2.3,60.073121000186276,
,,,,,,,,stim/Instruction_adaptive.png,conditions/adaptive.xlsx,test,0.6,0.6,0.6,-0.6,-0.6,right,R,,,,,0,1,1,1,0,2,2,2,,,,,,,,,,,,,,,,,,,,,,,,,,,,,,,,,,,,,,,,,,,,211.46645030006766,None,right,1,3.3853576998226345,211.96664360002615,None,211.96664360002615,214.97132500004955,211.96664360002615,214.97132500004955,211.96664360002615,214.97132500004955,211.96664360002615,214.97132500004955,211.96664360002615,214.97132500004955,214.95426149992272,215.45507019991055,214.95426149992272,215.45507019991055,214.95426149992272,215.45507019991055,214.95426149992272,215.45507019991055,214.95426149992272,215.45507019991055,214.95426149992272,215.45507019991055,214.95426149992272,215.45507019991055,214.95426149992272,215.45507019991055,211.96664360002615,None,215.45507019991055,215.45507019991055,3.0000000000000027,215.47193010011688,None,216.22315469989553,None,,,,,,,0,0.5,0.6666666666666666,11031,001,2024_Jan_11_1030,MFTM_A_new1021,2021.2.3,60.073121000186276,
,,,,,,,,stim/Instruction_adaptive.png,conditions/adaptive.xlsx,test,0.6,0.6,0.6,-0.6,-0.6,right,R,,,,,0,1,1,1,0,3,3,94,,,,,,,,,,,,,,,,,,,,,,,,,,,,,,,,,,,,,,,,,,,,216.72408970003016,None,right,1,1.7998537998646498,217.22415650007315,None,217.22415650007315,220.22876400011592,217.22415650007315,220.22876400011592,217.22415650007315,220.22876400011592,217.22415650007315,220.22876400011592,217.22415650007315,220.22876400011592,220.212099700002,220.71397479996085,220.212099700002,220.71397479996085,220.212099700002,220.71397479996085,220.212099700002,220.71397479996085,220.212099700002,220.71397479996085,220.212099700002,220.71397479996085,220.212099700002,220.71397479996085,220.212099700002,220.71397479996085,217.22415650007315,None,220.71397479996085,220.71397479996085,3.0000000000000027,220.73014279990457,None,221.48067019996233,None,,,,,,,0,1.1300000000000006,0.75,11031,001,2024_Jan_11_1030,MFTM_A_new1021,2021.2.3,60.073121000186276,
,,,,,,,,stim/Instruction_adaptive.png,conditions/adaptive.xlsx,test,0.6,0.6,0.6,-0.6,-0.6,right,R,,,,,0,1,1,1,0,4,4,64,,,,,,,,,,,,,,,,,,,,,,,,,,,,,,,,,,,,,,,,,,,,221.9821021000389,None,right,1,1.7175515000708401,222.48201070004143,None,222.48201070004143,225.48684210004285,222.48201070004143,225.48684210004285,222.48201070004143,225.48684210004285,222.48201070004143,225.48684210004285,222.48201070004143,225.48684210004285,225.47001800010912,225.97039410006255,225.47001800010912,225.97039410006255,225.47001800010912,225.97039410006255,225.47001800010912,225.97039410006255,225.47001800010912,225.97039410006255,225.47001800010912,225.97039410006255,225.47001800010912,225.97039410006255,225.47001800010912,225.97039410006255,222.48201070004143,None,225.97039410006255,225.97039410006255,3.0000000000000027,225.9873271000106,None,226.73899949993938,None,,,,,,,0,1.540000000000001,0.8,11031,001,2024_Jan_11_1030,MFTM_A_new1021,2021.2.3,60.073121000186276,
,,,,,,,,stim/Instruction_adaptive.png,conditions/adaptive.xlsx,test,-0.6,-0.6,-0.6,0.6,0.6,left,L,,,,,0,1,1,1,0,5,5,93,,,,,,,,,,,,,,,,,,,,,,,,,,,,,,,,,,,,,,,,,,,,227.23920319997706,None,left,1,1.6108642001636326,227.74060450005345,None,227.74060450005345,230.00982400006615,227.74060450005345,230.00982400006615,227.74060450005345,230.00982400006615,227.74060450005345,230.00982400006615,227.74060450005345,230.00982400006615,229.977583500091,230.47727210004814,229.977583500091,230.47727210004814,229.977583500091,230.47727210004814,229.977583500091,230.47727210004814,229.977583500091,230.47727210004814,229.977583500091,230.47727210004814,229.977583500091,230.47727210004814,229.977583500091,230.47727210004814,227.74060450005345,None,230.47727210004814,230.47727210004814,2.2600000000000016,230.51075830007903,None,231.26190069993027,None,,,,,,,0,1.8100000000000012,0.8333333333333334,11031,001,2024_Jan_11_1030,MFTM_A_new1021,2021.2.3,60.073121000186276,
,,,,,,,,stim/Instruction_adaptive.png,conditions/adaptive.xlsx,test,-0.6,-0.6,-0.6,0.6,0.6,left,L,,,,,0,1,1,1,0,6,6,95,,,,,,,,,,,,,,,,,,,,,,,,,,,,,,,,,,,,,,,,,,,,231.76359699992463,None,left,1,2.3686718000099063,232.26330860005692,234.6504738999065,232.26330860005692,234.14944690000266,232.26330860005692,234.14944690000266,232.26330860005692,234.14944690000266,232.26330860005692,234.14944690000266,232.26330860005692,234.14944690000266,234.13282230007462,234.63352019991726,234.13282230007462,234.63352019991726,234.13282230007462,234.63352019991726,234.13282230007462,234.63352019991726,234.13282230007462,234.63352019991726,234.13282230007462,234.63352019991726,234.13282230007462,234.63352019991726,234.13282230007462,234.63352019991726,232.26330860005692,None,234.63352019991726,234.6504738999065,1.8800000000000014,234.66694319993258,None,235.41787960007787,None,,,,,,,0,2.0200000000000014,0.8571428571428571,11031,001,2024_Jan_11_1030,MFTM_A_new1021,2021.2.3,60.073121000186276,
,,,,,,,,stim/Instruction_adaptive.png,conditions/adaptive.xlsx,test,-0.6,-0.6,-0.6,0.6,0.6,left,L,,,,,0,1,1,1,0,7,7,63,,,,,,,,,,,,,,,,,,,,,,,,,,,,,,,,,,,,,,,,,,,,235.9187284000218,None,left,1,1.5641938999760896,236.4192725000903,None,236.4192725000903,238.03859740006737,236.4192725000903,238.03859740006737,236.4192725000903,238.03859740006737,236.4192725000903,238.03859740006737,236.4192725000903,238.03859740006737,238.0219338000752,238.5225545000285,238.0219338000752,238.5225545000285,238.0219338000752,238.5225545000285,238.0219338000752,238.5225545000285,238.0219338000752,238.5225545000285,238.0219338000752,238.5225545000285,238.0219338000752,238.5225545000285,238.0219338000752,238.5225545000285,236.4192725000903,None,238.5225545000285,238.5225545000285,1.6200000000000012,238.5392199999187,None,239.29041079990566,None,,,,,,,0,2.2000000000000015,0.875,11031,001,2024_Jan_11_1030,MFTM_A_new1021,2021.2.3,60.073121000186276,
,,,,,,,,stim/Instruction_adaptive.png,conditions/adaptive.xlsx,test,-0.6,-0.6,-0.6,0.6,0.6,left,L,,,,,0,1,1,1,0,8,8,1,,,,,,,,,,,,,,,,,,,,,,,,,,,,,,,,,,,,,,,,,,,,239.79117350000888,None,left,1,1.3877936999779195,240.29164599999785,242.2286241000984,240.29164599999785,241.72726169996895,240.29164599999785,241.72726169996895,240.29164599999785,241.72726169996895,240.29164599999785,241.72726169996895,240.29164599999785,241.72726169996895,241.71172149991617,242.211507699918,241.71172149991617,242.211507699918,241.71172149991617,242.211507699918,241.71172149991617,242.211507699918,241.71172149991617,242.211507699918,241.71172149991617,242.211507699918,241.71172149991617,242.211507699918,241.71172149991617,242.211507699918,240.29164599999785,None,242.211507699918,242.2454643000383,1.430000000000001,242.26159800007008,None,243.01321509992704,None,,,,,,,[0.03444444],2.3500000000000014,0.8888888888888888,11031,001,2024_Jan_11_1030,MFTM_A_new1021,2021.2.3,60.073121000186276,
,,,,,,,,stim/Instruction_adaptive.png,conditions/adaptive.xlsx,test,-0.6,-0.6,-0.6,0.6,0.6,left,L,,,,,0,1,1,1,0,9,9,9,,,,,,,,,,,,,,,,,,,,,,,,,,,,,,,,,,,,,,,,,,,,243.51338419993408,None,right,0,1.5376672998536378,244.0140802001115,245.8166263999883,244.0140802001115,245.31604319997132,244.0140802001115,245.31604319997132,244.0140802001115,245.31604319997132,244.0140802001115,245.31604319997132,244.0140802001115,245.31604319997132,245.28253649990074,245.78352720011026,245.28253649990074,245.78352720011026,245.28253649990074,245.78352720011026,245.28253649990074,245.78352720011026,245.28253649990074,245.78352720011026,245.28253649990074,245.78352720011026,245.28253649990074,245.78352720011026,245.28253649990074,245.78352720011026,244.0140802001115,None,245.78352720011026,245.93414909997955,1.290000000000001,245.96672819997184,None,246.71797979995608,None,,,,,,,[0.152],1.9600000000000013,0.8,11031,001,2024_Jan_11_1030,MFTM_A_new1021,2021.2.3,60.073121000186276,
,,,,,,,,stim/Instruction_adaptive.png,conditions/adaptive.xlsx,test,-0.6,-0.6,-0.6,0.6,0.6,left,L,,,,,0,1,1,1,0,10,10,33,,,,,,,,,,,,,,,,,,,,,,,,,,,,,,,,,,,,,,,,,,,,247.21881509991363,None,left,1,1.2712677998933941,247.72014739993028,249.92277970002033,247.72014739993028,249.42275479994714,247.72014739993028,249.42275479994714,247.72014739993028,249.42275479994714,247.72014739993028,249.42275479994714,247.72014739993028,249.42275479994714,249.38905150000937,249.89067719993182,249.38905150000937,249.89067719993182,249.38905150000937,249.89067719993182,249.38905150000937,249.89067719993182,249.38905150000937,249.89067719993182,249.38905150000937,249.89067719993182,249.38905150000937,249.89067719993182,249.38905150000937,249.89067719993182,247.72014739993028,None,249.89067719993182,250.10711529990658,1.6900000000000013,250.12410710006952,None,250.87513990001753,None,,,,,,,[0.21181818],2.110000000000001,0.8181818181818182,11031,001,2024_Jan_11_1030,MFTM_A_new1021,2021.2.3,60.073121000186276,
,,,,,,,,stim/Instruction_adaptive.png,conditions/adaptive.xlsx,test,0.6,0.6,0.6,-0.6,-0.6,right,R,,,,,0,1,1,1,0,11,11,22,,,,,,,,,,,,,,,,,,,,,,,,,,,,,,,,,,,,,,,,,,,,251.37513440009207,None,right,1,1.7954784999601543,251.87588530010544,253.8960645000916,251.87588530010544,253.4113765999209,251.87588530010544,253.4113765999209,251.87588530010544,253.4113765999209,251.87588530010544,253.4113765999209,251.87588530010544,253.4113765999209,253.37805130006745,253.8795471000485,253.37805130006745,253.8795471000485,253.37805130006745,253.8795471000485,253.37805130006745,253.8795471000485,253.37805130006745,253.8795471000485,253.37805130006745,253.8795471000485,253.37805130006745,253.8795471000485,253.37805130006745,253.8795471000485,251.87588530010544,None,253.8795471000485,254.16267609992065,1.5200000000000011,254.17920850007795,None,254.93027259991504,None,,,,,,,[0.27583333],2.2400000000000015,0.8333333333333334,11031,001,2024_Jan_11_1030,MFTM_A_new1021,2021.2.3,60.073121000186276,
,,,,,,,,stim/Instruction_adaptive.png,conditions/adaptive.xlsx,test,-0.6,-0.6,-0.6,0.6,0.6,left,L,,,,,0,1,1,1,0,12,12,57,,,,,,,,,,,,,,,,,,,,,,,,,,,,,,,,,,,,,,,,,,,,255.4309527000878,None,left,1,1.4437220999971032,255.93172800005414,257.8357404000126,255.93172800005414,257.33395430003293,255.93172800005414,257.33395430003293,255.93172800005414,257.33395430003293,255.93172800005414,257.33395430003293,255.93172800005414,257.33395430003293,257.30049860011786,257.80193690001033,257.30049860011786,257.80193690001033,257.30049860011786,257.80193690001033,257.30049860011786,257.80193690001033,257.30049860011786,257.80193690001033,257.30049860011786,257.80193690001033,257.30049860011786,257.80193690001033,257.30049860011786,257.80193690001033,255.93172800005414,None,257.80193690001033,258.15190739999525,1.390000000000001,258.1682682998944,None,258.91946360003203,None,,,,,,,[0.34],2.3500000000000014,0.8461538461538461,11031,001,2024_Jan_11_1030,MFTM_A_new1021,2021.2.3,60.073121000186276,
,,,,,,,,stim/Instruction_adaptive.png,conditions/adaptive.xlsx,test,0.6,0.6,0.6,-0.6,-0.6,right,R,,,,,0,1,1,1,0,13,13,52,,,,,,,,,,,,,,,,,,,,,,,,,,,,,,,,,,,,,,,,,,,,259.42025840003043,None,right,1,1.4466513998340815,259.9209098999854,261.7246143000666,259.9209098999854,261.22270500008017,259.9209098999854,261.22270500008017,259.9209098999854,261.22270500008017,259.9209098999854,261.22270500008017,259.9209098999854,261.22270500008017,261.1893158000894,261.6902964999899,261.1893158000894,261.6902964999899,261.1893158000894,261.6902964999899,261.1893158000894,261.6902964999899,261.1893158000894,261.6902964999899,261.1893158000894,261.6902964999899,261.1893158000894,261.6902964999899,261.1893158000894,261.6902964999899,259.9209098999854,None,261.6902964999899,262.1073419000022,1.290000000000001,262.1240920999553,None,262.87639519991353,None,,,,,,,[0.40214286],2.450000000000002,0.8571428571428571,11031,001,2024_Jan_11_1030,MFTM_A_new1021,2021.2.3,60.073121000186276,
,,,,,,,,stim/Instruction_adaptive.png,conditions/adaptive.xlsx,test,-0.6,-0.6,-0.6,0.6,0.6,left,L,,,,,0,1,1,1,0,14,14,35,,,,,,,,,,,,,,,,,,,,,,,,,,,,,,,,,,,,,,,,,,,,263.3766532000154,None,left,1,1.4667120999656618,263.8767925000284,265.58020760002546,263.8767925000284,265.0784295001067,263.8767925000284,265.0784295001067,263.8767925000284,265.0784295001067,263.8767925000284,265.0784295001067,263.8767925000284,265.0784295001067,265.06181450001895,265.56273250002414,265.06181450001895,265.56273250002414,265.06181450001895,265.56273250002414,265.06181450001895,265.56273250002414,265.06181450001895,265.56273250002414,265.06181450001895,265.56273250002414,265.06181450001895,265.56273250002414,265.06181450001895,265.56273250002414,263.8767925000284,None,265.56273250002414,266.03126409999095,1.2000000000000008,266.0465919999406,None,266.7978008999489,None,,,,,,,[0.462],2.5500000000000016,0.8666666666666667,11031,001,2024_Jan_11_1030,MFTM_A_new1021,2021.2.3,60.073121000186276,
,,,,,,,,stim/Instruction_adaptive.png,conditions/adaptive.xlsx,test,-0.6,-0.6,-0.6,0.6,0.6,left,L,,,,,0,1,1,1,0,15,15,25,,,,,,,,,,,,,,,,,,,,,,,,,,,,,,,,,,,,,,,,,,,,267.29874649993144,None,right,0,1.4399987999349833,267.79944840003736,269.4191234000027,267.79944840003736,268.9343014000915,267.79944840003736,268.9343014000915,267.79944840003736,268.9343014000915,267.79944840003736,268.9343014000915,267.79944840003736,268.9343014000915,268.9007294001058,269.4025238000322,268.9007294001058,269.4025238000322,268.9007294001058,269.4025238000322,268.9007294001058,269.4025238000322,268.9007294001058,269.4025238000322,268.9007294001058,269.4025238000322,268.9007294001058,269.4025238000322,268.9007294001058,269.4025238000322,267.79944840003736,None,269.4025238000322,269.93584610009566,1.1200000000000008,269.95251640002243,None,270.70352949993685,None,,,,,,,[0.519375],2.290000000000002,0.8125,11031,001,2024_Jan_11_1030,MFTM_A_new1021,2021.2.3,60.073121000186276,
,,,,,,,,stim/Instruction_adaptive.png,conditions/adaptive.xlsx,test,-0.6,-0.6,-0.6,0.6,0.6,left,L,,,,,0,1,1,1,0,16,16,31,,,,,,,,,,,,,,,,,,,,,,,,,,,,,,,,,,,,,,,,,,,,271.20430060010403,None,left,1,1.6784153000917286,271.7051266999915,273.5585626999382,271.7051266999915,273.057378700003,271.7051266999915,273.057378700003,271.7051266999915,273.057378700003,271.7051266999915,273.057378700003,271.7051266999915,273.057378700003,273.0403529999312,273.54126309999265,273.0403529999312,273.54126309999265,273.0403529999312,273.54126309999265,273.0403529999312,273.54126309999265,273.0403529999312,273.54126309999265,273.0403529999312,273.54126309999265,273.0403529999312,273.54126309999265,273.0403529999312,273.54126309999265,271.7051266999915,None,273.54126309999265,274.1086889000144,1.350000000000001,274.12559569999576,None,274.8764536001254,None,,,,,,,[0.55647059],2.3900000000000015,0.8235294117647058,11031,001,2024_Jan_11_1030,MFTM_A_new1021,2021.2.3,60.073121000186276,
,,,,,,,,stim/Instruction_adaptive.png,conditions/adaptive.xlsx,test,0.6,0.6,0.6,-0.6,-0.6,right,R,,,,,0,1,1,1,0,17,17,10,,,,,,,,,,,,,,,,,,,,,,,,,,,,,,,,,,,,,,,,,,,,275.3777439999394,None,right,1,1.3056298999581486,275.87788569997065,277.64784800005145,275.87788569997065,277.1463369000703,275.87788569997065,277.1463369000703,275.87788569997065,277.1463369000703,275.87788569997065,277.1463369000703,275.87788569997065,277.1463369000703,277.1296612001024,277.63133480004035,277.1296612001024,277.63133480004035,277.1296612001024,277.63133480004035,277.1296612001024,277.63133480004035,277.1296612001024,277.63133480004035,277.1296612001024,277.63133480004035,277.1296612001024,277.63133480004035,277.1296612001024,277.63133480004035,275.87788569997065,None,277.6138512000907,278.214829799952,1.260000000000001,278.23143939999864,None,278.9825242999941,None,,,,,,,[0.59444444],2.4700000000000015,0.8333333333333334,11031,001,2024_Jan_11_1030,MFTM_A_new1021,2021.2.3,60.073121000186276,
,,,,,,,,stim/Instruction_adaptive.png,conditions/adaptive.xlsx,test,0.6,0.6,0.6,-0.6,-0.6,right,R,,,,,0,1,1,1,0,18,18,50,,,,,,,,,,,,,,,,,,,,,,,,,,,,,,,,,,,,,,,,,,,,279.4840790000744,None,right,1,1.3915405999869108,279.9840508000925,281.6872970999684,279.9840508000925,281.1856698000338,279.9840508000925,281.1856698000338,279.9840508000925,281.1856698000338,279.9840508000925,281.1856698000338,279.9840508000925,281.1856698000338,281.1536230999045,281.65325880004093,281.1536230999045,281.65325880004093,281.1536230999045,281.65325880004093,281.1536230999045,281.65325880004093,281.1536230999045,281.65325880004093,281.1536230999045,281.65325880004093,281.1536230999045,281.65325880004093,281.1536230999045,281.65325880004093,279.9840508000925,None,281.65325880004093,282.2877837999258,1.1900000000000008,282.32064360007644,None,283.07188310008496,None,,,,,,,[0.63210526],2.5500000000000016,0.8421052631578947,11031,001,2024_Jan_11_1030,MFTM_A_new1021,2021.2.3,60.073121000186276,
,,,,,,,,stim/Instruction_adaptive.png,conditions/adaptive.xlsx,test,0.6,0.6,0.6,-0.6,-0.6,right,R,,,,,0,1,1,1,0,19,19,18,,,,,,,,,,,,,,,,,,,,,,,,,,,,,,,,,,,,,,,,,,,,283.5733765999321,None,left,0,1.349772599991411,284.07384139997885,285.69247879995964,284.07384139997885,285.2097394000739,284.07384139997885,285.2097394000739,284.07384139997885,285.2097394000739,284.07384139997885,285.2097394000739,284.07384139997885,285.2097394000739,285.17519819992594,285.6770784999244,285.17519819992594,285.6770784999244,285.17519819992594,285.6770784999244,285.17519819992594,285.6770784999244,285.17519819992594,285.6770784999244,285.17519819992594,285.6770784999244,285.17519819992594,285.6770784999244,285.17519819992594,285.6770784999244,284.07384139997885,None,285.6770784999244,286.3601585000288,1.1200000000000008,286.3768166000955,None,287.12848550011404,None,,,,,,,[0.6695],2.330000000000002,0.8,11031,001,2024_Jan_11_1030,MFTM_A_new1021,2021.2.3,60.073121000186276,
,,,,,,,,stim/Instruction_adaptive.png,conditions/adaptive.xlsx,test,-0.6,-0.6,-0.6,0.6,0.6,left,L,,,,,0,1,1,1,0,20,20,85,,,,,,,,,,,,,,,,,,,,,,,,,,,,,,,,,,,,,,,,,,,,287.6288705000188,None,left,1,0.9814156000502408,288.1301756000612,289.94939809991047,288.1301756000612,289.44784740009345,288.1301756000612,289.44784740009345,288.1301756000612,289.44784740009345,288.1301756000612,289.44784740009345,288.1301756000612,289.44784740009345,289.41504009999335,289.9153706000652,289.41504009999335,289.9153706000652,289.41504009999335,289.9153706000652,289.41504009999335,289.9153706000652,289.41504009999335,289.9153706000652,289.41504009999335,289.9153706000652,289.41504009999335,289.9153706000652,289.41504009999335,289.9153706000652,288.1301756000612,None,289.9153706000652,290.61699020001106,1.310000000000001,290.63292329991236,None,291.3842321000993,None,,,,,,,[0.69428571],2.410000000000002,0.8095238095238095,11031,001,2024_Jan_11_1030,MFTM_A_new1021,2021.2.3,60.073121000186276,
,,,,,,,,stim/Instruction_adaptive.png,conditions/adaptive.xlsx,test,-0.6,-0.6,-0.6,0.6,0.6,left,L,,,,,0,1,1,1,0,21,21,19,,,,,,,,,,,,,,,,,,,,,,,,,,,,,,,,,,,,,,,,,,,,291.8852516000625,None,left,1,1.0939407998230308,292.38554870011285,294.13930590008385,292.38554870011285,293.6375623999629,292.38554870011285,293.6375623999629,292.38554870011285,293.6375623999629,292.38554870011285,293.6375623999629,292.38554870011285,293.6375623999629,293.6041544000618,294.1050233000424,293.6041544000618,294.1050233000424,293.6041544000618,294.1050233000424,293.6041544000618,294.1050233000424,293.6041544000618,294.1050233000424,293.6041544000618,294.1050233000424,293.6041544000618,294.1050233000424,293.6041544000618,294.1050233000424,292.38554870011285,None,294.1050233000424,294.84173030010425,1.2400000000000009,294.85672909999266,None,295.60729159996845,None,,,,,,,[0.72],2.4800000000000018,0.8181818181818182,11031,001,2024_Jan_11_1030,MFTM_A_new1021,2021.2.3,60.073121000186276,
,,,,,,,,stim/Instruction_adaptive.png,conditions/adaptive.xlsx,test,0.6,0.6,0.6,-0.6,-0.6,right,R,,,,,0,1,1,1,0,22,22,48,,,,,,,,,,,,,,,,,,,,,,,,,,,,,,,,,,,,,,,,,,,,296.10864320001565,None,left,0,1.4231704999692738,296.6088668999728,298.2943639000878,296.6088668999728,297.79387779999524,296.6088668999728,297.79387779999524,296.6088668999728,297.79387779999524,296.6088668999728,297.79387779999524,296.6088668999728,297.79387779999524,297.7770855000708,298.27782450011,297.7770855000708,298.27782450011,297.7770855000708,298.27782450011,297.7770855000708,298.27782450011,297.7770855000708,298.27782450011,297.7770855000708,298.27782450011,297.7770855000708,298.27782450011,297.7770855000708,298.27782450011,296.6088668999728,None,298.27782450011,299.0290834000334,1.1800000000000008,299.04565520002507,None,299.79808470001444,None,,,,,,,[0.74608696],2.2800000000000016,0.782608695652174,11031,001,2024_Jan_11_1030,MFTM_A_new1021,2021.2.3,60.073121000186276,
,,,,,,,,stim/Instruction_adaptive.png,conditions/adaptive.xlsx,test,-0.6,-0.6,-0.6,0.6,0.6,left,L,,,,,0,1,1,1,0,23,23,71,,,,,,,,,,,,,,,,,,,,,,,,,,,,,,,,,,,,,,,,,,,,300.2972369999625,None,right,0,1.5861073001287878,300.7982201001141,302.6518554999493,300.7982201001141,302.150304999901,300.7982201001141,302.150304999901,300.7982201001141,302.150304999901,300.7982201001141,302.150304999901,300.7982201001141,302.150304999901,302.1333634001203,302.6342573999427,302.1333634001203,302.6342573999427,302.1333634001203,302.6342573999427,302.1333634001203,302.6342573999427,302.1333634001203,302.6342573999427,302.1333634001203,302.6342573999427,302.1333634001203,302.6342573999427,302.1333634001203,302.6342573999427,300.7982201001141,None,302.6342573999427,303.402059199987,1.350000000000001,303.4186845999211,None,304.1697945999913,None,,,,,,,[0.76291667],2.0600000000000014,0.75,11031,001,2024_Jan_11_1030,MFTM_A_new1021,2021.2.3,60.073121000186276,
,,,,,,,,stim/Instruction_adaptive.png,conditions/adaptive.xlsx,test,0.6,0.6,0.6,-0.6,-0.6,right,R,,,,,0,1,1,1,0,24,24,54,,,,,,,,,,,,,,,,,,,,,,,,,,,,,,,,,,,,,,,,,,,,304.6717807999812,None,left,0,2.1882567999418825,305.1713596000336,307.2576007999014,305.1713596000336,306.7569536000956,305.1713596000336,306.7569536000956,305.1713596000336,306.7569536000956,305.1713596000336,306.7569536000956,305.1713596000336,306.7569536000956,306.74049920006655,307.24086560006253,306.74049920006655,307.24086560006253,306.74049920006655,307.24086560006253,306.74049920006655,307.24086560006253,306.74049920006655,307.24086560006253,306.74049920006655,307.24086560006253,306.74049920006655,307.24086560006253,306.74049920006655,307.24086560006253,305.1713596000336,None,307.24086560006253,308.0089002000168,1.5800000000000012,308.0265472000465,None,308.7771060001105,None,,,,,,,[0.7692],1.8200000000000012,0.72,11031,001,2024_Jan_11_1030,MFTM_A_new1021,2021.2.3,60.073121000186276,
,,,,,,,,stim/Instruction_adaptive.png,conditions/adaptive.xlsx,test,-0.6,-0.6,-0.6,0.6,0.6,left,L,,,,,0,1,1,1,0,25,25,39,,,,,,,,,,,,,,,,,,,,,,,,,,,,,,,,,,,,,,,,,,,,309.2777760999743,None,left,1,1.3966830999124795,309.77878860011697,312.14837120007724,309.77878860011697,311.64855560008436,309.77878860011697,311.64855560008436,309.77878860011697,311.64855560008436,309.77878860011697,311.64855560008436,309.77878860011697,311.64855560008436,311.6148288999684,312.11513669998385,311.6148288999684,312.11513669998385,311.6148288999684,312.11513669998385,311.6148288999684,312.11513669998385,311.6148288999684,312.11513669998385,311.6148288999684,312.11513669998385,311.6148288999684,312.11513669998385,311.6148288999684,312.11513669998385,309.77878860011697,None,312.11513669998385,312.7658295999281,1.8600000000000014,312.78253749990836,None,313.534221699927,None,,,,,,,[[0.64]],1.9100000000000013,0.7307692307692307,11031,001,2024_Jan_11_1030,MFTM_A_new1021,2021.2.3,60.073121000186276,
,,,,,,,,stim/Instruction_adaptive.png,conditions/adaptive.xlsx,test,0.6,0.6,0.6,-0.6,-0.6,right,R,,,,,0,1,1,1,0,26,26,70,,,,,,,,,,,,,,,,,,,,,,,,,,,,,,,,,,,,,,,,,,,,314.03525909991004,None,right,1,1.7045024000108242,314.53523969999515,316.78842299990356,314.53523969999515,316.2883917998988,314.53523969999515,316.2883917998988,314.53523969999515,316.2883917998988,314.53523969999515,316.2883917998988,314.53523969999515,316.2883917998988,316.27116809994914,316.7720141999889,316.27116809994914,316.7720141999889,316.27116809994914,316.7720141999889,316.27116809994914,316.7720141999889,316.27116809994914,316.7720141999889,316.27116809994914,316.7720141999889,316.27116809994914,316.7720141999889,316.27116809994914,316.7720141999889,314.53523969999515,None,316.7720141999889,317.52383400010876,1.7500000000000013,317.5396477000322,None,318.2919360001106,None,,,,,,,[[0.75]],1.9900000000000013,0.7407407407407407,11031,001,2024_Jan_11_1030,MFTM_A_new1021,2021.2.3,60.073121000186276,
,,,,,,,,stim/Instruction_adaptive.png,conditions/adaptive.xlsx,test,0.6,0.6,0.6,-0.6,-0.6,right,R,,,,,0,1,1,1,0,27,27,34,,,,,,,,,,,,,,,,,,,,,,,,,,,,,,,,,,,,,,,,,,,,318.79129910003394,None,left,0,2.0592561999801546,319.2923357000109,321.4621087999549,319.2923357000109,320.96150059998035,319.2923357000109,320.96150059998035,319.2923357000109,320.96150059998035,319.2923357000109,320.96150059998035,319.2923357000109,320.96150059998035,320.94513310003094,321.4453914000187,320.94513310003094,321.4453914000187,320.94513310003094,321.4453914000187,320.94513310003094,321.4453914000187,320.94513310003094,321.4453914000187,320.94513310003094,321.4453914000187,320.94513310003094,321.4453914000187,320.94513310003094,321.4453914000187,319.2923357000109,None,321.42870840011165,322.1965318999719,1.6600000000000013,322.2308044999372,None,322.98200320010073,None,,,,,,,[0.76642857],1.7600000000000011,0.7142857142857143,11031,001,2024_Jan_11_1030,MFTM_A_new1021,2021.2.3,60.073121000186276,
,,,,,,,,stim/Instruction_adaptive.png,conditions/adaptive.xlsx,test,-0.6,-0.6,-0.6,0.6,0.6,left,L,,,,,0,1,1,1,0,28,28,91,,,,,,,,,,,,,,,,,,,,,,,,,,,,,,,,,,,,,,,,,,,,323.48204479995184,None,right,0,1.7049628999084234,323.9826442000922,326.43664379999973,323.9826442000922,325.9352202999871,323.9826442000922,325.9352202999871,323.9826442000922,325.9352202999871,323.9826442000922,325.9352202999871,323.9826442000922,325.9352202999871,325.9021340999752,326.40341760008596,325.9021340999752,326.40341760008596,325.9021340999752,326.40341760008596,325.9021340999752,326.40341760008596,325.9021340999752,326.40341760008596,325.9021340999752,326.40341760008596,325.9021340999752,326.40341760008596,325.9021340999752,326.40341760008596,323.9826442000922,None,326.40341760008596,326.9710482999217,1.9400000000000015,326.9875986999832,None,327.7382132001221,None,,,,,,,[[0.56]],1.5000000000000009,0.6896551724137931,11031,001,2024_Jan_11_1030,MFTM_A_new1021,2021.2.3,60.073121000186276,
,,,,,,,,stim/Instruction_adaptive.png,conditions/adaptive.xlsx,test,0.6,0.6,0.6,-0.6,-0.6,right,R,,,,,0,1,1,1,0,29,29,98,,,,,,,,,,,,,,,,,,,,,,,,,,,,,,,,,,,,,,,,,,,,328.23888730001636,None,right,1,1.9959575000684708,328.73966969992034,331.57724469993263,328.73966969992034,331.0763433999382,328.73966969992034,331.0763433999382,328.73966969992034,331.0763433999382,328.73966969992034,331.0763433999382,328.73966969992034,331.0763433999382,331.0604880999308,331.560566799948,331.0604880999308,331.560566799948,331.0604880999308,331.560566799948,331.0604880999308,331.560566799948,331.0604880999308,331.560566799948,331.0604880999308,331.560566799948,331.0604880999308,331.560566799948,331.0604880999308,331.560566799948,328.73966969992034,None,331.560566799948,None,2.330000000000002,331.74444920010865,None,332.4952656000387,None,,,,,,,[[0.17]],1.600000000000001,0.7,11031,001,2024_Jan_11_1030,MFTM_A_new1021,2021.2.3,60.073121000186276,
,,,,,,,,stim/Instruction_adaptive.png,conditions/adaptive.xlsx,test,-0.6,-0.6,-0.6,0.6,0.6,left,L,,,,,0,1,1,1,0,30,30,61,,,,,,,,,,,,,,,,,,,,,,,,,,,,,,,,,,,,,,,,,,,,332.99628870002925,None,left,1,1.6868267999961972,333.49668950005434,336.1680680999998,333.49668950005434,335.66673940001056,333.49668950005434,335.66673940001056,333.49668950005434,335.66673940001056,333.49668950005434,335.66673940001056,333.49668950005434,335.66673940001056,335.64974500006065,336.15169940004125,335.64974500006065,336.15169940004125,335.64974500006065,336.15169940004125,335.64974500006065,336.15169940004125,335.64974500006065,336.15169940004125,335.64974500006065,336.15169940004125,335.64974500006065,336.15169940004125,335.64974500006065,336.15169940004125,333.49668950005434,None,336.15169940004125,336.4844456000719,2.1700000000000017,336.5013653000351,None,337.2521959999576,None,,,,,,,[[0.33]],1.680000000000001,0.7096774193548387,11031,001,2024_Jan_11_1030,MFTM_A_new1021,2021.2.3,60.073121000186276,
,,,,,,,,stim/Instruction_adaptive.png,conditions/adaptive.xlsx,test,-0.6,-0.6,-0.6,0.6,0.6,left,L,,,,,0,1,1,1,0,31,31,81,,,,,,,,,,,,,,,,,,,,,,,,,,,,,,,,,,,,,,,,,,,,337.75377569999546,None,left,1,1.8828571999911219,338.25376070011407,340.80744359991513,338.25376070011407,340.30682109994814,338.25376070011407,340.30682109994814,338.25376070011407,340.30682109994814,338.25376070011407,340.30682109994814,338.25376070011407,340.30682109994814,340.29023230005987,340.79082900006324,340.29023230005987,340.79082900006324,340.29023230005987,340.79082900006324,340.29023230005987,340.79082900006324,340.29023230005987,340.79082900006324,340.29023230005987,340.79082900006324,340.29023230005987,340.79082900006324,340.29023230005987,340.79082900006324,338.25376070011407,None,340.79082900006324,341.24158870009705,2.0500000000000016,341.2587651000358,None,342.01006130012684,None,,,,,,,[[0.45]],1.7600000000000011,0.71875,11031,001,2024_Jan_11_1030,MFTM_A_new1021,2021.2.3,60.073121000186276,
,,,,,,,,stim/Instruction_adaptive.png,conditions/adaptive.xlsx,test,0.6,0.6,0.6,-0.6,-0.6,right,R,,,,,0,1,1,1,0,32,32,82,,,,,,,,,,,,,,,,,,,,,,,,,,,,,,,,,,,,,,,,,,,,342.5112008000724,None,right,1,1.076785699930042,343.010942599969,345.4650707000401,343.010942599969,344.96394170005806,343.010942599969,344.96394170005806,343.010942599969,344.96394170005806,343.010942599969,344.96394170005806,343.010942599969,344.96394170005806,344.9302374001127,345.43122270004824,344.9302374001127,345.43122270004824,344.9302374001127,345.43122270004824,344.9302374001127,345.43122270004824,344.9302374001127,345.43122270004824,344.9302374001127,345.43122270004824,344.9302374001127,345.43122270004824,344.9302374001127,345.43122270004824,343.010942599969,None,345.43122270004824,345.9985017001163,1.9400000000000015,346.0151855000295,None,346.76630480005406,None,,,,,,,[[0.56]],1.8300000000000012,0.7272727272727273,11031,001,2024_Jan_11_1030,MFTM_A_new1021,2021.2.3,60.073121000186276,
,,,,,,,,stim/Instruction_adaptive.png,conditions/adaptive.xlsx,test,-0.6,-0.6,-0.6,0.6,0.6,left,L,,,,,0,1,1,1,0,33,33,83,,,,,,,,,,,,,,,,,,,,,,,,,,,,,,,,,,,,,,,,,,,,347.2669945000671,None,right,0,2.334642699919641,347.76909750001505,350.12127840006724,347.76909750001505,349.6207169999834,347.76909750001505,349.6207169999834,347.76909750001505,349.6207169999834,347.76909750001505,349.6207169999834,347.76909750001505,349.6207169999834,349.6036819999572,350.10464069992304,349.6036819999572,350.10464069992304,349.6036819999572,350.10464069992304,349.6036819999572,350.10464069992304,349.6036819999572,350.10464069992304,349.6036819999572,350.10464069992304,349.6036819999572,350.10464069992304,349.6036819999572,350.10464069992304,347.76909750001505,None,350.10464069992304,350.75572160002775,1.8500000000000014,350.7728530000895,None,351.52333749993704,None,,,,,,,[[0.65]],1.630000000000001,0.7058823529411765,11031,001,2024_Jan_11_1030,MFTM_A_new1021,2021.2.3,60.073121000186276,
,,,,,,,,stim/Instruction_adaptive.png,conditions/adaptive.xlsx,test,0.6,0.6,0.6,-0.6,-0.6,right,R,,,,,0,1,1,1,0,34,34,24,,,,,,,,,,,,,,,,,,,,,,,,,,,,,,,,,,,,,,,,,,,,352.02401950000785,None,right,1,2.0108620000537485,352.5247267000377,355.16309990012087,352.5247267000377,354.6614461001009,352.5247267000377,354.6614461001009,352.5247267000377,354.6614461001009,352.5247267000377,354.6614461001009,352.5247267000377,354.6614461001009,354.6445631000679,355.1455655999016,354.6445631000679,355.1455655999016,354.6445631000679,355.1455655999016,354.6445631000679,355.1455655999016,354.6445631000679,355.1455655999016,354.6445631000679,355.1455655999016,354.6445631000679,355.1455655999016,354.6445631000679,355.1455655999016,352.5247267000377,None,355.1285776000004,355.5127787999809,2.1300000000000017,355.5292233999353,None,356.2804674000945,None,,,,,,,[[0.37]],1.700000000000001,0.7142857142857143,11031,001,2024_Jan_11_1030,MFTM_A_new1021,2021.2.3,60.073121000186276,
,,,,,,,,stim/Instruction_adaptive.png,conditions/adaptive.xlsx,test,-0.6,-0.6,-0.6,0.6,0.6,left,L,,,,,0,1,1,1,0,35,35,69,,,,,,,,,,,,,,,,,,,,,,,,,,,,,,,,,,,,,,,,,,,,356.7823425999377,None,left,1,1.6375945000909269,357.2819721000269,359.8028430000413,357.2819721000269,359.30138630000874,357.2819721000269,359.30138630000874,357.2819721000269,359.30138630000874,357.2819721000269,359.30138630000874,357.2819721000269,359.30138630000874,359.28590909997,359.78614079998806,359.28590909997,359.78614079998806,359.28590909997,359.78614079998806,359.28590909997,359.78614079998806,359.28590909997,359.78614079998806,359.28590909997,359.78614079998806,359.28590909997,359.78614079998806,359.28590909997,359.78614079998806,357.2819721000269,None,359.78614079998806,360.2696799999103,2.0200000000000014,360.28644639998674,None,361.0374515000731,None,,,,,,,[[0.48]],1.7700000000000011,0.7222222222222222,11031,001,2024_Jan_11_1030,MFTM_A_new1021,2021.2.3,60.073121000186276,
,,,,,,,,stim/Instruction_adaptive.png,conditions/adaptive.xlsx,test,0.6,0.6,0.6,-0.6,-0.6,right,R,,,,,0,1,1,1,0,36,36,96,,,,,,,,,,,,,,,,,,,,,,,,,,,,,,,,,,,,,,,,,,,,361.5381116999779,None,right,1,1.4886451999191195,362.03953479998745,364.47683790000156,362.03953479998745,363.9754508000333,362.03953479998745,363.9754508000333,362.03953479998745,363.9754508000333,362.03953479998745,363.9754508000333,362.03953479998745,363.9754508000333,363.9585955000948,364.45999150001444,363.9585955000948,364.45999150001444,363.9585955000948,364.45999150001444,363.9585955000948,364.45999150001444,363.9585955000948,364.45999150001444,363.9585955000948,364.45999150001444,363.9585955000948,364.45999150001444,363.9585955000948,364.45999150001444,362.03953479998745,None,364.45999150001444,None,1.9300000000000015,365.0434095999226,None,365.79464509990066,None,,,,,,,[[0.57]],1.8300000000000012,0.7297297297297297,11031,001,2024_Jan_11_1030,MFTM_A_new1021,2021.2.3,60.073121000186276,
,,,,,,,,stim/Instruction_adaptive.png,conditions/adaptive.xlsx,test,0.6,0.6,0.6,-0.6,-0.6,right,R,,,,,0,1,1,1,0,37,37,46,,,,,,,,,,,,,,,,,,,,,,,,,,,,,,,,,,,,,,,,,,,,366.29596129991114,None,left,0,2.036218299996108,366.79612149996683,369.15004689991474,366.79612149996683,368.6502662000712,366.79612149996683,368.6502662000712,366.79612149996683,368.6502662000712,366.79612149996683,368.6502662000712,366.79612149996683,368.6502662000712,368.6320907000918,369.13289160002023,368.6320907000918,369.13289160002023,368.6320907000918,369.13289160002023,368.6320907000918,369.13289160002023,368.6320907000918,369.13289160002023,368.6320907000918,369.13289160002023,368.6320907000918,369.13289160002023,368.6320907000918,369.13289160002023,366.79612149996683,None,369.13289160002023,369.7842232999392,1.8500000000000014,369.7998442999087,None,370.5517545999028,None,,,,,,,[[0.65]],1.660000000000001,0.7105263157894737,11031,001,2024_Jan_11_1030,MFTM_A_new1021,2021.2.3,60.073121000186276,
,,,,,,,,stim/Instruction_adaptive.png,conditions/adaptive.xlsx,test,0.6,0.6,0.6,-0.6,-0.6,right,R,,,,,0,1,1,1,0,38,38,32,,,,,,,,,,,,,,,,,,,,,,,,,,,,,,,,,,,,,,,,,,,,371.0521241999231,None,right,1,1.3832613001577556,371.55311280000024,374.14021100010723,371.55311280000024,373.6400673999451,371.55311280000024,373.6400673999451,371.55311280000024,373.6400673999451,371.55311280000024,373.6400673999451,371.55311280000024,373.6400673999451,373.62268809997477,374.12361359992065,373.62268809997477,374.12361359992065,373.62268809997477,374.12361359992065,373.62268809997477,374.12361359992065,373.62268809997477,374.12361359992065,373.62268809997477,374.12361359992065,373.62268809997477,374.12361359992065,373.62268809997477,374.12361359992065,371.55311280000024,None,374.12361359992065,None,2.080000000000002,374.55870299995877,None,375.30866140010767,None,,,,,,,[[0.42]],1.720000000000001,0.717948717948718,11031,001,2024_Jan_11_1030,MFTM_A_new1021,2021.2.3,60.073121000186276,
,,,,,,,,stim/Instruction_adaptive.png,conditions/adaptive.xlsx,test,-0.6,-0.6,-0.6,0.6,0.6,left,L,,,,,0,1,1,1,0,39,39,73,,,,,,,,,,,,,,,,,,,,,,,,,,,,,,,,,,,,,,,,,,,,375.8094246000983,None,left,1,1.88134799990803,376.31042019999586,378.81492520007305,376.31042019999586,378.3138574999757,376.31042019999586,378.3138574999757,376.31042019999586,378.3138574999757,376.31042019999586,378.3138574999757,376.31042019999586,378.3138574999757,378.29713999992236,378.7980404999107,378.29713999992236,378.7980404999107,378.29713999992236,378.7980404999107,378.29713999992236,378.7980404999107,378.29713999992236,378.7980404999107,378.29713999992236,378.7980404999107,378.29713999992236,378.7980404999107,378.29713999992236,378.7980404999107,376.31042019999586,None,378.7980404999107,379.29832640010864,2.0000000000000018,379.314303799998,None,380.06566639989614,None,,,,,,,[[0.5]],1.7800000000000011,0.725,11031,001,2024_Jan_11_1030,MFTM_A_new1021,2021.2.3,60.073121000186276,
,,,,,,,,stim/Instruction_adaptive.png,conditions/adaptive.xlsx,test,0.6,0.6,0.6,-0.6,-0.6,right,R,,,,,0,1,1,1,0,40,40,56,,,,,,,,,,,,,,,,,,,,,,,,,,,,,,,,,,,,,,,,,,,,380.5669176001102,None,right,1,1.3648292999714613,381.0671224000398,383.48812379990704,381.0671224000398,382.98757679993287,381.0671224000398,382.98757679993287,381.0671224000398,382.98757679993287,381.0671224000398,382.98757679993287,381.0671224000398,382.98757679993287,382.9698761999607,383.47252340009436,382.9698761999607,383.47252340009436,382.9698761999607,383.47252340009436,382.9698761999607,383.47252340009436,382.9698761999607,383.47252340009436,382.9698761999607,383.47252340009436,382.9698761999607,383.47252340009436,382.9698761999607,383.47252340009436,381.0671224000398,None,383.47252340009436,384.0569227999076,1.9200000000000015,384.0715318999719,None,384.8226642999798,None,,,,,,,[[0.58]],1.8300000000000012,0.7317073170731707,11031,001,2024_Jan_11_1030,MFTM_A_new1021,2021.2.3,60.073121000186276,
,,,,,,,,stim/Instruction_adaptive.png,conditions/adaptive.xlsx,test,-0.6,-0.6,-0.6,0.6,0.6,left,L,,,,,0,1,1,1,0,41,41,51,,,,,,,,,,,,,,,,,,,,,,,,,,,,,,,,,,,,,,,,,,,,385.3240924999118,None,left,1,1.4795653999317437,385.82415520003997,388.1779650999233,385.82415520003997,387.67697230004705,385.82415520003997,387.67697230004705,385.82415520003997,387.67697230004705,385.82415520003997,387.67697230004705,385.82415520003997,387.67697230004705,387.6610141999554,388.1610546000302,387.6610141999554,388.1610546000302,387.6610141999554,388.1610546000302,387.6610141999554,388.1610546000302,387.6610141999554,388.1610546000302,387.6610141999554,388.1610546000302,387.6610141999554,388.1610546000302,387.6610141999554,388.1610546000302,385.82415520003997,None,388.1610546000302,388.81286700000055,1.8500000000000014,388.82905269996263,None,389.5795499999076,None,,,,,,,[[0.65]],1.8800000000000012,0.7380952380952381,11031,001,2024_Jan_11_1030,MFTM_A_new1021,2021.2.3,60.073121000186276,
,,,,,,,,stim/Instruction_adaptive.png,conditions/adaptive.xlsx,test,-0.6,-0.6,-0.6,0.6,0.6,left,L,,,,,0,1,1,1,0,42,42,21,,,,,,,,,,,,,,,,,,,,,,,,,,,,,,,,,,,,,,,,,,,,390.08061669999734,None,left,1,1.3066944999154657,390.581169199897,392.8849683001172,390.581169199897,392.38380150008015,390.581169199897,392.38380150008015,390.581169199897,392.38380150008015,390.581169199897,392.38380150008015,390.581169199897,392.38380150008015,392.3508945000358,392.8512635000516,392.3508945000358,392.8512635000516,392.3508945000358,392.8512635000516,392.3508945000358,392.8512635000516,392.3508945000358,392.8512635000516,392.3508945000358,392.8512635000516,392.3508945000358,392.8512635000516,392.3508945000358,392.8512635000516,390.581169199897,None,392.8512635000516,393.535618300084,1.7900000000000014,393.5531697999686,None,394.3043641000986,None,,,,,,,[0.67697674],1.9300000000000013,0.7441860465116279,11031,001,2024_Jan_11_1030,MFTM_A_new1021,2021.2.3,60.073121000186276,
,,,,,,,,stim/Instruction_adaptive.png,conditions/adaptive.xlsx,test,0.6,0.6,0.6,-0.6,-0.6,right,R,,,,,0,1,1,1,0,43,43,92,,,,,,,,,,,,,,,,,,,,,,,,,,,,,,,,,,,,,,,,,,,,394.8047152000945,None,left,0,2.2313592000864446,395.30495409993455,397.5414487000089,395.30495409993455,397.04079369991086,395.30495409993455,397.04079369991086,395.30495409993455,397.04079369991086,395.30495409993455,397.04079369991086,395.30495409993455,397.04079369991086,397.02410409995355,397.5254255000036,397.02410409995355,397.5254255000036,397.02410409995355,397.5254255000036,397.02410409995355,397.5254255000036,397.02410409995355,397.5254255000036,397.02410409995355,397.5254255000036,397.02410409995355,397.5254255000036,397.02410409995355,397.5254255000036,395.30495409993455,None,397.5254255000036,398.21059200004674,1.7300000000000013,398.22530600009486,None,398.9782040999271,None,,,,,,,[0.67909091],1.7900000000000011,0.7272727272727273,11031,001,2024_Jan_11_1030,MFTM_A_new1021,2021.2.3,60.073121000186276,
,,,,,,,,stim/Instruction_adaptive.png,conditions/adaptive.xlsx,test,-0.6,-0.6,-0.6,0.6,0.6,left,L,,,,,0,1,1,1,0,44,44,79,,,,,,,,,,,,,,,,,,,,,,,,,,,,,,,,,,,,,,,,,,,,399.47776050004177,None,right,0,1.9812368999700993,399.97889919998124,402.3821483000647,399.97889919998124,401.8818351000082,399.97889919998124,401.8818351000082,399.97889919998124,401.8818351000082,399.97889919998124,401.8818351000082,399.97889919998124,401.8818351000082,401.86473800009117,402.3653764000628,401.86473800009117,402.3653764000628,401.86473800009117,402.3653764000628,401.86473800009117,402.3653764000628,401.86473800009117,402.3653764000628,401.86473800009117,402.3653764000628,401.86473800009117,402.3653764000628,401.86473800009117,402.3653764000628,399.97889919998124,None,402.3653764000628,402.9660328000318,1.9000000000000015,402.98272749991156,None,403.73412539996207,None,,,,,,,[[0.6]],1.640000000000001,0.7111111111111111,11031,001,2024_Jan_11_1030,MFTM_A_new1021,2021.2.3,60.073121000186276,
,,,,,,,,stim/Instruction_adaptive.png,conditions/adaptive.xlsx,test,-0.6,-0.6,-0.6,0.6,0.6,left,L,,,,,0,1,1,1,0,45,45,97,,,,,,,,,,,,,,,,,,,,,,,,,,,,,,,,,,,,,,,,,,,,404.2355440000538,None,left,1,2.216317000100389,404.7359841999132,407.35608049994335,404.7359841999132,406.85542819998227,404.7359841999132,406.85542819998227,404.7359841999132,406.85542819998227,404.7359841999132,406.85542819998227,404.7359841999132,406.85542819998227,406.8219520000275,407.32301890011877,406.8219520000275,407.32301890011877,406.8219520000275,407.32301890011877,406.8219520000275,407.32301890011877,406.8219520000275,407.32301890011877,406.8219520000275,407.32301890011877,406.8219520000275,407.32301890011877,406.8219520000275,407.32301890011877,404.7359841999132,None,407.32301890011877,407.7232751001138,2.1100000000000017,407.74006150010973,None,408.49185910006054,None,,,,,,,[[0.39]],1.700000000000001,0.717391304347826,11031,001,2024_Jan_11_1030,MFTM_A_new1021,2021.2.3,60.073121000186276,
,,,,,,,,stim/Instruction_adaptive.png,conditions/adaptive.xlsx,test,0.6,0.6,0.6,-0.6,-0.6,right,R,,,,,0,1,1,1,0,46,46,74,,,,,,,,,,,,,,,,,,,,,,,,,,,,,,,,,,,,,,,,,,,,408.99202340003103,None,right,1,2.3312013000249863,409.49256739998236,412.01297060004435,409.49256739998236,411.5123050000984,409.49256739998236,411.5123050000984,409.49256739998236,411.5123050000984,409.49256739998236,411.5123050000984,409.49256739998236,411.5123050000984,411.4962756000459,411.9962700000033,411.4962756000459,411.9962700000033,411.4962756000459,411.9962700000033,411.4962756000459,411.9962700000033,411.4962756000459,411.9962700000033,411.4962756000459,411.9962700000033,411.4962756000459,411.9962700000033,411.4962756000459,411.9962700000033,409.49256739998236,None,411.9962700000033,412.4806939000264,2.0200000000000014,412.497053100029,None,413.2495528999716,None,,,,,,,[[0.48]],1.750000000000001,0.723404255319149,11031,001,2024_Jan_11_1030,MFTM_A_new1021,2021.2.3,60.073121000186276,
,,,,,,,,stim/Instruction_adaptive.png,conditions/adaptive.xlsx,test,-0.6,-0.6,-0.6,0.6,0.6,left,L,,,,,0,1,1,1,0,47,47,27,,,,,,,,,,,,,,,,,,,,,,,,,,,,,,,,,,,,,,,,,,,,413.74908070010133,None,left,1,1.2542276999447495,414.2495969000738,416.7205388001166,414.2495969000738,416.2195077999495,414.2495969000738,416.2195077999495,414.2495969000738,416.2195077999495,414.2495969000738,416.2195077999495,414.2495969000738,416.2195077999495,416.1857437998988,416.68666710006073,416.1857437998988,416.68666710006073,416.1857437998988,416.68666710006073,416.1857437998988,416.68666710006073,416.1857437998988,416.68666710006073,416.1857437998988,416.68666710006073,416.1857437998988,416.68666710006073,416.1857437998988,416.68666710006073,414.2495969000738,None,416.68666710006073,417.238213500008,1.9600000000000015,417.2541463000234,None,418.0065240999684,None,,,,,,,[[0.54]],1.7900000000000011,0.7291666666666666,11031,001,2024_Jan_11_1030,MFTM_A_new1021,2021.2.3,60.073121000186276,
,,,,,,,,stim/Instruction_adaptive.png,conditions/adaptive.xlsx,test,0.6,0.6,0.6,-0.6,-0.6,right,R,,,,,0,1,1,1,0,48,48,8,,,,,,,,,,,,,,,,,,,,,,,,,,,,,,,,,,,,,,,,,,,,418.50628100009635,None,right,1,1.3369265000801533,419.00677310000174,421.4111528999638,419.00677310000174,420.90953229996376,419.00677310000174,420.90953229996376,419.00677310000174,420.90953229996376,419.00677310000174,420.90953229996376,419.00677310000174,420.90953229996376,420.89292149990797,421.393928400008,420.89292149990797,421.393928400008,420.89292149990797,421.393928400008,420.89292149990797,421.393928400008,420.89292149990797,421.393928400008,420.89292149990797,421.393928400008,420.89292149990797,421.393928400008,420.89292149990797,421.393928400008,419.00677310000174,None,421.393928400008,421.99452940002084,1.9000000000000015,422.0116886999458,None,422.7628796999343,None,,,,,,,[[0.6]],1.8400000000000012,0.7346938775510204,11031,001,2024_Jan_11_1030,MFTM_A_new1021,2021.2.3,60.073121000186276,
,,,,,,,,stim/Instruction_adaptive.png,conditions/adaptive.xlsx,test,-0.6,-0.6,-0.6,0.6,0.6,left,L,,,,,0,1,1,1,0,49,49,67,,,,,,,,,,,,,,,,,,,,,,,,,,,,,,,,,,,,,,,,,,,,423.26358980010264,None,left,1,1.9158001998439431,423.7638163000811,426.11668880004436,423.7638163000811,425.61651899991557,423.7638163000811,425.61651899991557,423.7638163000811,425.61651899991557,423.7638163000811,425.61651899991557,423.7638163000811,425.61651899991557,425.58424320002086,426.0835959999822,425.58424320002086,426.0835959999822,425.58424320002086,426.0835959999822,425.58424320002086,426.0835959999822,425.58424320002086,426.0835959999822,425.58424320002086,426.0835959999822,425.58424320002086,426.0835959999822,425.58424320002086,426.0835959999822,423.7638163000811,None,426.0835959999822,426.75144409993663,1.8400000000000014,426.7681656999048,None,427.5193473000545,None,,,,,,,[[0.66]],1.8800000000000012,0.74,11031,001,2024_Jan_11_1030,MFTM_A_new1021,2021.2.3,60.073121000186276,
,,,,,,,,stim/Instruction_adaptive.png,conditions/adaptive.xlsx,test,-0.6,-0.6,-0.6,0.6,0.6,left,L,,,,,0,1,1,1,0,50,50,43,,,,,,,,,,,,,,,,,,,,,,,,,,,,,,,,,,,,,,,,,,,,428.0203356000129,None,right,0,2.0623912001028657,428.52121390006505,430.82427620003,428.52121390006505,430.3236287001055,428.52121390006505,430.3236287001055,428.52121390006505,430.3236287001055,428.52121390006505,430.3236287001055,428.52121390006505,430.3236287001055,430.29010499990545,430.79091560002416,430.29010499990545,430.79091560002416,430.29010499990545,430.79091560002416,430.29010499990545,430.79091560002416,430.29010499990545,430.79091560002416,430.29010499990545,430.79091560002416,430.29010499990545,430.79091560002416,430.29010499990545,430.79091560002416,428.52121390006505,None,430.79091560002416,431.4587282000575,1.7900000000000014,431.4752384000458,None,432.22628820012324,None,,,,,,,[0.66392157],1.7600000000000011,0.7254901960784313,11031,001,2024_Jan_11_1030,MFTM_A_new1021,2021.2.3,60.073121000186276,
,,,,,,,,stim/Instruction_adaptive.png,conditions/adaptive.xlsx,test,-0.6,-0.6,-0.6,0.6,0.6,left,L,,,,,0,1,1,1,0,51,51,89,,,,,,,,,,,,,,,,,,,,,,,,,,,,,,,,,,,,,,,,,,,,432.7280008001253,None,left,1,1.9402324000839144,433.22764670010656,435.68144769989885,433.22764670010656,435.1807162000332,433.22764670010656,435.1807162000332,433.22764670010656,435.1807162000332,433.22764670010656,435.1807162000332,433.22764670010656,435.1807162000332,435.14710179995745,435.6478782000486,435.14710179995745,435.6478782000486,435.14710179995745,435.6478782000486,435.14710179995745,435.6478782000486,435.14710179995745,435.6478782000486,435.14710179995745,435.6478782000486,435.14710179995745,435.6478782000486,435.14710179995745,435.6478782000486,433.22764670010656,None,435.6478782000486,436.2158925998956,1.9400000000000015,436.2322348000016,None,436.98334700008854,None,,,,,,,[[0.56]],1.8000000000000012,0.7307692307692307,11031,001,2024_Jan_11_1030,MFTM_A_new1021,2021.2.3,60.073121000186276,
,,,,,,,,stim/Instruction_adaptive.png,conditions/adaptive.xlsx,test,-0.6,-0.6,-0.6,0.6,0.6,left,L,,,,,0,1,1,1,0,52,52,11,,,,,,,,,,,,,,,,,,,,,,,,,,,,,,,,,,,,,,,,,,,,437.4854969999287,None,left,1,1.7751339999958873,437.9848939999938,440.38898040005006,437.9848939999938,439.88883140007965,437.9848939999938,439.88883140007965,437.9848939999938,439.88883140007965,437.9848939999938,439.88883140007965,437.9848939999938,439.88883140007965,439.8544274000451,440.3557313999627,439.8544274000451,440.3557313999627,439.8544274000451,440.3557313999627,439.8544274000451,440.3557313999627,439.8544274000451,440.3557313999627,439.8544274000451,440.3557313999627,439.8544274000451,440.3557313999627,439.8544274000451,440.3557313999627,437.9848939999938,None,440.3557313999627,440.9743117999751,1.8900000000000015,440.98924000002444,None,441.74116230010986,None,,,,,,,[[0.61]],1.8400000000000012,0.7358490566037735,11031,001,2024_Jan_11_1030,MFTM_A_new1021,2021.2.3,60.073121000186276,
,,,,,,,,stim/Instruction_adaptive.png,conditions/adaptive.xlsx,test,-0.6,-0.6,-0.6,0.6,0.6,left,L,,,,,0,1,1,1,0,53,53,29,,,,,,,,,,,,,,,,,,,,,,,,,,,,,,,,,,,,,,,,,,,,442.2411120000761,None,right,0,2.1940182000398636,442.7418929999694,445.0961464000866,442.7418929999694,444.5946955999825,442.7418929999694,444.5946955999825,442.7418929999694,444.5946955999825,442.7418929999694,444.5946955999825,442.7418929999694,444.5946955999825,444.56131669995375,445.0621583000757,444.56131669995375,445.0621583000757,444.56131669995375,445.0621583000757,444.56131669995375,445.0621583000757,444.56131669995375,445.0621583000757,444.56131669995375,445.0621583000757,444.56131669995375,445.0621583000757,444.56131669995375,445.0621583000757,442.7418929999694,None,445.0621583000757,445.7296760000754,1.8400000000000014,445.7461967000272,None,446.4980784000363,None,,,,,,,[[0.66]],1.720000000000001,0.7222222222222222,11031,001,2024_Jan_11_1030,MFTM_A_new1021,2021.2.3,60.073121000186276,
,,,,,,,,stim/Instruction_adaptive.png,conditions/adaptive.xlsx,test,0.6,0.6,0.6,-0.6,-0.6,right,R,,,,,0,1,1,1,0,54,54,66,,,,,,,,,,,,,,,,,,,,,,,,,,,,,,,,,,,,,,,,,,,,446.9984257000033,None,left,0,2.0047347000800073,447.49896229989827,450.0033420000691,447.49896229989827,449.5019692000933,447.49896229989827,449.5019692000933,447.49896229989827,449.5019692000933,447.49896229989827,449.5019692000933,447.49896229989827,449.5019692000933,449.485246400116,449.9860056999605,449.485246400116,449.9860056999605,449.485246400116,449.9860056999605,449.485246400116,449.9860056999605,449.485246400116,449.9860056999605,449.485246400116,449.9860056999605,449.485246400116,449.9860056999605,449.485246400116,449.9860056999605,447.49896229989827,None,449.9860056999605,450.48729509999976,2.0000000000000018,450.5032514000777,None,451.2545165999327,None,,,,,,,[[0.5]],1.590000000000001,0.7090909090909091,11031,001,2024_Jan_11_1030,MFTM_A_new1021,2021.2.3,60.073121000186276,
,,,,,,,,stim/Instruction_adaptive.png,conditions/adaptive.xlsx,test,-0.6,-0.6,-0.6,0.6,0.6,left,L,,,,,0,1,1,1,0,55,55,3,,,,,,,,,,,,,,,,,,,,,,,,,,,,,,,,,,,,,,,,,,,,451.7555800001137,None,right,0,2.3518982001114637,452.2559851000551,454.9599993999582,452.2559851000551,454.4593160999939,452.2559851000551,454.4593160999939,452.2559851000551,454.4593160999939,452.2559851000551,454.4593160999939,452.2559851000551,454.4593160999939,454.42637620004825,454.9273850999307,454.42637620004825,454.9273850999307,454.42637620004825,454.9273850999307,454.42637620004825,454.9273850999307,454.42637620004825,454.9273850999307,454.42637620004825,454.9273850999307,454.42637620004825,454.9273850999307,454.42637620004825,454.9273850999307,452.2559851000551,None,454.9273850999307,455.2435373000335,2.1900000000000017,455.2611380000599,None,456.012430800125,None,,,,,,,[[0.31]],1.4500000000000008,0.6964285714285714,11031,001,2024_Jan_11_1030,MFTM_A_new1021,2021.2.3,60.073121000186276,
,,,,,,,,stim/Instruction_adaptive.png,conditions/adaptive.xlsx,test,0.6,0.6,0.6,-0.6,-0.6,right,R,,,,,0,1,1,1,0,56,56,0,,,,,,,,,,,,,,,,,,,,,,,,,,,,,,,,,,,,,,,,,,,,456.5130461999215,None,right,1,2.7866030000150204,457.013291799929,459.9359093999956,457.013291799929,459.43400090001523,457.013291799929,459.43400090001523,457.013291799929,459.43400090001523,457.013291799929,459.43400090001523,457.013291799929,459.43400090001523,459.40001900005154,459.90205470006913,459.40001900005154,459.90205470006913,459.40001900005154,459.90205470006913,459.40001900005154,459.90205470006913,459.40001900005154,459.90205470006913,459.40001900005154,459.90205470006913,459.40001900005154,459.90205470006913,459.40001900005154,459.90205470006913,457.013291799929,None,459.90205470006913,460.0010452999268,2.410000000000002,460.01733410009183,None,460.7693479999434,None,,,,,,,[[0.09]],1.5000000000000009,0.7017543859649122,11031,001,2024_Jan_11_1030,MFTM_A_new1021,2021.2.3,60.073121000186276,
,,,,,,,,stim/Instruction_adaptive.png,conditions/adaptive.xlsx,test,-0.6,-0.6,-0.6,0.6,0.6,left,L,,,,,0,1,1,1,0,57,57,47,,,,,,,,,,,,,,,,,,,,,,,,,,,,,,,,,,,,,,,,,,,,461.2696150999982,None,left,1,1.6216382998973131,461.77018210012466,464.60743080009706,461.77018210012466,464.1072146000806,461.77018210012466,464.1072146000806,461.77018210012466,464.1072146000806,461.77018210012466,464.1072146000806,461.77018210012466,464.1072146000806,464.0901836999692,464.5909702000208,464.0901836999692,464.5909702000208,464.0901836999692,464.5909702000208,464.0901836999692,464.5909702000208,464.0901836999692,464.5909702000208,464.0901836999692,464.5909702000208,464.0901836999692,464.5909702000208,464.0901836999692,464.5909702000208,461.77018210012466,None,464.5909702000208,None,2.330000000000002,464.77457779995166,None,465.5254496000707,None,,,,,,,[[0.17]],1.550000000000001,0.7068965517241379,11031,001,2024_Jan_11_1030,MFTM_A_new1021,2021.2.3,60.073121000186276,
,,,,,,,,stim/Instruction_adaptive.png,conditions/adaptive.xlsx,test,-0.6,-0.6,-0.6,0.6,0.6,left,L,,,,,0,1,1,1,0,58,58,59,,,,,,,,,,,,,,,,,,,,,,,,,,,,,,,,,,,,,,,,,,,,466.02642080001533,None,left,1,1.944550900021568,466.5271999000106,469.28158130007796,466.5271999000106,468.7809665000532,466.5271999000106,468.7809665000532,466.5271999000106,468.7809665000532,466.5271999000106,468.7809665000532,466.5271999000106,468.7809665000532,468.76386580010876,469.2645701000001,468.76386580010876,469.2645701000001,468.76386580010876,469.2645701000001,468.76386580010876,469.2645701000001,468.76386580010876,469.2645701000001,468.76386580010876,469.2645701000001,468.76386580010876,469.2645701000001,468.76386580010876,469.2645701000001,466.5271999000106,None,469.2645701000001,469.51587689993903,2.2500000000000018,469.53162469994277,None,470.2826570000034,None,,,,,,,[[0.25]],1.590000000000001,0.711864406779661,11031,001,2024_Jan_11_1030,MFTM_A_new1021,2021.2.3,60.073121000186276,
,,,,,,,,stim/Instruction_adaptive.png,conditions/adaptive.xlsx,test,0.6,0.6,0.6,-0.6,-0.6,right,R,,,,,0,1,1,1,0,59,59,6,,,,,,,,,,,,,,,,,,,,,,,,,,,,,,,,,,,,,,,,,,,,470.7836243000347,None,right,1,1.6042435001581907,471.2841785000637,473.9882531000767,471.2841785000637,473.4873804000672,471.2841785000637,473.4873804000672,471.2841785000637,473.4873804000672,471.2841785000637,473.4873804000672,471.2841785000637,473.4873804000672,473.4540673000738,473.954633400077,473.4540673000738,473.954633400077,473.4540673000738,473.954633400077,473.4540673000738,473.954633400077,473.4540673000738,473.954633400077,473.4540673000738,473.954633400077,473.4540673000738,473.954633400077,473.4540673000738,473.954633400077,471.2841785000637,None,473.954633400077,474.27261770004407,2.1900000000000017,474.2887277000118,None,475.04056090000086,None,,,,,,,[[0.31]],1.630000000000001,0.7166666666666667,11031,001,2024_Jan_11_1030,MFTM_A_new1021,2021.2.3,60.073121000186276,
,,,,,,,,stim/Instruction_adaptive.png,conditions/adaptive.xlsx,test,0.6,0.6,0.6,-0.6,-0.6,right,R,,,,,0,1,1,1,0,60,60,90,,,,,,,,,,,,,,,,,,,,,,,,,,,,,,,,,,,,,,,,,,,,475.54124319995753,None,left,0,2.3345805001445115,476.0415117999073,478.6785812000744,476.0415117999073,478.17755099991336,476.0415117999073,478.17755099991336,476.0415117999073,478.17755099991336,476.0415117999073,478.17755099991336,476.0415117999073,478.17755099991336,478.1612931001,478.6624827000778,478.1612931001,478.6624827000778,478.1612931001,478.6624827000778,478.1612931001,478.6624827000778,478.1612931001,478.6624827000778,478.1612931001,478.6624827000778,478.1612931001,478.6624827000778,478.1612931001,478.6624827000778,476.0415117999073,None,478.6624827000778,None,2.1300000000000017,479.04573390004225,None,479.79714890010655,None,,,,,,,[[0.37]],1.510000000000001,0.7049180327868853,11031,001,2024_Jan_11_1030,MFTM_A_new1021,2021.2.3,60.073121000186276,
,,,,,,,,stim/Instruction_adaptive.png,conditions/adaptive.xlsx,test,0.6,0.6,0.6,-0.6,-0.6,right,R,,,,,0,1,1,1,0,61,61,12,,,,,,,,,,,,,,,,,,,,,,,,,,,,,,,,,,,,,,,,,,,,480.29762080009095,None,right,1,1.8416609999258071,480.79847609996796,483.61966830003075,480.79847609996796,483.1195751999039,480.79847609996796,483.1195751999039,480.79847609996796,483.1195751999039,480.79847609996796,483.1195751999039,480.79847609996796,483.1195751999039,483.08504629996605,483.5865311000962,483.08504629996605,483.5865311000962,483.08504629996605,483.5865311000962,483.08504629996605,483.5865311000962,483.08504629996605,483.5865311000962,483.08504629996605,483.5865311000962,483.08504629996605,483.5865311000962,483.08504629996605,483.5865311000962,480.79847609996796,None,483.5865311000962,483.7865391999949,2.310000000000002,483.8027236000635,None,484.5538212999236,None,,,,,,,[[0.19]],1.560000000000001,0.7096774193548387,11031,001,2024_Jan_11_1030,MFTM_A_new1021,2021.2.3,60.073121000186276,
,,,,,,,,stim/Instruction_adaptive.png,conditions/adaptive.xlsx,test,0.6,0.6,0.6,-0.6,-0.6,right,R,,,,,0,1,1,1,0,62,62,60,,,,,,,,,,,,,,,,,,,,,,,,,,,,,,,,,,,,,,,,,,,,485.0545890999492,None,right,1,1.7404326000250876,485.55544069991447,488.2934232999105,485.55544069991447,487.79201440000907,485.55544069991447,487.79201440000907,485.55544069991447,487.79201440000907,485.55544069991447,487.79201440000907,485.55544069991447,487.79201440000907,487.75858030002564,488.2592814001255,487.75858030002564,488.2592814001255,487.75858030002564,488.2592814001255,487.75858030002564,488.2592814001255,487.75858030002564,488.2592814001255,487.75858030002564,488.2592814001255,487.75858030002564,488.2592814001255,487.75858030002564,488.2592814001255,485.55544069991447,None,488.2592814001255,488.543929599924,2.2300000000000018,488.5602619999554,None,489.31208750000224,None,,,,,,,[[0.27]],1.600000000000001,0.7142857142857143,11031,001,2024_Jan_11_1030,MFTM_A_new1021,2021.2.3,60.073121000186276,
,,,,,,,,stim/Instruction_adaptive.png,conditions/adaptive.xlsx,test,-0.6,-0.6,-0.6,0.6,0.6,left,L,,,,,0,1,1,1,0,63,63,5,,,,,,,,,,,,,,,,,,,,,,,,,,,,,,,,,,,,,,,,,,,,489.81176869990304,None,left,1,2.0318044999148697,490.3125968000386,492.9830910000019,490.3125968000386,492.483628799906,490.3125968000386,492.483628799906,490.3125968000386,492.483628799906,490.3125968000386,492.483628799906,490.3125968000386,492.483628799906,492.46552280010656,492.96673079999164,492.46552280010656,492.96673079999164,492.46552280010656,492.96673079999164,492.46552280010656,492.96673079999164,492.46552280010656,492.96673079999164,492.46552280010656,492.96673079999164,492.46552280010656,492.96673079999164,492.46552280010656,492.96673079999164,490.3125968000386,None,492.96673079999164,493.30054019996896,2.1700000000000017,493.31690370012075,None,494.0679729001131,None,,,,,,,[[0.33]],1.630000000000001,0.71875,11031,001,2024_Jan_11_1030,MFTM_A_new1021,2021.2.3,60.073121000186276,
,,,,,,,,stim/Instruction_adaptive.png,conditions/adaptive.xlsx,test,0.6,0.6,0.6,-0.6,-0.6,right,R,,,,,0,1,1,1,0,64,64,30,,,,,,,,,,,,,,,,,,,,,,,,,,,,,,,,,,,,,,,,,,,,494.5687478999607,None,right,1,2.546492400113493,495.0693983999081,497.7066166999284,495.0693983999081,497.20596960000694,495.0693983999081,497.20596960000694,495.0693983999081,497.20596960000694,495.0693983999081,497.20596960000694,495.0693983999081,497.20596960000694,497.18926119990647,497.68992420006543,497.18926119990647,497.68992420006543,497.18926119990647,497.68992420006543,497.18926119990647,497.68992420006543,497.18926119990647,497.68992420006543,497.18926119990647,497.68992420006543,497.18926119990647,497.68992420006543,497.18926119990647,497.68992420006543,495.0693983999081,None,497.6733262001071,498.0571542000398,2.1300000000000017,498.07384629989974,None,498.8249673000537,None,,,,,,,[[0.37]],1.670000000000001,0.7230769230769231,11031,001,2024_Jan_11_1030,MFTM_A_new1021,2021.2.3,60.073121000186276,
,,,,,,,,stim/Instruction_adaptive.png,conditions/adaptive.xlsx,test,0.6,0.6,0.6,-0.6,-0.6,right,R,,,,,0,1,1,1,0,65,65,28,,,,,,,,,,,,,,,,,,,,,,,,,,,,,,,,,,,,,,,,,,,,499.3269831999205,None,right,1,1.6933197998441756,499.82706080004573,502.3971704998985,499.82706080004573,501.8961521999445,499.82706080004573,501.8961521999445,499.82706080004573,501.8961521999445,499.82706080004573,501.8961521999445,499.82706080004573,501.8961521999445,501.87956460006535,502.38024599989876,501.87956460006535,502.38024599989876,501.87956460006535,502.38024599989876,501.87956460006535,502.38024599989876,501.87956460006535,502.38024599989876,501.87956460006535,502.38024599989876,501.87956460006535,502.38024599989876,501.87956460006535,502.38024599989876,499.82706080004573,None,502.38024599989876,502.8156353000086,2.0700000000000016,502.83153229998425,None,503.58274669991806,None,,,,,,,[[0.43]],1.710000000000001,0.7272727272727273,11031,001,2024_Jan_11_1030,MFTM_A_new1021,2021.2.3,60.073121000186276,
,,,,,,,,stim/Instruction_adaptive.png,conditions/adaptive.xlsx,test,0.6,0.6,0.6,-0.6,-0.6,right,R,,,,,0,1,1,1,0,66,66,62,,,,,,,,,,,,,,,,,,,,,,,,,,,,,,,,,,,,,,,,,,,,504.0840044999495,None,right,1,1.7924364001955837,504.5837515001185,507.10451340000145,504.5837515001185,506.6035710000433,504.5837515001185,506.6035710000433,504.5837515001185,506.6035710000433,504.5837515001185,506.6035710000433,504.5837515001185,506.6035710000433,506.5698679999914,507.07063940004446,506.5698679999914,507.07063940004446,506.5698679999914,507.07063940004446,506.5698679999914,507.07063940004446,506.5698679999914,507.07063940004446,506.5698679999914,507.07063940004446,506.5698679999914,507.07063940004446,506.5698679999914,507.07063940004446,504.5837515001185,None,507.07063940004446,507.57291999994777,2.0100000000000016,507.58794040000066,None,508.33935880009085,None,,,,,,,[[0.49]],1.740000000000001,0.7313432835820896,11031,001,2024_Jan_11_1030,MFTM_A_new1021,2021.2.3,60.073121000186276,
,,,,,,,,stim/Instruction_adaptive.png,conditions/adaptive.xlsx,test,0.6,0.6,0.6,-0.6,-0.6,right,R,,,,,0,1,1,1,0,67,67,38,,,,,,,,,,,,,,,,,,,,,,,,,,,,,,,,,,,,,,,,,,,,508.8397884001024,None,right,1,1.64330770005472,509.3405460000504,511.81091489992104,509.3405460000504,511.31113849999383,509.3405460000504,511.31113849999383,509.3405460000504,511.31113849999383,509.3405460000504,511.31113849999383,509.3405460000504,511.31113849999383,511.2938882999588,511.79514189995825,511.2938882999588,511.79514189995825,511.2938882999588,511.79514189995825,511.2938882999588,511.79514189995825,511.2938882999588,511.79514189995825,511.2938882999588,511.79514189995825,511.2938882999588,511.79514189995825,511.2938882999588,511.79514189995825,509.3405460000504,None,511.79514189995825,512.3288781999145,1.9700000000000015,512.3451916999184,None,513.0960826999508,None,,,,,,,[[0.53]],1.7700000000000011,0.7352941176470589,11031,001,2024_Jan_11_1030,MFTM_A_new1021,2021.2.3,60.073121000186276,
,,,,,,,,stim/Instruction_adaptive.png,conditions/adaptive.xlsx,test,0.6,0.6,0.6,-0.6,-0.6,right,R,,,,,0,1,1,1,0,68,68,26,,,,,,,,,,,,,,,,,,,,,,,,,,,,,,,,,,,,,,,,,,,,513.5967699000612,None,left,0,1.565920599969104,514.0988199000712,516.5352255001199,514.0988199000712,516.033833200112,514.0988199000712,516.033833200112,514.0988199000712,516.033833200112,514.0988199000712,516.033833200112,514.0988199000712,516.033833200112,516.0171513000969,516.518625299912,516.0171513000969,516.518625299912,516.0171513000969,516.518625299912,516.0171513000969,516.518625299912,516.0171513000969,516.518625299912,516.0171513000969,516.518625299912,516.0171513000969,516.518625299912,516.0171513000969,516.518625299912,514.0988199000712,None,516.518625299912,None,1.9300000000000015,517.1019431999885,None,517.8553611000534,None,,,,,,,[[0.57]],1.680000000000001,0.7246376811594203,11031,001,2024_Jan_11_1030,MFTM_A_new1021,2021.2.3,60.073121000186276,
,,,,,,,,stim/Instruction_adaptive.png,conditions/adaptive.xlsx,test,0.6,0.6,0.6,-0.6,-0.6,right,R,,,,,0,1,1,1,0,69,69,36,,,,,,,,,,,,,,,,,,,,,,,,,,,,,,,,,,,,,,,,,,,,518.3537947000004,None,right,1,2.128198399906978,518.8557084999047,521.4077109999489,518.8557084999047,520.9075345001183,518.8557084999047,520.9075345001183,518.8557084999047,520.9075345001183,518.8557084999047,520.9075345001183,518.8557084999047,520.9075345001183,520.8912520001177,521.3924165000208,520.8912520001177,521.3924165000208,520.8912520001177,521.3924165000208,520.8912520001177,521.3924165000208,520.8912520001177,521.3924165000208,520.8912520001177,521.3924165000208,520.8912520001177,521.3924165000208,520.8912520001177,521.3924165000208,518.8557084999047,None,521.3924165000208,521.8436531000771,2.0500000000000016,521.8589407999534,None,522.6101846999954,None,,,,,,,[[0.45]],1.710000000000001,0.7285714285714285,11031,001,2024_Jan_11_1030,MFTM_A_new1021,2021.2.3,60.073121000186276,
,,,,,,,,stim/Instruction_adaptive.png,conditions/adaptive.xlsx,test,-0.6,-0.6,-0.6,0.6,0.6,left,L,,,,,0,1,1,1,0,70,70,17,,,,,,,,,,,,,,,,,,,,,,,,,,,,,,,,,,,,,,,,,,,,523.1117303001229,None,left,1,1.9960700999945402,523.6118209999986,526.1326772000175,523.6118209999986,525.6318093999289,523.6118209999986,525.6318093999289,523.6118209999986,525.6318093999289,523.6118209999986,525.6318093999289,523.6118209999986,525.6318093999289,525.5979577999096,526.0993178000208,525.5979577999096,526.0993178000208,525.5979577999096,526.0993178000208,525.5979577999096,526.0993178000208,525.5979577999096,526.0993178000208,525.5979577999096,526.0993178000208,525.5979577999096,526.0993178000208,525.5979577999096,526.0993178000208,523.6118209999986,None,526.0993178000208,526.600178200053,2.0100000000000016,526.6161321001127,None,527.3671796000563,None,,,,,,,[[0.49]],1.740000000000001,0.7323943661971831,11031,001,2024_Jan_11_1030,MFTM_A_new1021,2021.2.3,60.073121000186276,
,,,,,,,,stim/Instruction_adaptive.png,conditions/adaptive.xlsx,test,0.6,0.6,0.6,-0.6,-0.6,right,R,,,,,0,1,1,1,0,71,71,88,,,,,,,,,,,,,,,,,,,,,,,,,,,,,,,,,,,,,,,,,,,,527.8680595001206,None,right,1,1.8704957999289036,528.3692463000771,530.8398740999401,528.3692463000771,530.3383077001199,528.3692463000771,530.3383077001199,528.3692463000771,530.3383077001199,528.3692463000771,530.3383077001199,528.3692463000771,530.3383077001199,530.3216266999952,530.8232251000591,530.3216266999952,530.8232251000591,530.3216266999952,530.8232251000591,530.3216266999952,530.8232251000591,530.3216266999952,530.8232251000591,530.3216266999952,530.8232251000591,530.3216266999952,530.8232251000591,530.3216266999952,530.8232251000591,528.3692463000771,None,530.8232251000591,531.3565231000539,1.9700000000000015,531.3732372000813,None,532.1243467999157,None,,,,,,,[[0.53]],1.7700000000000011,0.7361111111111112,11031,001,2024_Jan_11_1030,MFTM_A_new1021,2021.2.3,60.073121000186276,
,,,,,,,,stim/Instruction_adaptive.png,conditions/adaptive.xlsx,test,0.6,0.6,0.6,-0.6,-0.6,right,R,,,,,0,1,1,1,0,72,72,84,,,,,,,,,,,,,,,,,,,,,,,,,,,,,,,,,,,,,,,,,,,,532.625225600088,None,left,0,2.1054630000144243,533.1263810000382,535.5630795001052,533.1263810000382,535.0622527999803,533.1263810000382,535.0622527999803,533.1263810000382,535.0622527999803,533.1263810000382,535.0622527999803,533.1263810000382,535.0622527999803,535.0453445999883,535.5463992999867,535.0453445999883,535.5463992999867,535.0453445999883,535.5463992999867,535.0453445999883,535.5463992999867,535.0453445999883,535.5463992999867,535.0453445999883,535.5463992999867,535.0453445999883,535.5463992999867,535.0453445999883,535.5463992999867,533.1263810000382,None,535.5463992999867,None,1.9300000000000015,536.1308484999463,None,536.8825064001139,None,,,,,,,[[0.57]],1.680000000000001,0.726027397260274,11031,001,2024_Jan_11_1030,MFTM_A_new1021,2021.2.3,60.073121000186276,
,,,,,,,,stim/Instruction_adaptive.png,conditions/adaptive.xlsx,test,-0.6,-0.6,-0.6,0.6,0.6,left,L,,,,,0,1,1,1,0,73,73,37,,,,,,,,,,,,,,,,,,,,,,,,,,,,,,,,,,,,,,,,,,,,537.3821042999625,None,left,1,1.332676300080493,537.8832481999416,540.4371295999736,537.8832481999416,539.9366119999904,537.8832481999416,539.9366119999904,537.8832481999416,539.9366119999904,537.8832481999416,539.9366119999904,537.8832481999416,539.9366119999904,539.9198227000888,540.4199190000072,539.9198227000888,540.4199190000072,539.9198227000888,540.4199190000072,539.9198227000888,540.4199190000072,539.9198227000888,540.4199190000072,539.9198227000888,540.4199190000072,539.9198227000888,540.4199190000072,539.9198227000888,540.4199190000072,537.8832481999416,None,540.4199190000072,540.8713589999825,2.0500000000000016,540.8874007000122,None,541.6384855001234,None,,,,,,,[[0.45]],1.710000000000001,0.7297297297297297,11031,001,2024_Jan_11_1030,MFTM_A_new1021,2021.2.3,60.073121000186276,
,,,,,,,,stim/Instruction_adaptive.png,conditions/adaptive.xlsx,test,-0.6,-0.6,-0.6,0.6,0.6,left,L,,,,,0,1,1,1,0,74,74,23,,,,,,,,,,,,,,,,,,,,,,,,,,,,,,,,,,,,,,,,,,,,542.1400786999147,None,left,1,1.343319300096482,542.6404921000358,545.1607850000728,542.6404921000358,544.6595729999244,542.6404921000358,544.6595729999244,542.6404921000358,544.6595729999244,542.6404921000358,544.6595729999244,542.6404921000358,544.6595729999244,544.626302300021,545.1269253001083,544.626302300021,545.1269253001083,544.626302300021,545.1269253001083,544.626302300021,545.1269253001083,544.626302300021,545.1269253001083,544.626302300021,545.1269253001083,544.626302300021,545.1269253001083,544.626302300021,545.1269253001083,542.6404921000358,None,545.1269253001083,545.6282913000323,2.0100000000000016,545.645019599935,None,546.3957102999557,None,,,,,,,[[0.49]],1.740000000000001,0.7333333333333333,11031,001,2024_Jan_11_1030,MFTM_A_new1021,2021.2.3,60.073121000186276,
,,,,,,,,stim/Instruction_adaptive.png,conditions/adaptive.xlsx,test,-0.6,-0.6,-0.6,0.6,0.6,left,L,,,,,0,1,1,1,0,75,75,13,,,,,,,,,,,,,,,,,,,,,,,,,,,,,,,,,,,,,,,,,,,,546.8962137999479,None,left,1,0.9867453998886049,547.3972096999642,549.8679474999662,547.3972096999642,549.3674783001188,547.3972096999642,549.3674783001188,547.3972096999642,549.3674783001188,547.3972096999642,549.3674783001188,547.3972096999642,549.3674783001188,549.3498096999247,549.8506287001073,549.3498096999247,549.8506287001073,549.3498096999247,549.8506287001073,549.3498096999247,549.8506287001073,549.3498096999247,549.8506287001073,549.3498096999247,549.8506287001073,549.3498096999247,549.8506287001073,549.3498096999247,549.8506287001073,547.3972096999642,None,549.8506287001073,550.3853088999167,1.9700000000000015,550.4014640999958,None,551.1525556999259,None,,,,,,,[[0.53]],1.7700000000000011,0.7368421052631579,11031,001,2024_Jan_11_1030,MFTM_A_new1021,2021.2.3,60.073121000186276,
,,,,,,,,stim/Instruction_adaptive.png,conditions/adaptive.xlsx,test,0.6,0.6,0.6,-0.6,-0.6,right,R,,,,,0,1,1,1,0,76,76,72,,,,,,,,,,,,,,,,,,,,,,,,,,,,,,,,,,,,,,,,,,,,551.6538805000018,None,right,1,1.9983548999298364,552.1542295999825,554.591454599984,552.1542295999825,554.0907127000391,552.1542295999825,554.0907127000391,552.1542295999825,554.0907127000391,552.1542295999825,554.0907127000391,552.1542295999825,554.0907127000391,554.0736165998969,554.5747295001056,554.0736165998969,554.5747295001056,554.0736165998969,554.5747295001056,554.0736165998969,554.5747295001056,554.0736165998969,554.5747295001056,554.0736165998969,554.5747295001056,554.0736165998969,554.5747295001056,554.0736165998969,554.5747295001056,552.1542295999825,None,554.5747295001056,None,1.9300000000000015,555.158473599935,None,555.9100182999391,None,,,,,,,[[0.57]],1.8000000000000012,0.7402597402597403,11031,001,2024_Jan_11_1030,MFTM_A_new1021,2021.2.3,60.073121000186276,
,,,,,,,,stim/Instruction_adaptive.png,conditions/adaptive.xlsx,test,-0.6,-0.6,-0.6,0.6,0.6,left,L,,,,,0,1,1,1,0,77,77,41,,,,,,,,,,,,,,,,,,,,,,,,,,,,,,,,,,,,,,,,,,,,556.4106727999169,None,right,0,2.240820299834013,556.9110670001246,559.3150681999978,556.9110670001246,558.8144507000688,556.9110670001246,558.8144507000688,556.9110670001246,558.8144507000688,556.9110670001246,558.8144507000688,556.9110670001246,558.8144507000688,558.7806506999768,559.2812558000442,558.7806506999768,559.2812558000442,558.7806506999768,559.2812558000442,558.7806506999768,559.2812558000442,558.7806506999768,559.2812558000442,558.7806506999768,559.2812558000442,558.7806506999768,559.2812558000442,558.7806506999768,559.2812558000442,556.9110670001246,None,559.2812558000442,559.8656522000674,1.8900000000000015,559.898751599947,None,560.6506461000536,None,,,,,,,[0.58410256],1.720000000000001,0.7307692307692307,11031,001,2024_Jan_11_1030,MFTM_A_new1021,2021.2.3,60.073121000186276,
,,,,,,,,stim/Instruction_adaptive.png,conditions/adaptive.xlsx,test,-0.6,-0.6,-0.6,0.6,0.6,left,L,,,,,0,1,1,1,0,78,78,99,,,,,,,,,,,,,,,,,,,,,,,,,,,,,,,,,,,,,,,,,,,,561.1506564998999,None,left,1,1.9082436000462621,561.6518739000894,564.1561314000282,561.6518739000894,563.6552846999839,561.6518739000894,563.6552846999839,561.6518739000894,563.6552846999839,561.6518739000894,563.6552846999839,561.6518739000894,563.6552846999839,563.6376712000929,564.1384398001246,563.6376712000929,564.1384398001246,563.6376712000929,564.1384398001246,563.6376712000929,564.1384398001246,563.6376712000929,564.1384398001246,563.6376712000929,564.1384398001246,563.6376712000929,564.1384398001246,563.6376712000929,564.1384398001246,561.6518739000894,None,564.1384398001246,564.6405521999113,2.0000000000000018,564.6551981999073,None,565.4070121000987,None,,,,,,,[[0.5]],1.750000000000001,0.7341772151898734,11031,001,2024_Jan_11_1030,MFTM_A_new1021,2021.2.3,60.073121000186276,
,,,,,,,,stim/Instruction_adaptive.png,conditions/adaptive.xlsx,test,0.6,0.6,0.6,-0.6,-0.6,right,R,,,,,0,1,1,1,0,79,79,20,,,,,,,,,,,,,,,,,,,,,,,,,,,,,,,,,,,,,,,,,,,,565.907830900047,None,right,1,2.168567100074142,566.4082623000722,568.8788077000063,566.4082623000722,568.3781266999431,566.4082623000722,568.3781266999431,566.4082623000722,568.3781266999431,566.4082623000722,568.3781266999431,566.4082623000722,568.3781266999431,568.3447497000452,568.8453146000393,568.3447497000452,568.8453146000393,568.3447497000452,568.8453146000393,568.3447497000452,568.8453146000393,568.3447497000452,568.8453146000393,568.3447497000452,568.8453146000393,568.3447497000452,568.8453146000393,568.3447497000452,568.8453146000393,566.4082623000722,None,568.8453146000393,569.3974697000813,1.9600000000000015,569.4132358001079,None,570.1651649000123,None,,,,,,,[[0.54]],1.7700000000000011,0.7375,11031,001,2024_Jan_11_1030,MFTM_A_new1021,2021.2.3,60.073121000186276,
,,,,,,,,stim/Instruction_adaptive.png,conditions/adaptive.xlsx,test,-0.6,-0.6,-0.6,0.6,0.6,left,L,,,,,0,1,1,1,0,80,80,7,,,,,,,,,,,,,,,,,,,,,,,,,,,,,,,,,,,,,,,,,,,,570.6646336999256,None,left,1,1.4502583998255432,571.1655180000234,573.6027516999748,571.1655180000234,573.1023347999435,571.1655180000234,573.1023347999435,571.1655180000234,573.1023347999435,571.1655180000234,573.1023347999435,571.1655180000234,573.1023347999435,573.0849576001056,573.586347799981,573.0849576001056,573.586347799981,573.0849576001056,573.586347799981,573.0849576001056,573.586347799981,573.0849576001056,573.586347799981,573.0849576001056,573.586347799981,573.0849576001056,573.586347799981,573.0849576001056,573.586347799981,571.1655180000234,None,573.586347799981,None,1.9300000000000015,574.1700969000813,None,574.9216891999822,None,,,,,,,[[0.57]],1.8000000000000012,0.7407407407407407,11031,001,2024_Jan_11_1030,MFTM_A_new1021,2021.2.3,60.073121000186276,
,,,,,,,,stim/Instruction_adaptive.png,conditions/adaptive.xlsx,test,-0.6,-0.6,-0.6,0.6,0.6,left,L,,,,,0,1,1,1,0,81,81,65,,,,,,,,,,,,,,,,,,,,,,,,,,,,,,,,,,,,,,,,,,,,575.4219404000323,None,left,1,1.8134602000936866,575.922753999941,578.3261041999795,575.922753999941,577.8253754999023,575.922753999941,577.8253754999023,575.922753999941,577.8253754999023,575.922753999941,577.8253754999023,575.922753999941,577.8253754999023,577.791846799897,578.2928178999573,577.791846799897,578.2928178999573,577.791846799897,578.2928178999573,577.791846799897,578.2928178999573,577.791846799897,578.2928178999573,577.791846799897,578.2928178999573,577.791846799897,578.2928178999573,577.791846799897,578.2928178999573,575.922753999941,None,578.2928178999573,578.876773300115,1.8900000000000015,578.9104444000404,None,579.6626709999982,None,,,,,,,[0.58268293],1.8200000000000012,0.7439024390243902,11031,001,2024_Jan_11_1030,MFTM_A_new1021,2021.2.3,60.073121000186276,
,,,,,,,,stim/Instruction_adaptive.png,conditions/adaptive.xlsx,test,0.6,0.6,0.6,-0.6,-0.6,right,R,,,,,0,1,1,1,0,82,82,78,,,,,,,,,,,,,,,,,,,,,,,,,,,,,,,,,,,,,,,,,,,,580.1634943999816,None,left,0,2.160965699935332,580.6629900999833,583.0331399999559,580.6629900999833,582.5322740999982,580.6629900999833,582.5322740999982,580.6629900999833,582.5322740999982,580.6629900999833,582.5322740999982,580.6629900999833,582.5322740999982,582.4991558000911,582.9999963999726,582.4991558000911,582.9999963999726,582.4991558000911,582.9999963999726,582.4991558000911,582.9999963999726,582.4991558000911,582.9999963999726,582.4991558000911,582.9999963999726,582.4991558000911,582.9999963999726,582.4991558000911,582.9999963999726,580.6629900999833,None,582.9999963999726,583.5840443000197,1.8600000000000014,583.617287900066,None,584.3686486000661,None,,,,,,,[0.58337349],1.750000000000001,0.7349397590361446,11031,001,2024_Jan_11_1030,MFTM_A_new1021,2021.2.3,60.073121000186276,
,,,,,,,,stim/Instruction_adaptive.png,conditions/adaptive.xlsx,test,-0.6,-0.6,-0.6,0.6,0.6,left,L,,,,,0,1,1,1,0,83,83,49,,,,,,,,,,,,,,,,,,,,,,,,,,,,,,,,,,,,,,,,,,,,584.8699833999854,None,left,1,1.2058404998388141,585.3700294001028,587.8402072000317,585.3700294001028,587.3399060999509,585.3700294001028,587.3399060999509,585.3700294001028,587.3399060999509,585.3700294001028,587.3399060999509,585.3700294001028,587.3399060999509,587.3069742999505,587.8074892000295,587.3069742999505,587.8074892000295,587.3069742999505,587.8074892000295,587.3069742999505,587.8074892000295,587.3069742999505,587.8074892000295,587.3069742999505,587.8074892000295,587.3069742999505,587.8074892000295,587.3069742999505,587.8074892000295,585.3700294001028,None,587.8074892000295,588.3602525999304,1.9600000000000015,588.3924046000466,None,589.1427080000285,None,,,,,,,[[0.54]],1.7800000000000011,0.7380952380952381,11031,001,2024_Jan_11_1030,MFTM_A_new1021,2021.2.3,60.073121000186276,
,,,,,,,,stim/Instruction_adaptive.png,conditions/adaptive.xlsx,test,0.6,0.6,0.6,-0.6,-0.6,right,R,,,,,0,1,1,1,0,84,84,42,,,,,,,,,,,,,,,,,,,,,,,,,,,,,,,,,,,,,,,,,,,,589.6440053998958,None,right,1,1.9368541999720037,590.1437637999188,592.5642548000906,590.1437637999188,592.063855699962,590.1437637999188,592.063855699962,590.1437637999188,592.063855699962,590.1437637999188,592.063855699962,590.1437637999188,592.063855699962,592.0475924001075,592.54721660004,592.0475924001075,592.54721660004,592.0475924001075,592.54721660004,592.0475924001075,592.54721660004,592.0475924001075,592.54721660004,592.0475924001075,592.54721660004,592.0475924001075,592.54721660004,592.0475924001075,592.54721660004,590.1437637999188,None,592.54721660004,593.1322683000471,1.9200000000000015,593.1486599000636,None,593.8994028000161,None,,,,,,,[[0.58]],1.8000000000000012,0.7411764705882353,11031,001,2024_Jan_11_1030,MFTM_A_new1021,2021.2.3,60.073121000186276,
,,,,,,,,stim/Instruction_adaptive.png,conditions/adaptive.xlsx,test,0.6,0.6,0.6,-0.6,-0.6,right,R,,,,,0,1,1,1,0,85,85,4,,,,,,,,,,,,,,,,,,,,,,,,,,,,,,,,,,,,,,,,,,,,594.4004540999886,None,right,1,1.6114509999752045,594.9005380000453,597.3044658999424,594.9005380000453,596.8035395999905,594.9005380000453,596.8035395999905,594.9005380000453,596.8035395999905,594.9005380000453,596.8035395999905,594.9005380000453,596.8035395999905,596.7703205998987,597.2713246000931,596.7703205998987,597.2713246000931,596.7703205998987,597.2713246000931,596.7703205998987,597.2713246000931,596.7703205998987,597.2713246000931,596.7703205998987,597.2713246000931,596.7703205998987,597.2713246000931,596.7703205998987,597.2713246000931,594.9005380000453,None,597.2713246000931,597.8550499000121,1.8900000000000015,597.8884775999468,None,598.6397134000435,None,,,,,,,[0.58313953],1.8200000000000012,0.7441860465116279,11031,001,2024_Jan_11_1030,MFTM_A_new1021,2021.2.3,60.073121000186276,
,,,,,,,,stim/Instruction_adaptive.png,conditions/adaptive.xlsx,test,0.6,0.6,0.6,-0.6,-0.6,right,R,,,,,0,1,1,1,0,86,86,16,,,,,,,,,,,,,,,,,,,,,,,,,,,,,,,,,,,,,,,,,,,,599.1405819999054,None,right,1,1.6862591998651624,599.6420015001204,602.0112733999267,599.6420015001204,601.5106877000071,599.6420015001204,601.5106877000071,599.6420015001204,601.5106877000071,599.6420015001204,601.5106877000071,599.6420015001204,601.5106877000071,601.477238799911,601.9777182999533,601.477238799911,601.9777182999533,601.477238799911,601.9777182999533,601.477238799911,601.9777182999533,601.477238799911,601.9777182999533,601.477238799911,601.9777182999533,601.477238799911,601.9777182999533,601.477238799911,601.9777182999533,599.6420015001204,None,601.9777182999533,602.5630155999679,1.8600000000000014,602.5952878999524,None,603.3470785000827,None,,,,,,,[0.5837931],1.8500000000000012,0.7471264367816092,11031,001,2024_Jan_11_1030,MFTM_A_new1021,2021.2.3,60.073121000186276,
,,,,,,,,stim/Instruction_adaptive.png,conditions/adaptive.xlsx,test,-0.6,-0.6,-0.6,0.6,0.6,left,L,,,,,0,1,1,1,0,87,87,75,,,,,,,,,,,,,,,,,,,,,,,,,,,,,,,,,,,,,,,,,,,,603.8471633999143,None,left,1,1.506481199990958,604.349628899945,606.6851935999002,604.349628899945,606.1844454000238,604.349628899945,606.1844454000238,604.349628899945,606.1844454000238,604.349628899945,606.1844454000238,604.349628899945,606.1844454000238,606.1516076999251,606.6514892999548,606.1516076999251,606.6514892999548,606.1516076999251,606.6514892999548,606.1516076999251,606.6514892999548,606.1516076999251,606.6514892999548,606.1516076999251,606.6514892999548,606.1516076999251,606.6514892999548,606.1516076999251,606.6514892999548,604.349628899945,None,606.6514892999548,607.2357046999969,1.8200000000000014,607.2690775999799,None,608.020320000127,None,,,,,,,[0.58488636],1.8700000000000012,0.75,11031,001,2024_Jan_11_1030,MFTM_A_new1021,2021.2.3,60.073121000186276,
,,,,,,,,stim/Instruction_adaptive.png,conditions/adaptive.xlsx,test,0.6,0.6,0.6,-0.6,-0.6,right,R,,,,,0,1,1,1,0,88,88,86,,,,,,,,,,,,,,,,,,,,,,,,,,,,,,,,,,,,,,,,,,,,608.5208151999395,None,left,0,2.0425056000240147,609.0216419000644,611.3255726001225,609.0216419000644,610.8248729000334,609.0216419000644,610.8248729000334,609.0216419000644,610.8248729000334,609.0216419000644,610.8248729000334,609.0216419000644,610.8248729000334,610.807428299915,611.3086564999539,610.807428299915,611.3086564999539,610.807428299915,611.3086564999539,610.807428299915,611.3086564999539,610.807428299915,611.3086564999539,610.807428299915,611.3086564999539,610.807428299915,611.3086564999539,610.807428299915,611.3086564999539,609.0216419000644,None,611.3086564999539,None,1.8000000000000014,611.9091938000638,None,612.6608671001159,None,,,,,,,[0.58617978],1.8000000000000012,0.7415730337078652,11031,001,2024_Jan_11_1030,MFTM_A_new1021,2021.2.3,60.073121000186276,
,,,,,,,,stim/Instruction_adaptive.png,conditions/adaptive.xlsx,test,0.6,0.6,0.6,-0.6,-0.6,right,R,,,,,0,1,1,1,0,89,89,80,,,,,,,,,,,,,,,,,,,,,,,,,,,,,,,,,,,,,,,,,,,,613.161761000054,None,right,1,1.5623482998926193,613.6618282001,616.0666644999292,613.6618282001,615.5656125000678,613.6618282001,615.5656125000678,613.6618282001,615.5656125000678,613.6618282001,615.5656125000678,613.6618282001,615.5656125000678,615.5312892000657,616.0319783999585,615.5312892000657,616.0319783999585,615.5312892000657,616.0319783999585,615.5312892000657,616.0319783999585,615.5312892000657,616.0319783999585,615.5312892000657,616.0319783999585,615.5312892000657,616.0319783999585,615.5312892000657,616.0319783999585,613.6618282001,None,616.0319783999585,616.6322578000836,1.8900000000000015,616.6495966000948,None,617.4014836999122,None,,,,,,,[0.58644444],1.8300000000000012,0.7444444444444445,11031,001,2024_Jan_11_1030,MFTM_A_new1021,2021.2.3,60.073121000186276,
,,,,,,,,stim/Instruction_adaptive.png,conditions/adaptive.xlsx,test,0.6,0.6,0.6,-0.6,-0.6,right,R,,,,,0,1,1,1,0,90,90,40,,,,,,,,,,,,,,,,,,,,,,,,,,,,,,,,,,,,,,,,,,,,617.901678299997,None,right,1,1.3658974999561906,618.4025731999427,620.7557973999064,618.4025731999427,620.2555786999874,618.4025731999427,620.2555786999874,618.4025731999427,620.2555786999874,618.4025731999427,620.2555786999874,618.4025731999427,620.2555786999874,620.2382014000323,620.7394747000653,620.2382014000323,620.7394747000653,620.2382014000323,620.7394747000653,620.2382014000323,620.7394747000653,620.2382014000323,620.7394747000653,620.2382014000323,620.7394747000653,620.2382014000323,620.7394747000653,620.2382014000323,620.7394747000653,618.4025731999427,None,620.7394747000653,None,1.8500000000000014,621.3398982000072,None,622.0910219999496,None,,,,,,,[0.58714286],1.8500000000000012,0.7472527472527473,11031,001,2024_Jan_11_1030,MFTM_A_new1021,2021.2.3,60.073121000186276,
,,,,,,,,stim/Instruction_adaptive.png,conditions/adaptive.xlsx,test,0.6,0.6,0.6,-0.6,-0.6,right,R,,,,,0,1,1,1,0,91,91,44,,,,,,,,,,,,,,,,,,,,,,,,,,,,,,,,,,,,,,,,,,,,622.5924333001021,None,left,0,1.4677287000231445,623.0923937999178,625.4134601000696,623.0923937999178,624.9117564999033,623.0923937999178,624.9117564999033,623.0923937999178,624.9117564999033,623.0923937999178,624.9117564999033,623.0923937999178,624.9117564999033,624.8960466000717,625.3963639999274,624.8960466000717,625.3963639999274,624.8960466000717,625.3963639999274,624.8960466000717,625.3963639999274,624.8960466000717,625.3963639999274,624.8960466000717,625.3963639999274,624.8960466000717,625.3963639999274,624.8960466000717,625.3963639999274,623.0923937999178,None,625.3963639999274,625.996803099988,1.8200000000000014,626.0133352000266,None,626.7648177999072,None,,,,,,,[0.58815217],1.7800000000000011,0.7391304347826086,11031,001,2024_Jan_11_1030,MFTM_A_new1021,2021.2.3,60.073121000186276,
,,,,,,,,stim/Instruction_adaptive.png,conditions/adaptive.xlsx,test,-0.6,-0.6,-0.6,0.6,0.6,left,L,,,,,0,1,1,1,0,92,92,45,,,,,,,,,,,,,,,,,,,,,,,,,,,,,,,,,,,,,,,,,,,,627.2660570000298,None,left,1,2.161848400020972,627.7660823999904,630.1863484000787,627.7660823999904,629.686260699993,627.7660823999904,629.686260699993,627.7660823999904,629.686260699993,627.7660823999904,629.686260699993,627.7660823999904,629.686260699993,629.6692627999,630.1703860999551,629.6692627999,630.1703860999551,629.6692627999,630.1703860999551,629.6692627999,630.1703860999551,629.6692627999,630.1703860999551,629.6692627999,630.1703860999551,629.6692627999,630.1703860999551,629.6692627999,630.1703860999551,627.7660823999904,None,630.1703860999551,630.7548970000353,1.9200000000000015,630.771190200001,None,631.5223052001093,None,,,,,,,[[0.58]],1.8100000000000012,0.7419354838709677,11031,001,2024_Jan_11_1030,MFTM_A_new1021,2021.2.3,60.073121000186276,
,,,,,,,,stim/Instruction_adaptive.png,conditions/adaptive.xlsx,test,0.6,0.6,0.6,-0.6,-0.6,right,R,,,,,0,1,1,1,0,93,93,14,,,,,,,,,,,,,,,,,,,,,,,,,,,,,,,,,,,,,,,,,,,,632.02252150001,None,right,1,1.4129035000223666,632.5230791999493,634.9108522001188,632.5230791999493,634.409622099949,632.5230791999493,634.409622099949,632.5230791999493,634.409622099949,632.5230791999493,634.409622099949,632.5230791999493,634.409622099949,634.3926480999216,634.8942798001226,634.3926480999216,634.8942798001226,634.3926480999216,634.8942798001226,634.3926480999216,634.8942798001226,634.3926480999216,634.8942798001226,634.3926480999216,634.8942798001226,634.3926480999216,634.8942798001226,634.3926480999216,634.8942798001226,632.5230791999493,None,634.8765418999828,635.4778732999694,1.8800000000000014,635.4942147999536,None,636.2457820000127,None,,,,,,,[0.58840426],1.8300000000000012,0.7446808510638298,11031,001,2024_Jan_11_1030,MFTM_A_new1021,2021.2.3,60.073121000186276,
