arrwidth1,arrwidth2,arrwidth3,arrwidth4,arrwidth5,keyb,type,orientation,instruction_image,block_filename,block_type,arrow11,arrow22,arrow33,arrow44,arrow55,keyb_3,orientation3,trials.thisRepN,trials.thisTrialN,trials.thisN,trials.thisIndex,trials_3.thisRepN,trials_3.thisTrialN,trials_3.thisN,trials_3.thisIndex,trials_2.thisRepN,trials_2.thisTrialN,trials_2.thisN,trials_2.thisIndex,welcome.started,welcome.stopped,key_resp.keys,key_resp.rt,key_resp.started,key_resp.stopped,instruction_example.started,instruction_example.stopped,key_resp_3.keys,key_resp_3.rt,key_resp_3.started,key_resp_3.stopped,instruction_task.started,instruction_task.stopped,key_resp_2.keys,key_resp_2.rt,key_resp_2.started,key_resp_2.stopped,text_2.started,text_2.stopped,A1.started,A1.stopped,A2.started,A2.stopped,A3.started,A3.stopped,A4.started,A4.stopped,A5.started,A5.stopped,key_resp_4.keys,key_resp_4.corr,key_resp_4.rt,key_resp_4.started,key_resp_4.stopped,fb.started,fb.stopped,instruction_block.started,instruction_block.stopped,key_resp_8.keys,key_resp_8.rt,key_resp_8.started,key_resp_8.stopped,text_8.started,text_8.stopped,key_resp_9.keys,key_resp_9.corr,key_resp_9.rt,text_5.started,text_5.stopped,A11_3.started,A11_3.stopped,A22_2.started,A22_2.stopped,A33_2.started,A33_2.stopped,A44_2.started,A44_2.stopped,A55_2.started,A55_2.stopped,M1_3.started,M1_3.stopped,M2_2.started,M2_2.stopped,M3_2.started,M3_2.stopped,M4_2.started,M4_2.stopped,M5_2.started,M5_2.stopped,M6_2.started,M6_2.stopped,M7_2.started,M7_2.stopped,M8_2.started,M8_2.stopped,key_resp_9.started,key_resp_9.stopped,fixation.started,fixation.stopped,ET,fb_3.started,fb_3.stopped,text_9.started,text_9.stopped,fb_4.started,fb_4.stopped,text_7.started,text_7.stopped,endtext.started,endtext.stopped,fixation_ITI,CCC,Acc,participant,session,date,expName,psychopyVersion,frameRate,
,,,,,,,,,,,,,,,,,,,,,,,,,,,,,,13.701985700055957,None,space,12.205009900033474,13.701985700055957,None,,,,,,,,,,,,,,,,,,,,,,,,,,,,,,,,,,,,,,,,,,,,,,,,,,,,,,,,,,,,,,,,,,,,,,,,,,,,,,,,,,,,,,,,,11035,001,2024_Mar_10_1340,MFTM_A_new1021,2021.2.3,59.86858843743362,
,,,,,,,,,,,,,,,,,,,,,,,,,,,,,,,,,,,,25.921167300082743,None,space,8.409525300143287,25.921167300082743,None,,,,,,,,,,,,,,,,,,,,,,,,,,,,,,,,,,,,,,,,,,,,,,,,,,,,,,,,,,,,,,,,,,,,,,,,,,,,,,,,,,,11035,001,2024_Mar_10_1340,MFTM_A_new1021,2021.2.3,59.86858843743362,
,,,,,,,,,,,,,,,,,,,,,,,,,,,,,,,,,,,,,,,,,,34.35069840005599,None,space,2.9398185000754893,34.35069840005599,None,,,,,,,,,,,,,,,,,,,,,,,,,,,,,,,,,,,,,,,,,,,,,,,,,,,,,,,,,,,,,,,,,,,,,,,,,,,,,11035,001,2024_Mar_10_1340,MFTM_A_new1021,2021.2.3,59.86858843743362,
0.6,0.6,0.6,-0.6,-0.6,right,3:2,R,,,,,,,,,,,0,0,0,0,,,,,,,,,,,,,,,,,,,,,,,,,,,37.340050200000405,None,37.340050200000405,None,37.340050200000405,None,37.340050200000405,None,37.340050200000405,None,37.340050200000405,None,right,1,3.974999299971387,37.340050200000405,None,41.361225500004366,None,,,,,,,,,,,,,,,,,,,,,,,,,,,,,,,,,,,,,,,,,,,,,,,,,,,,,,,,,,11035,001,2024_Mar_10_1340,MFTM_A_new1021,2021.2.3,59.86858843743362,
-0.6,-0.6,-0.6,0.6,0.6,left,3:2,L,,,,,,,,,,,0,1,1,1,,,,,,,,,,,,,,,,,,,,,,,,,,,42.11338789993897,None,42.11338789993897,None,42.11338789993897,None,42.11338789993897,None,42.11338789993897,None,42.11338789993897,None,left,1,3.2651750000659376,42.11338789993897,None,45.40072780009359,None,,,,,,,,,,,,,,,,,,,,,,,,,,,,,,,,,,,,,,,,,,,,,,,,,,,,,,,,,,11035,001,2024_Mar_10_1340,MFTM_A_new1021,2021.2.3,59.86858843743362,
-0.6,-0.6,-0.6,0.6,0.6,left,3:2,L,,,,,,,,,,,1,0,2,1,,,,,,,,,,,,,,,,,,,,,,,,,,,46.15177790005691,None,46.15177790005691,None,46.15177790005691,None,46.15177790005691,None,46.15177790005691,None,46.15177790005691,None,left,1,2.4990348999854177,46.15177790005691,None,48.67302950005978,None,,,,,,,,,,,,,,,,,,,,,,,,,,,,,,,,,,,,,,,,,,,,,,,,,,,,,,,,,,11035,001,2024_Mar_10_1340,MFTM_A_new1021,2021.2.3,59.86858843743362,
0.6,0.6,0.6,-0.6,-0.6,right,3:2,R,,,,,,,,,,,1,1,3,0,,,,,,,,,,,,,,,,,,,,,,,,,,,49.42336830007844,None,49.42336830007844,None,49.42336830007844,None,49.42336830007844,None,49.42336830007844,None,49.42336830007844,None,right,1,3.475956599926576,49.42336830007844,None,52.92872750014067,None,,,,,,,,,,,,,,,,,,,,,,,,,,,,,,,,,,,,,,,,,,,,,,,,,,,,,,,,,,11035,001,2024_Mar_10_1340,MFTM_A_new1021,2021.2.3,59.86858843743362,
,,,,,,,,stim/Instruction_mask.png,conditions/adaptive.xlsx,practice,-0.6,-0.6,-0.6,0.6,0.6,left,L,,,,,0,0,0,0,0,0,0,45,,,,,,,,,,,,,,,,,,,,,,,,,,,,,,,,,,,,,,53.879915999947116,None,space,9.379544399911538,53.879915999947116,None,63.36146089993417,None,left,1,2.456256400095299,63.79507700004615,None,63.79507700004615,66.79954629996791,63.79507700004615,66.79954629996791,63.79507700004615,66.79954629996791,63.79507700004615,66.79954629996791,63.79507700004615,66.79954629996791,66.7830483999569,67.28363219997846,66.7830483999569,67.28363219997846,66.7830483999569,67.28363219997846,66.7830483999569,67.28363219997846,66.7830483999569,67.28363219997846,66.7830483999569,67.28363219997846,66.7830483999569,67.28363219997846,66.7830483999569,67.28363219997846,63.79507700004615,None,67.28363219997846,67.28363219997846,3,67.30042589991353,None,68.05207749991678,None,,,,,,,,,,11035,001,2024_Mar_10_1340,MFTM_A_new1021,2021.2.3,59.86858843743362,
,,,,,,,,stim/Instruction_mask.png,conditions/adaptive.xlsx,practice,0.6,0.6,0.6,-0.6,-0.6,right,R,,,,,0,0,0,0,0,1,1,48,,,,,,,,,,,,,,,,,,,,,,,,,,,,,,,,,,,,,,,,,,,,68.55242800014094,None,left,0,2.1352377999573946,69.05316370003857,71.05642169993371,69.05316370003857,70.55494970013388,69.05316370003857,70.55494970013388,69.05316370003857,70.55494970013388,69.05316370003857,70.55494970013388,69.05316370003857,70.55494970013388,70.53840110008605,71.04039530013688,70.53840110008605,71.04039530013688,70.53840110008605,71.04039530013688,70.53840110008605,71.04039530013688,70.53840110008605,71.04039530013688,70.53840110008605,71.04039530013688,70.53840110008605,71.04039530013688,70.53840110008605,71.04039530013688,69.05316370003857,None,71.04039530013688,72.54243110003881,1.5,72.558197400067,None,73.30939790001139,None,,,,,,,,,,11035,001,2024_Mar_10_1340,MFTM_A_new1021,2021.2.3,59.86858843743362,
,,,,,,,,stim/Instruction_mask.png,conditions/adaptive.xlsx,practice,-0.6,-0.6,-0.6,0.6,0.6,left,L,,,,,0,0,0,0,0,2,2,71,,,,,,,,,,,,,,,,,,,,,,,,,,,,,,,,,,,,,,,,,,,,73.81016360013746,None,right,0,2.3965442997869104,74.3110356000252,75.61286920006387,74.3110356000252,75.1122280000709,74.3110356000252,75.1122280000709,74.3110356000252,75.1122280000709,74.3110356000252,75.1122280000709,74.3110356000252,75.1122280000709,75.0955606000498,75.5963149999734,75.0955606000498,75.5963149999734,75.0955606000498,75.5963149999734,75.0955606000498,75.5963149999734,75.0955606000498,75.5963149999734,75.0955606000498,75.5963149999734,75.0955606000498,75.5963149999734,75.0955606000498,75.5963149999734,74.3110356000252,None,75.5963149999734,77.79936149995774,0.8,77.81621600012295,None,78.56746569997631,None,,,,,,,,,,11035,001,2024_Mar_10_1340,MFTM_A_new1021,2021.2.3,59.86858843743362,
,,,,,,,,stim/Instruction_mask.png,conditions/adaptive.xlsx,practice,-0.6,-0.6,-0.6,0.6,0.6,left,L,,,,,0,0,0,0,0,3,3,49,,,,,,,,,,,,,,,,,,,,,,,,,,,,,,,,,,,,,,,,,,,,79.06824860000052,None,right,0,1.3074434997979552,79.56874120002612,80.31989019992761,79.56874120002612,79.81917860009708,79.56874120002612,79.81917860009708,79.56874120002612,79.81917860009708,79.56874120002612,79.81917860009708,79.56874120002612,79.81917860009708,79.80264350003563,80.30320889991708,79.80264350003563,80.30320889991708,79.80264350003563,80.30320889991708,79.80264350003563,80.30320889991708,79.80264350003563,80.30320889991708,79.80264350003563,80.30320889991708,79.80264350003563,80.30320889991708,79.80264350003563,80.30320889991708,79.56874120002612,None,80.30320889991708,83.05741130001843,3,83.0741242999211,None,83.8254116999451,None,,,,,,,,,,11035,001,2024_Mar_10_1340,MFTM_A_new1021,2021.2.3,59.86858843743362,
,,,,,,,,stim/Instruction_mask.png,conditions/adaptive.xlsx,practice,,,,,,,,,,,,0,0,0,0,,,,,,,,,,,,,,,,,,,,,,,,,,,,,,,,,,,,,,,,,,,,,,,,,,,,,,,,,,,,,,,,,,,,,,,,,,,,,,,,,,,,,,,,,,84.37645970005542,85.3776962000411,85.36125650000758,85.36125650000758,85.36125650000758,None,,,,11035,001,2024_Mar_10_1340,MFTM_A_new1021,2021.2.3,59.86858843743362,
,,,,,,,,stim/Instruction_adaptive.png,conditions/adaptive.xlsx,test,-0.6,-0.6,-0.6,0.6,0.6,left,L,,,,,0,1,1,1,0,0,0,1,,,,,,,,,,,,,,,,,,,,,,,,,,,,,,,,,,,,,,88.49891029996797,None,space,17.041743600042537,88.49891029996797,None,105.59274800005369,None,left,1,2.2491927000228316,106.0755014999304,None,106.0755014999304,109.0799352999311,106.0755014999304,109.0799352999311,106.0755014999304,109.0799352999311,106.0755014999304,109.0799352999311,106.0755014999304,109.0799352999311,109.0635965000838,109.56473889993504,109.0635965000838,109.56473889993504,109.0635965000838,109.56473889993504,109.0635965000838,109.56473889993504,109.0635965000838,109.56473889993504,109.0635965000838,109.56473889993504,109.0635965000838,109.56473889993504,109.0635965000838,109.56473889993504,106.0755014999304,None,109.56473889993504,109.56473889993504,3,109.58073520008475,None,110.33292850013822,None,,,,,,,0,6.000000000000005,1.0,11035,001,2024_Mar_10_1340,MFTM_A_new1021,2021.2.3,59.86858843743362,
,,,,,,,,stim/Instruction_adaptive.png,conditions/adaptive.xlsx,test,0.6,0.6,0.6,-0.6,-0.6,right,R,,,,,0,1,1,1,0,1,1,20,,,,,,,,,,,,,,,,,,,,,,,,,,,,,,,,,,,,,,,,,,,,110.83261319994926,None,right,1,1.2549455999396741,111.3335615999531,112.08460630010813,111.3335615999531,111.58388729998842,111.3335615999531,111.58388729998842,111.3335615999531,111.58388729998842,111.3335615999531,111.58388729998842,111.3335615999531,111.58388729998842,111.56713270000182,112.06892410013825,111.56713270000182,112.06892410013825,111.56713270000182,112.06892410013825,111.56713270000182,112.06892410013825,111.56713270000182,112.06892410013825,111.56713270000182,112.06892410013825,111.56713270000182,112.06892410013825,111.56713270000182,112.06892410013825,111.3335615999531,None,112.06892410013825,112.95328469993547,0.25,112.96911099995486,None,113.72106530005112,None,,,,,,,[0.875],6.000000000000005,1.0,11035,001,2024_Mar_10_1340,MFTM_A_new1021,2021.2.3,59.86858843743362,
,,,,,,,,stim/Instruction_adaptive.png,conditions/adaptive.xlsx,test,-0.6,-0.6,-0.6,0.6,0.6,left,L,,,,,0,1,1,1,0,2,2,21,,,,,,,,,,,,,,,,,,,,,,,,,,,,,,,,,,,,,,,,,,,,114.22095620003529,None,left,1,1.170972099993378,114.72198690008372,115.47540200012736,114.72198690008372,114.97232270007953,114.72198690008372,114.97232270007953,114.72198690008372,114.97232270007953,114.72198690008372,114.97232270007953,114.72198690008372,114.97232270007953,114.95561880012974,115.45643040002324,114.95561880012974,115.45643040002324,114.95561880012974,115.45643040002324,114.95561880012974,115.45643040002324,114.95561880012974,115.45643040002324,114.95561880012974,115.45643040002324,114.95561880012974,115.45643040002324,114.95561880012974,115.45643040002324,114.72198690008372,None,115.45643040002324,116.79244709992781,0.25,116.80918450001627,None,117.56045330013148,None,,,,,,,[1.33333333],6.000000000000005,1.0,11035,001,2024_Mar_10_1340,MFTM_A_new1021,2021.2.3,59.86858843743362,
,,,,,,,,stim/Instruction_adaptive.png,conditions/adaptive.xlsx,test,0.6,0.6,0.6,-0.6,-0.6,right,R,,,,,0,1,1,1,0,3,3,48,,,,,,,,,,,,,,,,,,,,,,,,,,,,,,,,,,,,,,,,,,,,118.06041339994408,None,right,1,1.1866743999999017,118.56193779991008,119.3133867001161,118.56193779991008,118.81176770012826,118.56193779991008,118.81176770012826,118.56193779991008,118.81176770012826,118.56193779991008,118.81176770012826,118.56193779991008,118.81176770012826,118.79596629994921,119.29622040013783,118.79596629994921,119.29622040013783,118.79596629994921,119.29622040013783,118.79596629994921,119.29622040013783,118.79596629994921,119.29622040013783,118.79596629994921,119.29622040013783,118.79596629994921,119.29622040013783,118.79596629994921,119.29622040013783,118.56193779991008,None,119.29622040013783,120.86559200007468,0.25,120.88124229991809,None,121.63292210013606,None,,,,,,,[1.5625],6.000000000000005,1.0,11035,001,2024_Mar_10_1340,MFTM_A_new1021,2021.2.3,59.86858843743362,
,,,,,,,,stim/Instruction_adaptive.png,conditions/adaptive.xlsx,test,0.6,0.6,0.6,-0.6,-0.6,right,R,,,,,0,1,1,1,0,4,4,76,,,,,,,,,,,,,,,,,,,,,,,,,,,,,,,,,,,,,,,,,,,,122.13395110005513,None,right,1,1.0753323000390083,122.63391630002297,123.38575170002878,122.63391630002297,122.88436449994333,122.63391630002297,122.88436449994333,122.63391630002297,122.88436449994333,122.63391630002297,122.88436449994333,122.63391630002297,122.88436449994333,122.86770300008357,123.36881690006703,122.86770300008357,123.36881690006703,122.86770300008357,123.36881690006703,122.86770300008357,123.36881690006703,122.86770300008357,123.36881690006703,122.86770300008357,123.36881690006703,122.86770300008357,123.36881690006703,122.86770300008357,123.36881690006703,122.63391630002297,None,123.36881690006703,125.07176720001735,0.25,125.08747479994781,None,125.8391619999893,None,,,,,,,[1.7],6.000000000000005,1.0,11035,001,2024_Mar_10_1340,MFTM_A_new1021,2021.2.3,59.86858843743362,
,,,,,,,,stim/Instruction_adaptive.png,conditions/adaptive.xlsx,test,0.6,0.6,0.6,-0.6,-0.6,right,R,,,,,0,1,1,1,0,5,5,64,,,,,,,,,,,,,,,,,,,,,,,,,,,,,,,,,,,,,,,,,,,,126.33999329991639,None,left,0,1.0290433999616653,126.84032640000805,127.59161110012792,126.84032640000805,127.09185769991018,126.84032640000805,127.09185769991018,126.84032640000805,127.09185769991018,126.84032640000805,127.09185769991018,126.84032640000805,127.09185769991018,127.0739158000797,127.57464469992556,127.0739158000797,127.57464469992556,127.0739158000797,127.57464469992556,127.0739158000797,127.57464469992556,127.0739158000797,127.57464469992556,127.0739158000797,127.57464469992556,127.0739158000797,127.57464469992556,127.0739158000797,127.57464469992556,126.84032640000805,None,127.57464469992556,129.37795150000602,0.25,129.3939585001208,None,130.14590210001916,None,,,,,,,[1.79166667],5.1200000000000045,0.8333333333333334,11035,001,2024_Mar_10_1340,MFTM_A_new1021,2021.2.3,59.86858843743362,
,,,,,,,,stim/Instruction_adaptive.png,conditions/adaptive.xlsx,test,0.6,0.6,0.6,-0.6,-0.6,right,R,,,,,0,1,1,1,0,6,6,30,,,,,,,,,,,,,,,,,,,,,,,,,,,,,,,,,,,,,,,,,,,,130.64690000005066,None,left,0,1.2347621000371873,131.14675870002247,131.89819370000623,131.14675870002247,131.39714509993792,131.14675870002247,131.39714509993792,131.14675870002247,131.39714509993792,131.14675870002247,131.39714509993792,131.14675870002247,131.39714509993792,131.3810576000251,131.8813021001406,131.3810576000251,131.8813021001406,131.3810576000251,131.8813021001406,131.3810576000251,131.8813021001406,131.3810576000251,131.8813021001406,131.3810576000251,131.8813021001406,131.3810576000251,131.8813021001406,131.3810576000251,131.8813021001406,131.14675870002247,None,131.8813021001406,133.75049969996326,0.25,133.76762769999914,None,134.51849279995076,None,,,,,,,[1.85714286],3.990000000000003,0.7142857142857143,11035,001,2024_Mar_10_1340,MFTM_A_new1021,2021.2.3,59.86858843743362,
,,,,,,,,stim/Instruction_adaptive.png,conditions/adaptive.xlsx,test,0.6,0.6,0.6,-0.6,-0.6,right,R,,,,,0,1,1,1,0,7,7,68,,,,,,,,,,,,,,,,,,,,,,,,,,,,,,,,,,,,,,,,,,,,135.01933340006508,None,right,1,1.1659498000517488,135.51984540000558,136.43785120011307,135.51984540000558,135.93848220002837,135.51984540000558,135.93848220002837,135.51984540000558,135.93848220002837,135.51984540000558,135.93848220002837,135.51984540000558,135.93848220002837,135.90497509995475,136.40463900007308,135.90497509995475,136.40463900007308,135.90497509995475,136.40463900007308,135.90497509995475,136.40463900007308,135.90497509995475,136.40463900007308,135.90497509995475,136.40463900007308,135.90497509995475,136.40463900007308,135.90497509995475,136.40463900007308,135.51984540000558,None,136.40463900007308,138.2908775000833,0.41000000000000014,138.3241228000261,None,139.07634279993363,None,,,,,,,[1.88625],4.4200000000000035,0.75,11035,001,2024_Mar_10_1340,MFTM_A_new1021,2021.2.3,59.86858843743362,
,,,,,,,,stim/Instruction_adaptive.png,conditions/adaptive.xlsx,test,-0.6,-0.6,-0.6,0.6,0.6,left,L,,,,,0,1,1,1,0,8,8,75,,,,,,,,,,,,,,,,,,,,,,,,,,,,,,,,,,,,,,,,,,,,139.5759755000472,None,left,1,1.0325859000440687,140.07680579996668,140.89569879998453,140.07680579996668,140.39393300004303,140.07680579996668,140.39393300004303,140.07680579996668,140.39393300004303,140.07680579996668,140.39393300004303,140.07680579996668,140.39393300004303,140.3772740000859,140.87812070013024,140.3772740000859,140.87812070013024,140.3772740000859,140.87812070013024,140.3772740000859,140.87812070013024,140.3772740000859,140.87812070013024,140.3772740000859,140.87812070013024,140.3772740000859,140.87812070013024,140.3772740000859,140.87812070013024,140.07680579996668,None,140.87812070013024,142.79804460005835,0.31000000000000005,142.814372099936,None,143.56545430002734,None,,,,,,,[1.92],4.700000000000004,0.7777777777777778,11035,001,2024_Mar_10_1340,MFTM_A_new1021,2021.2.3,59.86858843743362,
,,,,,,,,stim/Instruction_adaptive.png,conditions/adaptive.xlsx,test,-0.6,-0.6,-0.6,0.6,0.6,left,L,,,,,0,1,1,1,0,9,9,53,,,,,,,,,,,,,,,,,,,,,,,,,,,,,,,,,,,,,,,,,,,,144.06616190006025,None,left,1,1.77480149990879,144.56687769992277,145.31858810014091,144.56687769992277,144.81810700008646,144.56687769992277,144.81810700008646,144.56687769992277,144.81810700008646,144.56687769992277,144.81810700008646,144.56687769992277,144.81810700008646,144.8006527000107,145.30195780005306,144.8006527000107,145.30195780005306,144.8006527000107,145.30195780005306,144.8006527000107,145.30195780005306,144.8006527000107,145.30195780005306,144.8006527000107,145.30195780005306,144.8006527000107,145.30195780005306,144.8006527000107,145.30195780005306,144.56687769992277,None,145.30195780005306,147.25435449997894,0.25,147.27224469999783,None,148.02217680006288,None,,,,,,,[1.953],4.9200000000000035,0.8,11035,001,2024_Mar_10_1340,MFTM_A_new1021,2021.2.3,59.86858843743362,
,,,,,,,,stim/Instruction_adaptive.png,conditions/adaptive.xlsx,test,0.6,0.6,0.6,-0.6,-0.6,right,R,,,,,0,1,1,1,0,10,10,92,,,,,,,,,,,,,,,,,,,,,,,,,,,,,,,,,,,,,,,,,,,,148.52273810002953,None,right,1,0.7819143999367952,149.02460350003093,149.77693530009128,149.02460350003093,149.27406059997156,149.02460350003093,149.27406059997156,149.02460350003093,149.27406059997156,149.02460350003093,149.27406059997156,149.02460350003093,149.27406059997156,149.25717739993706,149.75809919997118,149.25717739993706,149.75809919997118,149.25717739993706,149.75809919997118,149.25717739993706,149.75809919997118,149.25717739993706,149.75809919997118,149.25717739993706,149.75809919997118,149.25717739993706,149.75809919997118,149.25717739993706,149.75809919997118,149.02460350003093,None,149.75809919997118,151.745137500111,0.25,151.7617985000834,None,152.5131244000513,None,,,,,,,[1.98],5.090000000000004,0.8181818181818182,11035,001,2024_Mar_10_1340,MFTM_A_new1021,2021.2.3,59.86858843743362,
,,,,,,,,stim/Instruction_adaptive.png,conditions/adaptive.xlsx,test,-0.6,-0.6,-0.6,0.6,0.6,left,L,,,,,0,1,1,1,0,11,11,15,,,,,,,,,,,,,,,,,,,,,,,,,,,,,,,,,,,,,,,,,,,,153.01365850004368,None,left,1,1.2921402000356466,153.51381190004759,154.26561599993147,153.51381190004759,153.7647671001032,153.51381190004759,153.7647671001032,153.51381190004759,153.7647671001032,153.51381190004759,153.7647671001032,153.51381190004759,153.7647671001032,153.74783249991015,154.24804809992202,153.74783249991015,154.24804809992202,153.74783249991015,154.24804809992202,153.74783249991015,154.24804809992202,153.74783249991015,154.24804809992202,153.74783249991015,154.24804809992202,153.74783249991015,154.24804809992202,153.74783249991015,154.24804809992202,153.51381190004759,None,154.24804809992202,156.25271230004728,0.25,156.2678533999715,None,157.01952699990943,None,,,,,,,[2.0025],5.230000000000004,0.8333333333333334,11035,001,2024_Mar_10_1340,MFTM_A_new1021,2021.2.3,59.86858843743362,
,,,,,,,,stim/Instruction_adaptive.png,conditions/adaptive.xlsx,test,-0.6,-0.6,-0.6,0.6,0.6,left,L,,,,,0,1,1,1,0,12,12,47,,,,,,,,,,,,,,,,,,,,,,,,,,,,,,,,,,,,,,,,,,,,157.5197103000246,None,right,0,1.841279499931261,158.0206393999979,158.77242160006426,158.0206393999979,158.27187080006115,158.0206393999979,158.27187080006115,158.0206393999979,158.27187080006115,158.0206393999979,158.27187080006115,158.0206393999979,158.27187080006115,158.25567870005034,158.75541400001384,158.25567870005034,158.75541400001384,158.25567870005034,158.75541400001384,158.25567870005034,158.75541400001384,158.25567870005034,158.75541400001384,158.25567870005034,158.75541400001384,158.25567870005034,158.75541400001384,158.25567870005034,158.75541400001384,158.0206393999979,None,158.75541400001384,None,0.25,160.7909142000135,None,161.54322040011175,None,,,,,,,[2.02153846],4.7100000000000035,0.7692307692307693,11035,001,2024_Mar_10_1340,MFTM_A_new1021,2021.2.3,59.86858843743362,
,,,,,,,,stim/Instruction_adaptive.png,conditions/adaptive.xlsx,test,0.6,0.6,0.6,-0.6,-0.6,right,R,,,,,0,1,1,1,0,13,13,88,,,,,,,,,,,,,,,,,,,,,,,,,,,,,,,,,,,,,,,,,,,,162.0436671001371,None,left,0,1.0774789000861347,162.54465209995396,163.2958873999305,162.54465209995396,162.79442159994505,162.54465209995396,162.79442159994505,162.54465209995396,162.79442159994505,162.54465209995396,162.79442159994505,162.54465209995396,162.79442159994505,162.77826320007443,163.2784502999857,162.77826320007443,163.2784502999857,162.77826320007443,163.2784502999857,162.77826320007443,163.2784502999857,162.77826320007443,163.2784502999857,162.77826320007443,163.2784502999857,162.77826320007443,163.2784502999857,162.77826320007443,163.2784502999857,162.54465209995396,None,163.2784502999857,165.31546370009892,0.25,165.33158900006674,None,166.08291450003162,None,,,,,,,[2.03785714],4.240000000000004,0.7142857142857143,11035,001,2024_Mar_10_1340,MFTM_A_new1021,2021.2.3,59.86858843743362,
,,,,,,,,stim/Instruction_adaptive.png,conditions/adaptive.xlsx,test,-0.6,-0.6,-0.6,0.6,0.6,left,L,,,,,0,1,1,1,0,14,14,69,,,,,,,,,,,,,,,,,,,,,,,,,,,,,,,,,,,,,,,,,,,,166.58330380008556,None,right,0,1.042432599933818,167.08434320008382,167.93551440001465,167.08434320008382,167.43607429997064,167.08434320008382,167.43607429997064,167.08434320008382,167.43607429997064,167.08434320008382,167.43607429997064,167.08434320008382,167.43607429997064,167.41889049997553,167.919140300015,167.41889049997553,167.919140300015,167.41889049997553,167.919140300015,167.41889049997553,167.919140300015,167.41889049997553,167.919140300015,167.41889049997553,167.919140300015,167.41889049997553,167.919140300015,167.41889049997553,167.919140300015,167.08434320008382,None,167.919140300015,169.97198599996045,0.3500000000000001,169.98843579995446,None,170.74050820013508,None,,,,,,,[2.04533333],3.6200000000000028,0.6666666666666666,11035,001,2024_Mar_10_1340,MFTM_A_new1021,2021.2.3,59.86858843743362,
,,,,,,,,stim/Instruction_adaptive.png,conditions/adaptive.xlsx,test,0.6,0.6,0.6,-0.6,-0.6,right,R,,,,,0,1,1,1,0,15,15,4,,,,,,,,,,,,,,,,,,,,,,,,,,,,,,,,,,,,,,,,,,,,171.24131710012443,None,left,0,1.7123046000488102,171.74217530013993,172.79349640011787,171.74217530013993,172.2927896999754,171.74217530013993,172.2927896999754,171.74217530013993,172.2927896999754,171.74217530013993,172.2927896999754,171.74217530013993,172.2927896999754,172.25927589996718,172.760528099956,172.25927589996718,172.760528099956,172.25927589996718,172.760528099956,172.25927589996718,172.760528099956,172.25927589996718,172.760528099956,172.25927589996718,172.760528099956,172.25927589996718,172.760528099956,172.25927589996718,172.760528099956,171.74217530013993,None,172.760528099956,174.7297394000925,0.5400000000000003,174.7465481001418,None,175.49761310010217,None,,,,,,,[[1.96]],2.7700000000000022,0.625,11035,001,2024_Mar_10_1340,MFTM_A_new1021,2021.2.3,59.86858843743362,
,,,,,,,,stim/Instruction_adaptive.png,conditions/adaptive.xlsx,test,-0.6,-0.6,-0.6,0.6,0.6,left,L,,,,,0,1,1,1,0,16,16,83,,,,,,,,,,,,,,,,,,,,,,,,,,,,,,,,,,,,,,,,,,,,175.99764170008712,None,left,1,1.732156400103122,176.4983980001416,177.96839760011062,176.4983980001416,177.4665765000973,176.4983980001416,177.4665765000973,176.4983980001416,177.4665765000973,176.4983980001416,177.4665765000973,176.4983980001416,177.4665765000973,177.43357009999454,177.93544379994273,177.43357009999454,177.93544379994273,177.43357009999454,177.93544379994273,177.43357009999454,177.93544379994273,177.43357009999454,177.93544379994273,177.43357009999454,177.93544379994273,177.43357009999454,177.93544379994273,177.43357009999454,177.93544379994273,176.4983980001416,None,177.93544379994273,179.48672490008175,0.9600000000000006,179.50299119995907,None,180.25403339997865,None,,,,,,,[[1.54]],3.1400000000000023,0.6470588235294118,11035,001,2024_Mar_10_1340,MFTM_A_new1021,2021.2.3,59.86858843743362,
,,,,,,,,stim/Instruction_adaptive.png,conditions/adaptive.xlsx,test,0.6,0.6,0.6,-0.6,-0.6,right,R,,,,,0,1,1,1,0,17,17,60,,,,,,,,,,,,,,,,,,,,,,,,,,,,,,,,,,,,,,,,,,,,180.75490509998053,None,right,1,1.4691413000691682,181.25728030013852,182.50857380009256,181.25728030013852,182.00666010007262,181.25728030013852,182.00666010007262,181.25728030013852,182.00666010007262,181.25728030013852,182.00666010007262,181.25728030013852,182.00666010007262,181.99022109992802,182.49090020009317,181.99022109992802,182.49090020009317,181.99022109992802,182.49090020009317,181.99022109992802,182.49090020009317,181.99022109992802,182.49090020009317,181.99022109992802,182.49090020009317,181.99022109992802,182.49090020009317,181.99022109992802,182.49090020009317,181.25728030013852,None,182.49090020009317,184.2440969001036,0.7500000000000004,184.26004580012523,None,185.01213539997116,None,,,,,,,[[1.75]],3.4000000000000026,0.6666666666666666,11035,001,2024_Mar_10_1340,MFTM_A_new1021,2021.2.3,59.86858843743362,
,,,,,,,,stim/Instruction_adaptive.png,conditions/adaptive.xlsx,test,-0.6,-0.6,-0.6,0.6,0.6,left,L,,,,,0,1,1,1,0,18,18,35,,,,,,,,,,,,,,,,,,,,,,,,,,,,,,,,,,,,,,,,,,,,185.5127093999181,None,left,1,1.2259571000467986,186.0128115999978,187.14813000010327,186.0128115999978,186.64714720007032,186.0128115999978,186.64714720007032,186.0128115999978,186.64714720007032,186.0128115999978,186.64714720007032,186.0128115999978,186.64714720007032,186.6137101999484,187.11446770001203,186.6137101999484,187.11446770001203,186.6137101999484,187.11446770001203,186.6137101999484,187.11446770001203,186.6137101999484,187.11446770001203,186.6137101999484,187.11446770001203,186.6137101999484,187.11446770001203,186.6137101999484,187.11446770001203,186.0128115999978,None,187.11446770001203,189.0014273999259,0.6200000000000003,189.0175290000625,None,189.76890820008703,None,,,,,,,[[1.88]],3.6000000000000028,0.6842105263157895,11035,001,2024_Mar_10_1340,MFTM_A_new1021,2021.2.3,59.86858843743362,
,,,,,,,,stim/Instruction_adaptive.png,conditions/adaptive.xlsx,test,-0.6,-0.6,-0.6,0.6,0.6,left,L,,,,,0,1,1,1,0,19,19,17,,,,,,,,,,,,,,,,,,,,,,,,,,,,,,,,,,,,,,,,,,,,190.26934170001186,None,left,1,1.9092870999593288,190.76988609996624,191.82242930005305,190.76988609996624,191.32068040012382,190.76988609996624,191.32068040012382,190.76988609996624,191.32068040012382,190.76988609996624,191.32068040012382,190.76988609996624,191.32068040012382,191.28750040009618,191.78872630000114,191.28750040009618,191.78872630000114,191.28750040009618,191.78872630000114,191.28750040009618,191.78872630000114,191.28750040009618,191.78872630000114,191.28750040009618,191.78872630000114,191.28750040009618,191.78872630000114,191.28750040009618,191.78872630000114,190.76988609996624,None,191.78872630000114,193.7578670999501,0.5400000000000003,193.7745217999909,None,194.52621640008874,None,,,,,,,[[1.96]],3.760000000000003,0.7,11035,001,2024_Mar_10_1340,MFTM_A_new1021,2021.2.3,59.86858843743362,
,,,,,,,,stim/Instruction_adaptive.png,conditions/adaptive.xlsx,test,0.6,0.6,0.6,-0.6,-0.6,right,R,,,,,0,1,1,1,0,20,20,58,,,,,,,,,,,,,,,,,,,,,,,,,,,,,,,,,,,,,,,,,,,,195.02630589995533,None,right,1,2.726585000054911,195.52855579997413,196.52938210009597,195.52855579997413,196.02782650012523,195.52855579997413,196.02782650012523,195.52855579997413,196.02782650012523,195.52855579997413,196.02782650012523,195.52855579997413,196.02782650012523,195.99459589994512,196.49575260002166,195.99459589994512,196.49575260002166,195.99459589994512,196.49575260002166,195.99459589994512,196.49575260002166,195.99459589994512,196.49575260002166,195.99459589994512,196.49575260002166,195.99459589994512,196.49575260002166,195.99459589994512,196.49575260002166,195.52855579997413,None,196.49575260002166,198.4996273999568,0.4900000000000002,198.5151448000688,None,199.2662295999471,None,,,,,,,[1.98952381],3.8900000000000032,0.7142857142857143,11035,001,2024_Mar_10_1340,MFTM_A_new1021,2021.2.3,59.86858843743362,
,,,,,,,,stim/Instruction_adaptive.png,conditions/adaptive.xlsx,test,0.6,0.6,0.6,-0.6,-0.6,right,R,,,,,0,1,1,1,0,21,21,14,,,,,,,,,,,,,,,,,,,,,,,,,,,,,,,,,,,,,,,,,,,,199.76715909992345,None,right,1,1.4680898000951856,200.26752749993466,201.21953080012463,200.26752749993466,200.71825670008548,200.26752749993466,200.71825670008548,200.26752749993466,200.71825670008548,200.26752749993466,200.71825670008548,200.26752749993466,200.71825670008548,200.68493880005553,201.18570069991983,200.68493880005553,201.18570069991983,200.68493880005553,201.18570069991983,200.68493880005553,201.18570069991983,200.68493880005553,201.18570069991983,200.68493880005553,201.18570069991983,200.68493880005553,201.18570069991983,200.68493880005553,201.18570069991983,200.26752749993466,None,201.18570069991983,203.18937129992992,0.44000000000000017,203.2063287999481,None,203.95734439999796,None,,,,,,,[1.99272727],4.010000000000003,0.7272727272727273,11035,001,2024_Mar_10_1340,MFTM_A_new1021,2021.2.3,59.86858843743362,
,,,,,,,,stim/Instruction_adaptive.png,conditions/adaptive.xlsx,test,-0.6,-0.6,-0.6,0.6,0.6,left,L,,,,,0,1,1,1,0,22,22,25,,,,,,,,,,,,,,,,,,,,,,,,,,,,,,,,,,,,,,,,,,,,204.45796009991318,None,left,1,1.4562540999613702,204.9590416001156,205.87711989996023,204.9590416001156,205.3750764001161,204.9590416001156,205.3750764001161,204.9590416001156,205.3750764001161,204.9590416001156,205.3750764001161,204.9590416001156,205.3750764001161,205.3590097001288,205.85938660008833,205.3590097001288,205.85938660008833,205.3590097001288,205.85938660008833,205.3590097001288,205.85938660008833,205.3590097001288,205.85938660008833,205.3590097001288,205.85938660008833,205.3590097001288,205.85938660008833,205.3590097001288,205.85938660008833,204.9590416001156,None,205.85938660008833,207.86302349995822,0.41000000000000014,207.87974540004507,None,208.63070610002615,None,,,,,,,[1.99695652],4.120000000000003,0.7391304347826086,11035,001,2024_Mar_10_1340,MFTM_A_new1021,2021.2.3,59.86858843743362,
,,,,,,,,stim/Instruction_adaptive.png,conditions/adaptive.xlsx,test,-0.6,-0.6,-0.6,0.6,0.6,left,L,,,,,0,1,1,1,0,23,23,87,,,,,,,,,,,,,,,,,,,,,,,,,,,,,,,,,,,,,,,,,,,,209.13124429993331,None,left,1,1.6705981998238713,209.63271260005422,210.51692229998298,209.63271260005422,210.0167793999426,209.63271260005422,210.0167793999426,209.63271260005422,210.0167793999426,209.63271260005422,210.0167793999426,209.63271260005422,210.0167793999426,209.99974419991486,210.50046460004523,209.99974419991486,210.50046460004523,209.99974419991486,210.50046460004523,209.99974419991486,210.50046460004523,209.99974419991486,210.50046460004523,209.99974419991486,210.50046460004523,209.99974419991486,210.50046460004523,209.99974419991486,210.50046460004523,209.63271260005422,None,210.50046460004523,212.50348720001057,0.3800000000000001,212.51943690003827,None,213.27051279996522,None,,,,,,,[2.00208333],4.2100000000000035,0.75,11035,001,2024_Mar_10_1340,MFTM_A_new1021,2021.2.3,59.86858843743362,
,,,,,,,,stim/Instruction_adaptive.png,conditions/adaptive.xlsx,test,0.6,0.6,0.6,-0.6,-0.6,right,R,,,,,0,1,1,1,0,24,24,52,,,,,,,,,,,,,,,,,,,,,,,,,,,,,,,,,,,,,,,,,,,,213.77125090011396,None,right,1,1.2953067999333143,214.2720123999752,215.14005680009723,214.2720123999752,214.63923799991608,214.2720123999752,214.63923799991608,214.2720123999752,214.63923799991608,214.2720123999752,214.63923799991608,214.2720123999752,214.63923799991608,214.62275410001166,215.1232710001059,214.62275410001166,215.1232710001059,214.62275410001166,215.1232710001059,214.62275410001166,215.1232710001059,214.62275410001166,215.1232710001059,214.62275410001166,215.1232710001059,214.62275410001166,215.1232710001059,214.62275410001166,215.1232710001059,214.2720123999752,None,215.1232710001059,None,0.3600000000000001,217.16145689995028,None,217.91089010005817,None,,,,,,,[2.0076],4.290000000000004,0.76,11035,001,2024_Mar_10_1340,MFTM_A_new1021,2021.2.3,59.86858843743362,
,,,,,,,,stim/Instruction_adaptive.png,conditions/adaptive.xlsx,test,-0.6,-0.6,-0.6,0.6,0.6,left,L,,,,,0,1,1,1,0,25,25,61,,,,,,,,,,,,,,,,,,,,,,,,,,,,,,,,,,,,,,,,,,,,218.41249529994093,None,right,0,1.5595450999680907,218.9123482001014,219.76358660007827,218.9123482001014,219.26355980010703,218.9123482001014,219.26355980010703,218.9123482001014,219.26355980010703,218.9123482001014,219.26355980010703,218.9123482001014,219.26355980010703,219.22973780008033,219.73017300013453,219.22973780008033,219.73017300013453,219.22973780008033,219.73017300013453,219.22973780008033,219.73017300013453,219.22973780008033,219.73017300013453,219.22973780008033,219.73017300013453,219.22973780008033,219.73017300013453,219.22973780008033,219.73017300013453,218.9123482001014,None,219.73017300013453,221.7509119999595,0.3400000000000001,221.7668962001335,None,222.51791230007075,None,,,,,,,[2.01346154],4.060000000000003,0.7307692307692307,11035,001,2024_Mar_10_1340,MFTM_A_new1021,2021.2.3,59.86858843743362,
,,,,,,,,stim/Instruction_adaptive.png,conditions/adaptive.xlsx,test,-0.6,-0.6,-0.6,0.6,0.6,left,L,,,,,0,1,1,1,0,26,26,51,,,,,,,,,,,,,,,,,,,,,,,,,,,,,,,,,,,,,,,,,,,,223.01950650010258,None,left,1,1.2719077998772264,223.52011570008472,224.42269679997116,223.52011570008472,223.92075329995714,223.52011570008472,223.92075329995714,223.52011570008472,223.92075329995714,223.52011570008472,223.92075329995714,223.52011570008472,223.92075329995714,223.8871273000259,224.38740299991332,223.8871273000259,224.38740299991332,223.8871273000259,224.38740299991332,223.8871273000259,224.38740299991332,223.8871273000259,224.38740299991332,223.8871273000259,224.38740299991332,223.8871273000259,224.38740299991332,223.8871273000259,224.38740299991332,223.52011570008472,None,224.38740299991332,226.40701460000128,0.3900000000000001,226.44032860011794,None,227.19211410009302,None,,,,,,,[2.01703704],4.140000000000003,0.7407407407407407,11035,001,2024_Mar_10_1340,MFTM_A_new1021,2021.2.3,59.86858843743362,
,,,,,,,,stim/Instruction_adaptive.png,conditions/adaptive.xlsx,test,-0.6,-0.6,-0.6,0.6,0.6,left,L,,,,,0,1,1,1,0,27,27,49,,,,,,,,,,,,,,,,,,,,,,,,,,,,,,,,,,,,,,,,,,,,227.693056399934,None,left,1,1.887075399979949,228.19305539992638,229.07751740003005,228.19305539992638,228.5767967000138,228.19305539992638,228.5767967000138,228.19305539992638,228.5767967000138,228.19305539992638,228.5767967000138,228.19305539992638,228.5767967000138,228.54367600008845,229.0444797000382,228.54367600008845,229.0444797000382,228.54367600008845,229.0444797000382,228.54367600008845,229.0444797000382,228.54367600008845,229.0444797000382,228.54367600008845,229.0444797000382,228.54367600008845,229.0444797000382,228.54367600008845,229.0444797000382,228.19305539992638,None,229.0444797000382,231.0646575000137,0.3700000000000001,231.0973277001176,None,231.84854390006512,None,,,,,,,[2.02107143],4.220000000000003,0.75,11035,001,2024_Mar_10_1340,MFTM_A_new1021,2021.2.3,59.86858843743362,
,,,,,,,,stim/Instruction_adaptive.png,conditions/adaptive.xlsx,test,-0.6,-0.6,-0.6,0.6,0.6,left,L,,,,,0,1,1,1,0,28,28,67,,,,,,,,,,,,,,,,,,,,,,,,,,,,,,,,,,,,,,,,,,,,232.35019170003943,None,left,1,1.8463975000195205,232.85008640005253,233.70203720009886,232.85008640005253,233.20062289992347,232.85008640005253,233.20062289992347,232.85008640005253,233.20062289992347,232.85008640005253,233.20062289992347,232.85008640005253,233.20062289992347,233.18569710012525,233.68475020001642,233.18569710012525,233.68475020001642,233.18569710012525,233.68475020001642,233.18569710012525,233.68475020001642,233.18569710012525,233.68475020001642,233.18569710012525,233.68475020001642,233.18569710012525,233.68475020001642,233.18569710012525,233.68475020001642,232.85008640005253,None,233.68475020001642,235.72196629992686,0.3500000000000001,235.73779779998586,None,236.48885129997507,None,,,,,,,[2.02551724],4.290000000000004,0.7586206896551724,11035,001,2024_Mar_10_1340,MFTM_A_new1021,2021.2.3,59.86858843743362,
,,,,,,,,stim/Instruction_adaptive.png,conditions/adaptive.xlsx,test,-0.6,-0.6,-0.6,0.6,0.6,left,L,,,,,0,1,1,1,0,29,29,33,,,,,,,,,,,,,,,,,,,,,,,,,,,,,,,,,,,,,,,,,,,,236.99026610003784,None,right,0,1.4940020001959056,237.49020650004968,238.34363729995675,237.49020650004968,237.8409321999643,237.49020650004968,237.8409321999643,237.49020650004968,237.8409321999643,237.49020650004968,237.8409321999643,237.49020650004968,237.8409321999643,237.80761880008504,238.30821059993468,237.80761880008504,238.30821059993468,237.80761880008504,238.30821059993468,237.80761880008504,238.30821059993468,237.80761880008504,238.30821059993468,237.80761880008504,238.30821059993468,237.80761880008504,238.30821059993468,237.80761880008504,238.30821059993468,237.49020650004968,None,238.30821059993468,240.34570490010083,0.3400000000000001,240.36132219992578,None,241.11264339997433,None,,,,,,,[2.03],4.090000000000003,0.7333333333333333,11035,001,2024_Mar_10_1340,MFTM_A_new1021,2021.2.3,59.86858843743362,
,,,,,,,,stim/Instruction_adaptive.png,conditions/adaptive.xlsx,test,0.6,0.6,0.6,-0.6,-0.6,right,R,,,,,0,1,1,1,0,30,30,96,,,,,,,,,,,,,,,,,,,,,,,,,,,,,,,,,,,,,,,,,,,,241.61326969997026,None,right,1,2.366182800149545,242.1140475999564,243.01634140009992,242.1140475999564,242.51453800010495,242.1140475999564,242.51453800010495,242.1140475999564,242.51453800010495,242.1140475999564,242.51453800010495,242.1140475999564,242.51453800010495,242.4821792000439,242.98189730010927,242.4821792000439,242.98189730010927,242.4821792000439,242.98189730010927,242.4821792000439,242.98189730010927,242.4821792000439,242.98189730010927,242.4821792000439,242.98189730010927,242.4821792000439,242.98189730010927,242.4821792000439,242.98189730010927,242.1140475999564,None,242.98189730010927,245.01920920005068,0.3900000000000001,245.0349475000985,None,245.7875184000004,None,,,,,,,[2.03258065],4.160000000000004,0.7419354838709677,11035,001,2024_Mar_10_1340,MFTM_A_new1021,2021.2.3,59.86858843743362,
,,,,,,,,stim/Instruction_adaptive.png,conditions/adaptive.xlsx,test,0.6,0.6,0.6,-0.6,-0.6,right,R,,,,,0,1,1,1,0,31,31,46,,,,,,,,,,,,,,,,,,,,,,,,,,,,,,,,,,,,,,,,,,,,246.2876371999737,None,right,1,1.9967948000412434,246.78792189992964,247.67322880006395,246.78792189992964,247.17217650008388,246.78792189992964,247.17217650008388,246.78792189992964,247.17217650008388,246.78792189992964,247.17217650008388,246.78792189992964,247.17217650008388,247.1387851999607,247.6392878999468,247.1387851999607,247.6392878999468,247.1387851999607,247.6392878999468,247.1387851999607,247.6392878999468,247.1387851999607,247.6392878999468,247.1387851999607,247.6392878999468,247.1387851999607,247.6392878999468,247.1387851999607,247.6392878999468,246.78792189992964,None,247.6392878999468,249.67613249993883,0.3700000000000001,249.69219750002958,None,250.4439316999633,None,,,,,,,[2.035625],4.230000000000003,0.75,11035,001,2024_Mar_10_1340,MFTM_A_new1021,2021.2.3,59.86858843743362,
,,,,,,,,stim/Instruction_adaptive.png,conditions/adaptive.xlsx,test,-0.6,-0.6,-0.6,0.6,0.6,left,L,,,,,0,1,1,1,0,32,32,3,,,,,,,,,,,,,,,,,,,,,,,,,,,,,,,,,,,,,,,,,,,,250.9446463000495,None,left,1,1.1959337000735104,251.4446332999505,252.29690770013258,251.4446332999505,251.79666900006123,251.4446332999505,251.79666900006123,251.4446332999505,251.79666900006123,251.4446332999505,251.79666900006123,251.4446332999505,251.79666900006123,251.77957269991748,252.28006469993852,251.77957269991748,252.28006469993852,251.77957269991748,252.28006469993852,251.77957269991748,252.28006469993852,251.77957269991748,252.28006469993852,251.77957269991748,252.28006469993852,251.77957269991748,252.28006469993852,251.77957269991748,252.28006469993852,251.4446332999505,None,252.28006469993852,None,0.3500000000000001,254.33246870012954,None,255.0835667999927,None,,,,,,,[2.03909091],4.290000000000004,0.7575757575757576,11035,001,2024_Mar_10_1340,MFTM_A_new1021,2021.2.3,59.86858843743362,
,,,,,,,,stim/Instruction_adaptive.png,conditions/adaptive.xlsx,test,-0.6,-0.6,-0.6,0.6,0.6,left,L,,,,,0,1,1,1,0,33,33,41,,,,,,,,,,,,,,,,,,,,,,,,,,,,,,,,,,,,,,,,,,,,255.58483409998007,None,right,0,1.4758854999672621,256.08501840010285,256.93750729993917,256.08501840010285,256.43612630013376,256.08501840010285,256.43612630013376,256.08501840010285,256.43612630013376,256.08501840010285,256.43612630013376,256.08501840010285,256.43612630013376,256.403332100017,256.90425150003284,256.403332100017,256.90425150003284,256.403332100017,256.90425150003284,256.403332100017,256.90425150003284,256.403332100017,256.90425150003284,256.403332100017,256.90425150003284,256.403332100017,256.90425150003284,256.403332100017,256.90425150003284,256.08501840010285,None,256.90425150003284,258.95608490007,0.3400000000000001,258.9727068000939,None,259.7251929999329,None,,,,,,,[2.04264706],4.110000000000003,0.7352941176470589,11035,001,2024_Mar_10_1340,MFTM_A_new1021,2021.2.3,59.86858843743362,
,,,,,,,,stim/Instruction_adaptive.png,conditions/adaptive.xlsx,test,0.6,0.6,0.6,-0.6,-0.6,right,R,,,,,0,1,1,1,0,34,34,38,,,,,,,,,,,,,,,,,,,,,,,,,,,,,,,,,,,,,,,,,,,,260.2256120000966,None,right,1,1.5073007999453694,260.72556470008567,261.6101121001411,260.72556470008567,261.11011949996464,260.72556470008567,261.11011949996464,260.72556470008567,261.11011949996464,260.72556470008567,261.11011949996464,260.72556470008567,261.11011949996464,261.09279410005547,261.5941095999442,261.09279410005547,261.5941095999442,261.09279410005547,261.5941095999442,261.09279410005547,261.5941095999442,261.09279410005547,261.5941095999442,261.09279410005547,261.5941095999442,261.09279410005547,261.5941095999442,261.09279410005547,261.5941095999442,260.72556470008567,None,261.5941095999442,263.6464180999901,0.3800000000000001,263.66319589992054,None,264.4155081999488,None,,,,,,,[2.04485714],4.1700000000000035,0.7428571428571429,11035,001,2024_Mar_10_1340,MFTM_A_new1021,2021.2.3,59.86858843743362,
,,,,,,,,stim/Instruction_adaptive.png,conditions/adaptive.xlsx,test,0.6,0.6,0.6,-0.6,-0.6,right,R,,,,,0,1,1,1,0,35,35,16,,,,,,,,,,,,,,,,,,,,,,,,,,,,,,,,,,,,,,,,,,,,264.9159117001109,None,left,0,1.6725622999947518,265.41645170003176,266.3013208999764,265.41645170003176,265.8010935001075,265.41645170003176,265.8010935001075,265.41645170003176,265.8010935001075,265.41645170003176,265.8010935001075,265.41645170003176,265.8010935001075,265.7664908999577,266.26774520007893,265.7664908999577,266.26774520007893,265.7664908999577,266.26774520007893,265.7664908999577,266.26774520007893,265.7664908999577,266.26774520007893,265.7664908999577,266.26774520007893,265.7664908999577,266.26774520007893,265.7664908999577,266.26774520007893,265.41645170003176,None,266.26774520007893,268.3211060001049,0.3700000000000001,268.3365756000858,None,269.08868380007334,None,,,,,,,[2.04722222],3.990000000000003,0.7222222222222222,11035,001,2024_Mar_10_1340,MFTM_A_new1021,2021.2.3,59.86858843743362,
,,,,,,,,stim/Instruction_adaptive.png,conditions/adaptive.xlsx,test,-0.6,-0.6,-0.6,0.6,0.6,left,L,,,,,0,1,1,1,0,36,36,7,,,,,,,,,,,,,,,,,,,,,,,,,,,,,,,,,,,,,,,,,,,,269.5897146000061,None,left,1,1.622523499885574,270.0903505999595,271.00761110009626,270.0903505999595,270.50675699999556,270.0903505999595,270.50675699999556,270.0903505999595,270.50675699999556,270.0903505999595,270.50675699999556,270.0903505999595,270.50675699999556,270.4913340001367,270.9909821001347,270.4913340001367,270.9909821001347,270.4913340001367,270.9909821001347,270.4913340001367,270.9909821001347,270.4913340001367,270.9909821001347,270.4913340001367,270.9909821001347,270.4913340001367,270.9909821001347,270.4913340001367,270.9909821001347,270.0903505999595,None,270.9909821001347,273.0447039999999,0.41000000000000014,273.0605327000376,None,273.81178499991074,None,,,,,,,[2.04837838],4.050000000000003,0.7297297297297297,11035,001,2024_Mar_10_1340,MFTM_A_new1021,2021.2.3,59.86858843743362,
,,,,,,,,stim/Instruction_adaptive.png,conditions/adaptive.xlsx,test,0.6,0.6,0.6,-0.6,-0.6,right,R,,,,,0,1,1,1,0,37,37,94,,,,,,,,,,,,,,,,,,,,,,,,,,,,,,,,,,,,,,,,,,,,274.31330709997565,None,right,1,1.3631676000077277,274.8139583999291,275.7162103999872,274.8139583999291,275.2140290001407,274.8139583999291,275.2140290001407,274.8139583999291,275.2140290001407,274.8139583999291,275.2140290001407,274.8139583999291,275.2140290001407,275.1975271999836,275.69931249995716,275.1975271999836,275.69931249995716,275.1975271999836,275.69931249995716,275.1975271999836,275.69931249995716,275.1975271999836,275.69931249995716,275.1975271999836,275.69931249995716,275.1975271999836,275.69931249995716,275.1975271999836,275.69931249995716,274.8139583999291,None,275.69931249995716,277.75188160012476,0.40000000000000013,277.76822039997205,None,278.5196915999986,None,,,,,,,[2.04973684],4.120000000000003,0.7368421052631579,11035,001,2024_Mar_10_1340,MFTM_A_new1021,2021.2.3,59.86858843743362,
,,,,,,,,stim/Instruction_adaptive.png,conditions/adaptive.xlsx,test,0.6,0.6,0.6,-0.6,-0.6,right,R,,,,,0,1,1,1,0,38,38,42,,,,,,,,,,,,,,,,,,,,,,,,,,,,,,,,,,,,,,,,,,,,279.019729899941,None,left,0,1.2000936002004892,279.52134580002166,280.4059290001169,279.52134580002166,279.90607520006597,279.52134580002166,279.90607520006597,279.52134580002166,279.90607520006597,279.52134580002166,279.90607520006597,279.52134580002166,279.90607520006597,279.8876758001279,280.38949450012296,279.8876758001279,280.38949450012296,279.8876758001279,280.38949450012296,279.8876758001279,280.38949450012296,279.8876758001279,280.38949450012296,279.8876758001279,280.38949450012296,279.8876758001279,280.38949450012296,279.8876758001279,280.38949450012296,279.52134580002166,None,280.38949450012296,282.4414864999708,0.3800000000000001,282.4581917999312,None,283.210456199944,None,,,,,,,[2.05153846],3.940000000000003,0.717948717948718,11035,001,2024_Mar_10_1340,MFTM_A_new1021,2021.2.3,59.86858843743362,
,,,,,,,,stim/Instruction_adaptive.png,conditions/adaptive.xlsx,test,0.6,0.6,0.6,-0.6,-0.6,right,R,,,,,0,1,1,1,0,39,39,90,,,,,,,,,,,,,,,,,,,,,,,,,,,,,,,,,,,,,,,,,,,,283.7108323001303,None,right,1,1.8141788998618722,284.2114707001019,285.1457076999359,284.2114707001019,284.6447592000477,284.2114707001019,284.6447592000477,284.2114707001019,284.6447592000477,284.2114707001019,284.6447592000477,284.2114707001019,284.6447592000477,284.62812820007093,285.1289282999933,284.62812820007093,285.1289282999933,284.62812820007093,285.1289282999933,284.62812820007093,285.1289282999933,284.62812820007093,285.1289282999933,284.62812820007093,285.1289282999933,284.62812820007093,285.1289282999933,284.62812820007093,285.1289282999933,284.2114707001019,None,285.1289282999933,287.1819090000354,0.43000000000000016,287.19842589995824,None,287.9506622001063,None,,,,,,,[2.052],4.0000000000000036,0.725,11035,001,2024_Mar_10_1340,MFTM_A_new1021,2021.2.3,59.86858843743362,
,,,,,,,,stim/Instruction_adaptive.png,conditions/adaptive.xlsx,test,-0.6,-0.6,-0.6,0.6,0.6,left,L,,,,,0,1,1,1,0,40,40,89,,,,,,,,,,,,,,,,,,,,,,,,,,,,,,,,,,,,,,,,,,,,288.45074689993635,None,right,0,2.928810700075701,288.95296110003255,289.8702092000749,288.95296110003255,289.36879279999994,288.95296110003255,289.36879279999994,288.95296110003255,289.36879279999994,288.95296110003255,289.36879279999994,288.95296110003255,289.36879279999994,289.335246700095,289.83666680008173,289.335246700095,289.83666680008173,289.335246700095,289.83666680008173,289.335246700095,289.83666680008173,289.335246700095,289.83666680008173,289.335246700095,289.83666680008173,289.335246700095,289.83666680008173,289.335246700095,289.83666680008173,288.95296110003255,None,289.83666680008173,291.90651910007,0.41000000000000014,291.9219959001057,None,292.67434130003676,None,,,,,,,[2.05292683],3.8300000000000027,0.7073170731707317,11035,001,2024_Mar_10_1340,MFTM_A_new1021,2021.2.3,59.86858843743362,
,,,,,,,,stim/Instruction_adaptive.png,conditions/adaptive.xlsx,test,-0.6,-0.6,-0.6,0.6,0.6,left,L,,,,,0,1,1,1,0,41,41,55,,,,,,,,,,,,,,,,,,,,,,,,,,,,,,,,,,,,,,,,,,,,293.1749007999897,None,left,1,1.6620899001136422,293.67609419999644,294.6432262000162,293.67609419999644,294.14270590012893,293.67609419999644,294.14270590012893,293.67609419999644,294.14270590012893,293.67609419999644,294.14270590012893,293.67609419999644,294.14270590012893,294.1257221000269,294.6266342999879,294.1257221000269,294.6266342999879,294.1257221000269,294.6266342999879,294.1257221000269,294.6266342999879,294.1257221000269,294.6266342999879,294.1257221000269,294.6266342999879,294.1257221000269,294.6266342999879,294.1257221000269,294.6266342999879,293.67609419999644,None,294.6266342999879,None,0.4600000000000002,296.67969359993003,None,297.43163789995015,None,,,,,,,[[2.04]],3.8900000000000032,0.7142857142857143,11035,001,2024_Mar_10_1340,MFTM_A_new1021,2021.2.3,59.86858843743362,
,,,,,,,,stim/Instruction_adaptive.png,conditions/adaptive.xlsx,test,-0.6,-0.6,-0.6,0.6,0.6,left,L,,,,,0,1,1,1,0,42,42,45,,,,,,,,,,,,,,,,,,,,,,,,,,,,,,,,,,,,,,,,,,,,297.9315367001109,None,left,1,1.5292994999326766,298.43231970001943,299.3844348001294,298.43231970001943,298.8830428000074,298.43231970001943,298.8830428000074,298.43231970001943,298.8830428000074,298.43231970001943,298.8830428000074,298.43231970001943,298.8830428000074,298.8504095999524,299.3503721000161,298.8504095999524,299.3503721000161,298.8504095999524,299.3503721000161,298.8504095999524,299.3503721000161,298.8504095999524,299.3503721000161,298.8504095999524,299.3503721000161,298.8504095999524,299.3503721000161,298.8504095999524,299.3503721000161,298.43231970001943,None,299.3503721000161,301.404075599974,0.44000000000000017,301.43712730007246,None,302.18852730002254,None,,,,,,,[2.0527907],3.950000000000003,0.7209302325581395,11035,001,2024_Mar_10_1340,MFTM_A_new1021,2021.2.3,59.86858843743362,
,,,,,,,,stim/Instruction_adaptive.png,conditions/adaptive.xlsx,test,0.6,0.6,0.6,-0.6,-0.6,right,R,,,,,0,1,1,1,0,43,43,82,,,,,,,,,,,,,,,,,,,,,,,,,,,,,,,,,,,,,,,,,,,,302.6895542999264,None,left,0,1.4283485999330878,303.1895616000984,304.1249637999572,303.1895616000984,303.6235032000113,303.1895616000984,303.6235032000113,303.1895616000984,303.6235032000113,303.1895616000984,303.6235032000113,303.1895616000984,303.6235032000113,303.6070624999702,304.10761449998245,303.6070624999702,304.10761449998245,303.6070624999702,304.10761449998245,303.6070624999702,304.10761449998245,303.6070624999702,304.10761449998245,303.6070624999702,304.10761449998245,303.6070624999702,304.10761449998245,303.6070624999702,304.10761449998245,303.1895616000984,None,304.10761449998245,306.1611812999472,0.43000000000000016,306.17668380006216,None,306.92917250003666,None,,,,,,,[2.05318182],3.780000000000003,0.7045454545454546,11035,001,2024_Mar_10_1340,MFTM_A_new1021,2021.2.3,59.86858843743362,
,,,,,,,,stim/Instruction_adaptive.png,conditions/adaptive.xlsx,test,-0.6,-0.6,-0.6,0.6,0.6,left,L,,,,,0,1,1,1,0,44,44,31,,,,,,,,,,,,,,,,,,,,,,,,,,,,,,,,,,,,,,,,,,,,307.42935420013964,None,left,1,1.2722212001681328,307.9296981000807,308.9155711000785,307.9296981000807,308.41509440005757,307.9296981000807,308.41509440005757,307.9296981000807,308.41509440005757,307.9296981000807,308.41509440005757,307.9296981000807,308.41509440005757,308.39810470002703,308.8987567999866,308.39810470002703,308.8987567999866,308.39810470002703,308.8987567999866,308.39810470002703,308.8987567999866,308.39810470002703,308.8987567999866,308.39810470002703,308.8987567999866,308.39810470002703,308.8987567999866,308.39810470002703,308.8987567999866,307.9296981000807,None,308.8987567999866,310.9186744999606,0.4800000000000002,310.93435300001875,None,311.68567349994555,None,,,,,,,[[2.02]],3.840000000000003,0.7111111111111111,11035,001,2024_Mar_10_1340,MFTM_A_new1021,2021.2.3,59.86858843743362,
,,,,,,,,stim/Instruction_adaptive.png,conditions/adaptive.xlsx,test,-0.6,-0.6,-0.6,0.6,0.6,left,L,,,,,0,1,1,1,0,45,45,65,,,,,,,,,,,,,,,,,,,,,,,,,,,,,,,,,,,,,,,,,,,,312.18719480000436,None,right,0,1.4021366001106799,312.6884560000617,313.6561509000603,312.6884560000617,313.1544393999502,312.6884560000617,313.1544393999502,312.6884560000617,313.1544393999502,312.6884560000617,313.1544393999502,312.6884560000617,313.1544393999502,313.1377364001237,313.63951130001806,313.1377364001237,313.63951130001806,313.1377364001237,313.63951130001806,313.1377364001237,313.63951130001806,313.1377364001237,313.63951130001806,313.1377364001237,313.63951130001806,313.1377364001237,313.63951130001806,313.1377364001237,313.63951130001806,312.6884560000617,None,313.6230701999739,315.6760583999567,0.4600000000000002,315.6913757000584,None,316.4433385999873,None,,,,,,,[[2.04]],3.6700000000000026,0.6956521739130435,11035,001,2024_Mar_10_1340,MFTM_A_new1021,2021.2.3,59.86858843743362,
,,,,,,,,stim/Instruction_adaptive.png,conditions/adaptive.xlsx,test,0.6,0.6,0.6,-0.6,-0.6,right,R,,,,,0,1,1,1,0,46,46,62,,,,,,,,,,,,,,,,,,,,,,,,,,,,,,,,,,,,,,,,,,,,316.9445436000824,None,left,0,2.6458280000369996,317.4444377999753,318.479806400137,317.4444377999753,317.9784305000212,317.4444377999753,317.9784305000212,317.4444377999753,317.9784305000212,317.4444377999753,317.9784305000212,317.4444377999753,317.9784305000212,317.9453497999348,318.44643209991045,317.9453497999348,318.44643209991045,317.9453497999348,318.44643209991045,317.9453497999348,318.44643209991045,317.9453497999348,318.44643209991045,317.9453497999348,318.44643209991045,317.9453497999348,318.44643209991045,317.9453497999348,318.44643209991045,317.4444377999753,None,318.44643209991045,320.4327966000419,0.5200000000000002,320.4491469000932,None,321.20008280011825,None,,,,,,,[[1.98]],3.4800000000000026,0.6808510638297872,11035,001,2024_Mar_10_1340,MFTM_A_new1021,2021.2.3,59.86858843743362,
,,,,,,,,stim/Instruction_adaptive.png,conditions/adaptive.xlsx,test,0.6,0.6,0.6,-0.6,-0.6,right,R,,,,,0,1,1,1,0,47,47,84,,,,,,,,,,,,,,,,,,,,,,,,,,,,,,,,,,,,,,,,,,,,321.70083380001597,None,left,0,1.591484900098294,322.20277280011214,323.3037294000387,322.20277280011214,322.8024377999827,322.20277280011214,322.8024377999827,322.20277280011214,322.8024377999827,322.20277280011214,322.8024377999827,322.20277280011214,322.8024377999827,322.7700030999258,323.27029100013897,322.7700030999258,323.27029100013897,322.7700030999258,323.27029100013897,322.7700030999258,323.27029100013897,322.7700030999258,323.27029100013897,322.7700030999258,323.27029100013897,322.7700030999258,323.27029100013897,322.7700030999258,323.27029100013897,322.20277280011214,None,323.27029100013897,325.1898386001121,0.5900000000000003,325.2061842000112,None,325.95826760004275,None,,,,,,,[[1.91]],3.2700000000000022,0.6666666666666666,11035,001,2024_Mar_10_1340,MFTM_A_new1021,2021.2.3,59.86858843743362,
,,,,,,,,stim/Instruction_adaptive.png,conditions/adaptive.xlsx,test,0.6,0.6,0.6,-0.6,-0.6,right,R,,,,,0,1,1,1,0,48,48,98,,,,,,,,,,,,,,,,,,,,,,,,,,,,,,,,,,,,,,,,,,,,326.458787499927,None,right,1,2.0598768999334425,326.9588343000505,328.1448083999567,326.9588343000505,327.64284140011296,326.9588343000505,327.64284140011296,326.9588343000505,327.64284140011296,326.9588343000505,327.64284140011296,326.9588343000505,327.64284140011296,327.6264063999988,328.12800909997895,327.6264063999988,328.12800909997895,327.6264063999988,328.12800909997895,327.6264063999988,328.12800909997895,327.6264063999988,328.12800909997895,327.6264063999988,328.12800909997895,327.6264063999988,328.12800909997895,327.6264063999988,328.12800909997895,326.9588343000505,None,328.12800909997895,None,0.6800000000000004,329.96413350012153,None,330.71499469992705,None,,,,,,,[[1.82]],3.3400000000000025,0.673469387755102,11035,001,2024_Mar_10_1340,MFTM_A_new1021,2021.2.3,59.86858843743362,
,,,,,,,,stim/Instruction_adaptive.png,conditions/adaptive.xlsx,test,-0.6,-0.6,-0.6,0.6,0.6,left,L,,,,,0,1,1,1,0,49,49,43,,,,,,,,,,,,,,,,,,,,,,,,,,,,,,,,,,,,,,,,,,,,331.215807300061,None,left,1,1.6056850000750273,331.7169777001254,332.86748769995756,331.7169777001254,332.36797340004705,331.7169777001254,332.36797340004705,331.7169777001254,332.36797340004705,331.7169777001254,332.36797340004705,331.7169777001254,332.36797340004705,332.3501876001246,332.85103540006094,332.3501876001246,332.85103540006094,332.3501876001246,332.85103540006094,332.3501876001246,332.85103540006094,332.3501876001246,332.85103540006094,332.3501876001246,332.85103540006094,332.3501876001246,332.85103540006094,332.3501876001246,332.85103540006094,331.7169777001254,None,332.85103540006094,334.70353400008753,0.6500000000000004,334.72034160001203,None,335.47246910003014,None,,,,,,,[[1.85]],3.410000000000003,0.68,11035,001,2024_Mar_10_1340,MFTM_A_new1021,2021.2.3,59.86858843743362,
,,,,,,,,stim/Instruction_adaptive.png,conditions/adaptive.xlsx,test,-0.6,-0.6,-0.6,0.6,0.6,left,L,,,,,0,1,1,1,0,50,50,57,,,,,,,,,,,,,,,,,,,,,,,,,,,,,,,,,,,,,,,,,,,,335.97210770007223,None,left,1,1.5937279998324811,336.4734527999535,337.60870809992775,336.4734527999535,337.10726439999416,336.4734527999535,337.10726439999416,336.4734527999535,337.10726439999416,336.4734527999535,337.10726439999416,336.4734527999535,337.10726439999416,337.0739683001302,337.57470729993656,337.0739683001302,337.57470729993656,337.0739683001302,337.57470729993656,337.0739683001302,337.57470729993656,337.0739683001302,337.57470729993656,337.0739683001302,337.57470729993656,337.0739683001302,337.57470729993656,337.0739683001302,337.57470729993656,336.4734527999535,None,337.57470729993656,339.4616576000117,0.6200000000000003,339.4775157000404,None,340.2286745000165,None,,,,,,,[[1.88]],3.4800000000000026,0.6862745098039216,11035,001,2024_Mar_10_1340,MFTM_A_new1021,2021.2.3,59.86858843743362,
,,,,,,,,stim/Instruction_adaptive.png,conditions/adaptive.xlsx,test,0.6,0.6,0.6,-0.6,-0.6,right,R,,,,,0,1,1,1,0,51,51,24,,,,,,,,,,,,,,,,,,,,,,,,,,,,,,,,,,,,,,,,,,,,340.73019429994747,None,left,0,1.3647088001016527,341.2304674000479,342.3329136001412,341.2304674000479,341.83197960001417,341.2304674000479,341.83197960001417,341.2304674000479,341.83197960001417,341.2304674000479,341.83197960001417,341.2304674000479,341.83197960001417,341.79857830004767,342.2991184000857,341.79857830004767,342.2991184000857,341.79857830004767,342.2991184000857,341.79857830004767,342.2991184000857,341.79857830004767,342.2991184000857,341.79857830004767,342.2991184000857,341.79857830004767,342.2991184000857,341.79857830004767,342.2991184000857,341.2304674000479,None,342.2991184000857,344.21902540000156,0.5900000000000003,344.23470550007187,None,344.985818099929,None,,,,,,,[[1.91]],3.2900000000000027,0.6730769230769231,11035,001,2024_Mar_10_1340,MFTM_A_new1021,2021.2.3,59.86858843743362,
,,,,,,,,stim/Instruction_adaptive.png,conditions/adaptive.xlsx,test,-0.6,-0.6,-0.6,0.6,0.6,left,L,,,,,0,1,1,1,0,52,52,73,,,,,,,,,,,,,,,,,,,,,,,,,,,,,,,,,,,,,,,,,,,,345.48723819991574,None,left,1,1.6802624999545515,345.98726870003156,347.1722172999289,345.98726870003156,346.67182829999365,345.98726870003156,346.67182829999365,345.98726870003156,346.67182829999365,345.98726870003156,346.67182829999365,345.98726870003156,346.67182829999365,346.6387346999254,347.13951339991763,346.6387346999254,347.13951339991763,346.6387346999254,347.13951339991763,346.6387346999254,347.13951339991763,346.6387346999254,347.13951339991763,346.6387346999254,347.13951339991763,346.6387346999254,347.13951339991763,346.6387346999254,347.13951339991763,345.98726870003156,None,347.13951339991763,348.9752047001384,0.6700000000000004,348.99202180001885,None,349.7439123999793,None,,,,,,,[[1.83]],3.3600000000000025,0.6792452830188679,11035,001,2024_Mar_10_1340,MFTM_A_new1021,2021.2.3,59.86858843743362,
,,,,,,,,stim/Instruction_adaptive.png,conditions/adaptive.xlsx,test,0.6,0.6,0.6,-0.6,-0.6,right,R,,,,,0,1,1,1,0,53,53,34,,,,,,,,,,,,,,,,,,,,,,,,,,,,,,,,,,,,,,,,,,,,350.2445450001396,None,right,1,1.6265328000299633,350.7447335999459,351.89740020013414,350.7447335999459,351.3962858999148,350.7447335999459,351.3962858999148,350.7447335999459,351.3962858999148,350.7447335999459,351.3962858999148,350.7447335999459,351.3962858999148,351.36296940012835,351.8646168000996,351.36296940012835,351.8646168000996,351.36296940012835,351.8646168000996,351.36296940012835,351.8646168000996,351.36296940012835,351.8646168000996,351.36296940012835,351.8646168000996,351.36296940012835,351.8646168000996,351.36296940012835,351.8646168000996,350.7447335999459,None,351.8646168000996,353.7326788001228,0.6400000000000003,353.74910370004363,None,354.50139420013875,None,,,,,,,[[1.86]],3.4200000000000026,0.6851851851851852,11035,001,2024_Mar_10_1340,MFTM_A_new1021,2021.2.3,59.86858843743362,
,,,,,,,,stim/Instruction_adaptive.png,conditions/adaptive.xlsx,test,0.6,0.6,0.6,-0.6,-0.6,right,R,,,,,0,1,1,1,0,54,54,80,,,,,,,,,,,,,,,,,,,,,,,,,,,,,,,,,,,,,,,,,,,,355.0009677000344,None,right,1,1.492852499941364,355.502574800048,356.6199654999655,355.502574800048,356.12045349995606,355.502574800048,356.12045349995606,355.502574800048,356.12045349995606,355.502574800048,356.12045349995606,355.502574800048,356.12045349995606,356.1026363999117,356.6046283999458,356.1026363999117,356.6046283999458,356.1026363999117,356.6046283999458,356.1026363999117,356.6046283999458,356.1026363999117,356.6046283999458,356.1026363999117,356.6046283999458,356.1026363999117,356.6046283999458,356.1026363999117,356.6046283999458,355.502574800048,None,356.58685009996407,358.49019080004655,0.6100000000000003,358.50670040003024,None,359.25794039992616,None,,,,,,,[[1.89]],3.4800000000000026,0.6909090909090909,11035,001,2024_Mar_10_1340,MFTM_A_new1021,2021.2.3,59.86858843743362,
,,,,,,,,stim/Instruction_adaptive.png,conditions/adaptive.xlsx,test,0.6,0.6,0.6,-0.6,-0.6,right,R,,,,,0,1,1,1,0,55,55,50,,,,,,,,,,,,,,,,,,,,,,,,,,,,,,,,,,,,,,,,,,,,359.75810630014166,None,left,0,1.8406217999290675,360.25888350000605,361.3605808999855,360.25888350000605,360.86011949996464,360.25888350000605,360.86011949996464,360.25888350000605,360.86011949996464,360.25888350000605,360.86011949996464,360.25888350000605,360.86011949996464,360.82654069992714,361.32790799997747,360.82654069992714,361.32790799997747,360.82654069992714,361.32790799997747,360.82654069992714,361.32790799997747,360.82654069992714,361.32790799997747,360.82654069992714,361.32790799997747,360.82654069992714,361.32790799997747,360.82654069992714,361.32790799997747,360.25888350000605,None,361.32790799997747,363.24672910012305,0.5900000000000003,363.2634153999388,None,364.0145461000502,None,,,,,,,[[1.91]],3.3200000000000025,0.6785714285714286,11035,001,2024_Mar_10_1340,MFTM_A_new1021,2021.2.3,59.86858843743362,
,,,,,,,,stim/Instruction_adaptive.png,conditions/adaptive.xlsx,test,-0.6,-0.6,-0.6,0.6,0.6,left,L,,,,,0,1,1,1,0,56,56,91,,,,,,,,,,,,,,,,,,,,,,,,,,,,,,,,,,,,,,,,,,,,364.51539720012806,None,right,0,1.36296630022116,365.0166066000238,366.1844828000758,365.0166066000238,365.6845985001419,365.0166066000238,365.6845985001419,365.0166066000238,365.6845985001419,365.0166066000238,365.6845985001419,365.0166066000238,365.6845985001419,365.65044380002655,366.1514799001161,365.65044380002655,366.1514799001161,365.65044380002655,366.1514799001161,365.65044380002655,366.1514799001161,365.65044380002655,366.1514799001161,365.65044380002655,366.1514799001161,365.65044380002655,366.1514799001161,365.65044380002655,366.1514799001161,365.0166066000238,None,366.1514799001161,368.00449079996906,0.6600000000000004,368.02059320011176,None,368.77172280009836,None,,,,,,,[[1.84]],3.1300000000000026,0.6666666666666666,11035,001,2024_Mar_10_1340,MFTM_A_new1021,2021.2.3,59.86858843743362,
,,,,,,,,stim/Instruction_adaptive.png,conditions/adaptive.xlsx,test,0.6,0.6,0.6,-0.6,-0.6,right,R,,,,,0,1,1,1,0,57,57,70,,,,,,,,,,,,,,,,,,,,,,,,,,,,,,,,,,,,,,,,,,,,369.2738022999838,None,left,0,1.4060905000660568,369.77377140009776,371.0260493999813,369.77377140009776,370.52462000004016,369.77377140009776,370.52462000004016,369.77377140009776,370.52462000004016,369.77377140009776,370.52462000004016,369.77377140009776,370.52462000004016,370.50767790013924,371.0092744999565,370.50767790013924,371.0092744999565,370.50767790013924,371.0092744999565,370.50767790013924,371.0092744999565,370.50767790013924,371.0092744999565,370.50767790013924,371.0092744999565,370.50767790013924,371.0092744999565,370.50767790013924,371.0092744999565,369.77377140009776,None,371.0092744999565,372.76198800001293,0.7500000000000004,372.77824450004846,None,373.5294661000371,None,,,,,,,[[1.75]],2.920000000000002,0.6551724137931034,11035,001,2024_Mar_10_1340,MFTM_A_new1021,2021.2.3,59.86858843743362,
,,,,,,,,stim/Instruction_adaptive.png,conditions/adaptive.xlsx,test,-0.6,-0.6,-0.6,0.6,0.6,left,L,,,,,0,1,1,1,0,58,58,71,,,,,,,,,,,,,,,,,,,,,,,,,,,,,,,,,,,,,,,,,,,,374.02962379995733,None,left,1,1.609926300123334,374.5302415001206,375.91625540005043,374.5302415001206,375.41585509991273,374.5302415001206,375.41585509991273,374.5302415001206,375.41585509991273,374.5302415001206,375.41585509991273,374.5302415001206,375.41585509991273,375.3817461999133,375.8824426000938,375.3817461999133,375.8824426000938,375.3817461999133,375.8824426000938,375.3817461999133,375.8824426000938,375.3817461999133,375.8824426000938,375.3817461999133,375.8824426000938,375.3817461999133,375.8824426000938,375.3817461999133,375.8824426000938,374.5302415001206,None,375.8824426000938,377.51838320004754,0.8700000000000006,377.5348265999928,None,378.28654749994166,None,,,,,,,[[1.63]],3.000000000000002,0.6610169491525424,11035,001,2024_Mar_10_1340,MFTM_A_new1021,2021.2.3,59.86858843743362,
,,,,,,,,stim/Instruction_adaptive.png,conditions/adaptive.xlsx,test,0.6,0.6,0.6,-0.6,-0.6,right,R,,,,,0,1,1,1,0,59,59,40,,,,,,,,,,,,,,,,,,,,,,,,,,,,,,,,,,,,,,,,,,,,378.7868514000438,None,right,1,1.6442253000568599,379.2878405000083,380.6232046999503,379.2878405000083,380.12273290008307,379.2878405000083,380.12273290008307,379.2878405000083,380.12273290008307,379.2878405000083,380.12273290008307,379.2878405000083,380.12273290008307,380.08986900001764,380.58952330006287,380.08986900001764,380.58952330006287,380.08986900001764,380.58952330006287,380.08986900001764,380.58952330006287,380.08986900001764,380.58952330006287,380.08986900001764,380.58952330006287,380.08986900001764,380.58952330006287,380.08986900001764,380.58952330006287,379.2878405000083,None,380.58952330006287,382.2754546001088,0.8200000000000005,382.2933988000732,None,383.04322370002046,None,,,,,,,[[1.68]],3.070000000000002,0.6666666666666666,11035,001,2024_Mar_10_1340,MFTM_A_new1021,2021.2.3,59.86858843743362,
,,,,,,,,stim/Instruction_adaptive.png,conditions/adaptive.xlsx,test,-0.6,-0.6,-0.6,0.6,0.6,left,L,,,,,0,1,1,1,0,60,60,93,,,,,,,,,,,,,,,,,,,,,,,,,,,,,,,,,,,,,,,,,,,,383.54473130009137,None,right,0,1.5595799998845905,384.04457479994744,385.3311101999134,384.04457479994744,384.8298072000034,384.04457479994744,384.8298072000034,384.04457479994744,384.8298072000034,384.04457479994744,384.8298072000034,384.04457479994744,384.8298072000034,384.81390059995465,385.3140922000166,384.81390059995465,385.3140922000166,384.81390059995465,385.3140922000166,384.81390059995465,385.3140922000166,384.81390059995465,385.3140922000166,384.81390059995465,385.3140922000166,384.81390059995465,385.3140922000166,384.81390059995465,385.3140922000166,384.04457479994744,None,385.3140922000166,387.03397840005346,0.7800000000000005,387.04917489993386,None,387.80110629997216,None,,,,,,,[[1.72]],2.870000000000002,0.6557377049180327,11035,001,2024_Mar_10_1340,MFTM_A_new1021,2021.2.3,59.86858843743362,
,,,,,,,,stim/Instruction_adaptive.png,conditions/adaptive.xlsx,test,-0.6,-0.6,-0.6,0.6,0.6,left,L,,,,,0,1,1,1,0,61,61,27,,,,,,,,,,,,,,,,,,,,,,,,,,,,,,,,,,,,,,,,,,,,388.3018628000282,None,right,0,2.235112899914384,388.80175390001386,390.2039201001171,388.80175390001386,389.703297900036,388.80175390001386,389.703297900036,388.80175390001386,389.703297900036,388.80175390001386,389.703297900036,388.80175390001386,389.703297900036,389.6868926999159,390.18738649995066,389.6868926999159,390.18738649995066,389.6868926999159,390.18738649995066,389.6868926999159,390.18738649995066,389.6868926999159,390.18738649995066,389.6868926999159,390.18738649995066,389.6868926999159,390.18738649995066,389.6868926999159,390.18738649995066,388.80175390001386,None,390.18738649995066,391.789998000022,0.9000000000000006,391.80635359999724,None,392.55861820001155,None,,,,,,,[[1.6]],2.640000000000002,0.6451612903225806,11035,001,2024_Mar_10_1340,MFTM_A_new1021,2021.2.3,59.86858843743362,
,,,,,,,,stim/Instruction_adaptive.png,conditions/adaptive.xlsx,test,0.6,0.6,0.6,-0.6,-0.6,right,R,,,,,0,1,1,1,0,62,62,12,,,,,,,,,,,,,,,,,,,,,,,,,,,,,,,,,,,,,,,,,,,,393.05906090000644,None,right,1,1.5891151998657733,393.55913359997794,395.1280052000657,393.55913359997794,394.62772250012495,393.55913359997794,394.62772250012495,393.55913359997794,394.62772250012495,393.55913359997794,394.62772250012495,393.55913359997794,394.62772250012495,394.5940765000414,395.0948212000076,394.5940765000414,395.0948212000076,394.5940765000414,395.0948212000076,394.5940765000414,395.0948212000076,394.5940765000414,395.0948212000076,394.5940765000414,395.0948212000076,394.5940765000414,395.0948212000076,394.5940765000414,395.0948212000076,393.55913359997794,None,395.0948212000076,396.54738590004854,1.0600000000000007,396.5634578000754,None,397.31597250001505,None,,,,,,,[[1.44]],2.730000000000002,0.6507936507936508,11035,001,2024_Mar_10_1340,MFTM_A_new1021,2021.2.3,59.86858843743362,
,,,,,,,,stim/Instruction_adaptive.png,conditions/adaptive.xlsx,test,-0.6,-0.6,-0.6,0.6,0.6,left,L,,,,,0,1,1,1,0,63,63,63,,,,,,,,,,,,,,,,,,,,,,,,,,,,,,,,,,,,,,,,,,,,397.81622839998454,None,left,1,1.2558869998902082,398.31704539991915,399.8184509000275,398.31704539991915,399.317740800092,398.31704539991915,399.317740800092,398.31704539991915,399.317740800092,398.31704539991915,399.317740800092,398.31704539991915,399.317740800092,399.28440120001324,399.7859304000158,399.28440120001324,399.7859304000158,399.28440120001324,399.7859304000158,399.28440120001324,399.7859304000158,399.28440120001324,399.7859304000158,399.28440120001324,399.7859304000158,399.28440120001324,399.7859304000158,399.28440120001324,399.7859304000158,398.31704539991915,None,399.7859304000158,401.3050754999276,0.9900000000000007,401.3207835999783,None,402.07307239994407,None,,,,,,,[[1.51]],2.800000000000002,0.65625,11035,001,2024_Mar_10_1340,MFTM_A_new1021,2021.2.3,59.86858843743362,
,,,,,,,,stim/Instruction_adaptive.png,conditions/adaptive.xlsx,test,-0.6,-0.6,-0.6,0.6,0.6,left,L,,,,,0,1,1,1,0,64,64,81,,,,,,,,,,,,,,,,,,,,,,,,,,,,,,,,,,,,,,,,,,,,402.57358109997585,None,left,1,1.7155001999344677,403.0735381001141,404.52680619992316,403.0735381001141,404.02464980003424,403.0735381001141,404.02464980003424,403.0735381001141,404.02464980003424,403.0735381001141,404.02464980003424,403.0735381001141,404.02464980003424,403.9916404001415,404.49234470003285,403.9916404001415,404.49234470003285,403.9916404001415,404.49234470003285,403.9916404001415,404.49234470003285,403.9916404001415,404.49234470003285,403.9916404001415,404.49234470003285,403.9916404001415,404.49234470003285,403.9916404001415,404.49234470003285,403.0735381001141,None,404.49234470003285,406.06212519994006,0.9400000000000006,406.0779631999321,None,406.83016519993544,None,,,,,,,[[1.56]],2.870000000000002,0.6615384615384615,11035,001,2024_Mar_10_1340,MFTM_A_new1021,2021.2.3,59.86858843743362,
,,,,,,,,stim/Instruction_adaptive.png,conditions/adaptive.xlsx,test,-0.6,-0.6,-0.6,0.6,0.6,left,L,,,,,0,1,1,1,0,65,65,23,,,,,,,,,,,,,,,,,,,,,,,,,,,,,,,,,,,,,,,,,,,,407.3306464999914,None,right,0,1.6697988000232726,407.8316109001171,409.2337152999826,407.8316109001171,408.7320244999137,407.8316109001171,408.7320244999137,407.8316109001171,408.7320244999137,407.8316109001171,408.7320244999137,407.8316109001171,408.7320244999137,408.7153624999337,409.21617739996873,408.7153624999337,409.21617739996873,408.7153624999337,409.21617739996873,408.7153624999337,409.21617739996873,408.7153624999337,409.21617739996873,408.7153624999337,409.21617739996873,408.7153624999337,409.21617739996873,408.7153624999337,409.21617739996873,407.8316109001171,None,409.21617739996873,410.81936899991706,0.9000000000000006,410.83444370003417,None,411.5871367000509,None,,,,,,,[[1.6]],2.6700000000000017,0.6515151515151515,11035,001,2024_Mar_10_1340,MFTM_A_new1021,2021.2.3,59.86858843743362,
,,,,,,,,stim/Instruction_adaptive.png,conditions/adaptive.xlsx,test,-0.6,-0.6,-0.6,0.6,0.6,left,L,,,,,0,1,1,1,0,66,66,59,,,,,,,,,,,,,,,,,,,,,,,,,,,,,,,,,,,,,,,,,,,,412.08749340008944,None,left,1,1.5688744001090527,412.5884299001191,414.1243305001408,412.5884299001191,413.6228116999846,412.5884299001191,413.6228116999846,412.5884299001191,413.6228116999846,412.5884299001191,413.6228116999846,412.5884299001191,413.6228116999846,413.6072025001049,414.1075013000518,413.6072025001049,414.1075013000518,413.6072025001049,414.1075013000518,413.6072025001049,414.1075013000518,413.6072025001049,414.1075013000518,413.6072025001049,414.1075013000518,413.6072025001049,414.1075013000518,413.6072025001049,414.1075013000518,412.5884299001191,None,414.1075013000518,None,1.0300000000000007,415.59212559997104,None,416.34433460002765,None,,,,,,,[[1.47]],2.7500000000000018,0.6567164179104478,11035,001,2024_Mar_10_1340,MFTM_A_new1021,2021.2.3,59.86858843743362,
,,,,,,,,stim/Instruction_adaptive.png,conditions/adaptive.xlsx,test,-0.6,-0.6,-0.6,0.6,0.6,left,L,,,,,0,1,1,1,0,67,67,19,,,,,,,,,,,,,,,,,,,,,,,,,,,,,,,,,,,,,,,,,,,,416.8450899999589,None,left,1,1.8914830000139773,417.3457212001085,418.83123610005714,417.3457212001085,418.3306052000262,417.3457212001085,418.3306052000262,417.3457212001085,418.3306052000262,417.3457212001085,418.3306052000262,417.3457212001085,418.3306052000262,418.31310739996843,418.8138685999438,418.31310739996843,418.8138685999438,418.31310739996843,418.8138685999438,418.31310739996843,418.8138685999438,418.31310739996843,418.8138685999438,418.31310739996843,418.8138685999438,418.31310739996843,418.8138685999438,418.31310739996843,418.8138685999438,417.3457212001085,None,418.8138685999438,420.33483000006527,0.9800000000000006,420.3494687001221,None,421.1013998000417,None,,,,,,,[[1.52]],2.8100000000000023,0.6617647058823529,11035,001,2024_Mar_10_1340,MFTM_A_new1021,2021.2.3,59.86858843743362,
,,,,,,,,stim/Instruction_adaptive.png,conditions/adaptive.xlsx,test,0.6,0.6,0.6,-0.6,-0.6,right,R,,,,,0,1,1,1,0,68,68,66,,,,,,,,,,,,,,,,,,,,,,,,,,,,,,,,,,,,,,,,,,,,421.60142450011335,None,right,1,1.5832026000134647,422.1021424001083,423.5545024999883,422.1021424001083,423.0536259000655,422.1021424001083,423.0536259000655,422.1021424001083,423.0536259000655,422.1021424001083,423.0536259000655,422.1021424001083,423.0536259000655,423.0369273000397,423.5386493001133,423.0369273000397,423.5386493001133,423.0369273000397,423.5386493001133,423.0369273000397,423.5386493001133,423.0369273000397,423.5386493001133,423.0369273000397,423.5386493001133,423.0369273000397,423.5386493001133,423.0369273000397,423.5386493001133,422.1021424001083,None,423.5219298999291,425.0911679000128,0.9400000000000006,425.1071490000468,None,425.85804820014164,None,,,,,,,[[1.56]],2.870000000000002,0.6666666666666666,11035,001,2024_Mar_10_1340,MFTM_A_new1021,2021.2.3,59.86858843743362,
,,,,,,,,stim/Instruction_adaptive.png,conditions/adaptive.xlsx,test,0.6,0.6,0.6,-0.6,-0.6,right,R,,,,,0,1,1,1,0,69,69,10,,,,,,,,,,,,,,,,,,,,,,,,,,,,,,,,,,,,,,,,,,,,426.3584891001228,None,right,1,1.810297799995169,426.85928099998273,428.261449099984,426.85928099998273,427.7607517000288,426.85928099998273,427.7607517000288,426.85928099998273,427.7607517000288,426.85928099998273,427.7607517000288,426.85928099998273,427.7607517000288,427.74403290008195,428.2449360000901,427.74403290008195,428.2449360000901,427.74403290008195,428.2449360000901,427.74403290008195,428.2449360000901,427.74403290008195,428.2449360000901,427.74403290008195,428.2449360000901,427.74403290008195,428.2449360000901,427.74403290008195,428.2449360000901,426.85928099998273,None,428.2449360000901,429.8471983000636,0.9000000000000006,429.8642544001341,None,430.61481850012206,None,,,,,,,[[1.6]],2.9300000000000024,0.6714285714285714,11035,001,2024_Mar_10_1340,MFTM_A_new1021,2021.2.3,59.86858843743362,
,,,,,,,,stim/Instruction_adaptive.png,conditions/adaptive.xlsx,test,-0.6,-0.6,-0.6,0.6,0.6,left,L,,,,,0,1,1,1,0,70,70,95,,,,,,,,,,,,,,,,,,,,,,,,,,,,,,,,,,,,,,,,,,,,431.11647509993054,None,right,0,1.9411639999598265,431.6163838999346,432.98530920012854,431.6163838999346,432.48424499994144,431.6163838999346,432.48424499994144,431.6163838999346,432.48424499994144,431.6163838999346,432.48424499994144,431.6163838999346,432.48424499994144,432.4675249001011,432.9686726999935,432.4675249001011,432.9686726999935,432.4675249001011,432.9686726999935,432.4675249001011,432.9686726999935,432.4675249001011,432.9686726999935,432.4675249001011,432.9686726999935,432.4675249001011,432.9686726999935,432.4675249001011,432.9686726999935,431.6163838999346,None,432.9686726999935,None,0.8600000000000005,434.62098619993776,None,435.37417510012165,None,,,,,,,[[1.64]],2.7700000000000022,0.6619718309859155,11035,001,2024_Mar_10_1340,MFTM_A_new1021,2021.2.3,59.86858843743362,
,,,,,,,,stim/Instruction_adaptive.png,conditions/adaptive.xlsx,test,-0.6,-0.6,-0.6,0.6,0.6,left,L,,,,,0,1,1,1,0,71,71,77,,,,,,,,,,,,,,,,,,,,,,,,,,,,,,,,,,,,,,,,,,,,435.87367130001076,None,right,0,1.7679457999765873,436.37424780009314,437.84261690010317,436.37424780009314,437.34177400008775,436.37424780009314,437.34177400008775,436.37424780009314,437.34177400008775,436.37424780009314,437.34177400008775,436.37424780009314,437.34177400008775,437.30860530002974,437.80911160004325,437.30860530002974,437.80911160004325,437.30860530002974,437.80911160004325,437.30860530002974,437.80911160004325,437.30860530002974,437.80911160004325,437.30860530002974,437.80911160004325,437.30860530002974,437.80911160004325,437.30860530002974,437.80911160004325,436.37424780009314,None,437.80911160004325,439.36200379999354,0.9600000000000006,439.3779989001341,None,440.12943550013006,None,,,,,,,[[1.54]],2.5900000000000016,0.6527777777777778,11035,001,2024_Mar_10_1340,MFTM_A_new1021,2021.2.3,59.86858843743362,
,,,,,,,,stim/Instruction_adaptive.png,conditions/adaptive.xlsx,test,-0.6,-0.6,-0.6,0.6,0.6,left,L,,,,,0,1,1,1,0,72,72,97,,,,,,,,,,,,,,,,,,,,,,,,,,,,,,,,,,,,,,,,,,,,440.63014569994994,None,left,1,1.98768029990606,441.1310062999837,442.73312749993056,441.1310062999837,442.23372570006177,441.1310062999837,442.23372570006177,441.1310062999837,442.23372570006177,441.1310062999837,442.23372570006177,441.1310062999837,442.23372570006177,442.2004180001095,442.7009624000639,442.2004180001095,442.7009624000639,442.2004180001095,442.7009624000639,442.2004180001095,442.7009624000639,442.2004180001095,442.7009624000639,442.2004180001095,442.7009624000639,442.2004180001095,442.7009624000639,442.2004180001095,442.7009624000639,441.1310062999837,None,442.7009624000639,444.1193037000485,1.0900000000000007,444.13483360013925,None,444.88748760009184,None,,,,,,,[[1.41]],2.650000000000002,0.6575342465753424,11035,001,2024_Mar_10_1340,MFTM_A_new1021,2021.2.3,59.86858843743362,
,,,,,,,,stim/Instruction_adaptive.png,conditions/adaptive.xlsx,test,-0.6,-0.6,-0.6,0.6,0.6,left,L,,,,,0,1,1,1,0,73,73,99,,,,,,,,,,,,,,,,,,,,,,,,,,,,,,,,,,,,,,,,,,,,445.38765650009736,None,left,1,1.4371541000436991,445.88880959991366,447.4404029001016,445.88880959991366,446.9396343000699,445.88880959991366,446.9396343000699,445.88880959991366,446.9396343000699,445.88880959991366,446.9396343000699,445.88880959991366,446.9396343000699,446.92349770013243,447.4238917999901,446.92349770013243,447.4238917999901,446.92349770013243,447.4238917999901,446.92349770013243,447.4238917999901,446.92349770013243,447.4238917999901,446.92349770013243,447.4238917999901,446.92349770013243,447.4238917999901,446.92349770013243,447.4238917999901,445.88880959991366,None,447.4238917999901,448.8764063999988,1.0500000000000007,448.8925878999289,None,449.64428670005873,None,,,,,,,[[1.45]],2.7100000000000017,0.6621621621621622,11035,001,2024_Mar_10_1340,MFTM_A_new1021,2021.2.3,59.86858843743362,
,,,,,,,,stim/Instruction_adaptive.png,conditions/adaptive.xlsx,test,0.6,0.6,0.6,-0.6,-0.6,right,R,,,,,0,1,1,1,0,74,74,44,,,,,,,,,,,,,,,,,,,,,,,,,,,,,,,,,,,,,,,,,,,,450.1444453999866,None,right,1,1.3694647001102567,450.64519140007906,452.1651006001048,450.64519140007906,451.66339639993384,450.64519140007906,451.66339639993384,450.64519140007906,451.66339639993384,450.64519140007906,451.66339639993384,450.64519140007906,451.66339639993384,451.64685010001995,452.1485826000571,451.64685010001995,452.1485826000571,451.64685010001995,452.1485826000571,451.64685010001995,452.1485826000571,451.64685010001995,452.1485826000571,451.64685010001995,452.1485826000571,451.64685010001995,452.1485826000571,451.64685010001995,452.1485826000571,450.64519140007906,None,452.1485826000571,None,1.0100000000000007,453.6499026999809,None,454.40116670005955,None,,,,,,,[[1.49]],2.7700000000000022,0.6666666666666666,11035,001,2024_Mar_10_1340,MFTM_A_new1021,2021.2.3,59.86858843743362,
,,,,,,,,stim/Instruction_adaptive.png,conditions/adaptive.xlsx,test,0.6,0.6,0.6,-0.6,-0.6,right,R,,,,,0,1,1,1,0,75,75,32,,,,,,,,,,,,,,,,,,,,,,,,,,,,,,,,,,,,,,,,,,,,454.9016247999389,None,right,1,1.467663099989295,455.4030754000414,456.8715590001084,455.4030754000414,456.3705136999488,455.4030754000414,456.3705136999488,455.4030754000414,456.3705136999488,455.4030754000414,456.3705136999488,455.4030754000414,456.3705136999488,456.33788480004296,456.8389346001204,456.33788480004296,456.8389346001204,456.33788480004296,456.8389346001204,456.33788480004296,456.8389346001204,456.33788480004296,456.8389346001204,456.33788480004296,456.8389346001204,456.33788480004296,456.8389346001204,456.33788480004296,456.8389346001204,455.4030754000414,None,456.8389346001204,458.3913781000301,0.9600000000000006,458.407494999934,None,459.15884539997205,None,,,,,,,[[1.54]],2.820000000000002,0.6710526315789473,11035,001,2024_Mar_10_1340,MFTM_A_new1021,2021.2.3,59.86858843743362,
,,,,,,,,stim/Instruction_adaptive.png,conditions/adaptive.xlsx,test,0.6,0.6,0.6,-0.6,-0.6,right,R,,,,,0,1,1,1,0,76,76,72,,,,,,,,,,,,,,,,,,,,,,,,,,,,,,,,,,,,,,,,,,,,459.6588016001042,None,right,1,2.4947558001149446,460.1595902000554,461.5950356000103,460.1595902000554,461.09416830004193,460.1595902000554,461.09416830004193,460.1595902000554,461.09416830004193,460.1595902000554,461.09416830004193,460.1595902000554,461.09416830004193,461.07771480013616,461.5786749001127,461.07771480013616,461.5786749001127,461.07771480013616,461.5786749001127,461.07771480013616,461.5786749001127,461.07771480013616,461.5786749001127,461.07771480013616,461.5786749001127,461.07771480013616,461.5786749001127,461.07771480013616,461.5786749001127,460.1595902000554,None,461.5786749001127,None,0.9300000000000006,463.163994200062,None,463.9152192999609,None,,,,,,,[[1.57]],2.870000000000002,0.6753246753246753,11035,001,2024_Mar_10_1340,MFTM_A_new1021,2021.2.3,59.86858843743362,
,,,,,,,,stim/Instruction_adaptive.png,conditions/adaptive.xlsx,test,-0.6,-0.6,-0.6,0.6,0.6,left,L,,,,,0,1,1,1,0,77,77,29,,,,,,,,,,,,,,,,,,,,,,,,,,,,,,,,,,,,,,,,,,,,464.4159995999653,None,left,1,1.7860329998657107,464.91681879991665,466.3195025001187,464.91681879991665,465.81910949992016,464.91681879991665,465.81910949992016,464.91681879991665,465.81910949992016,464.91681879991665,465.81910949992016,464.91681879991665,465.81910949992016,465.80233610002324,466.303037900012,465.80233610002324,466.303037900012,465.80233610002324,466.303037900012,465.80233610002324,466.303037900012,465.80233610002324,466.303037900012,465.80233610002324,466.303037900012,465.80233610002324,466.303037900012,465.80233610002324,466.303037900012,464.91681879991665,None,466.303037900012,467.9045243000146,0.9000000000000006,467.9213163999375,None,468.67334909993224,None,,,,,,,[[1.6]],2.910000000000002,0.6794871794871795,11035,001,2024_Mar_10_1340,MFTM_A_new1021,2021.2.3,59.86858843743362,
,,,,,,,,stim/Instruction_adaptive.png,conditions/adaptive.xlsx,test,0.6,0.6,0.6,-0.6,-0.6,right,R,,,,,0,1,1,1,0,78,78,54,,,,,,,,,,,,,,,,,,,,,,,,,,,,,,,,,,,,,,,,,,,,469.17369640013203,None,left,0,1.6598390000872314,469.6745500001125,471.060827099951,469.6745500001125,470.55925310007297,469.6745500001125,470.55925310007297,469.6745500001125,470.55925310007297,469.6745500001125,470.55925310007297,469.6745500001125,470.55925310007297,470.54292750009336,471.0437648999505,470.54292750009336,471.0437648999505,470.54292750009336,471.0437648999505,470.54292750009336,471.0437648999505,470.54292750009336,471.0437648999505,470.54292750009336,471.0437648999505,470.54292750009336,471.0437648999505,470.54292750009336,471.0437648999505,469.6745500001125,None,471.0437648999505,None,0.8800000000000006,472.67837870004587,None,473.4300591000356,None,,,,,,,[[1.62]],2.780000000000002,0.6708860759493671,11035,001,2024_Mar_10_1340,MFTM_A_new1021,2021.2.3,59.86858843743362,
,,,,,,,,stim/Instruction_adaptive.png,conditions/adaptive.xlsx,test,-0.6,-0.6,-0.6,0.6,0.6,left,L,,,,,0,1,1,1,0,79,79,39,,,,,,,,,,,,,,,,,,,,,,,,,,,,,,,,,,,,,,,,,,,,473.9302904999349,None,left,1,1.7116346000693738,474.4311444000341,475.9005519999191,474.4311444000341,475.3991759000346,474.4311444000341,475.3991759000346,474.4311444000341,475.3991759000346,474.4311444000341,475.3991759000346,474.4311444000341,475.3991759000346,475.36585310008377,475.86729190009646,475.36585310008377,475.86729190009646,475.36585310008377,475.86729190009646,475.36585310008377,475.86729190009646,475.36585310008377,475.86729190009646,475.36585310008377,475.86729190009646,475.36585310008377,475.86729190009646,475.36585310008377,475.86729190009646,474.4311444000341,None,475.86729190009646,477.41967769991606,0.9600000000000006,477.435812599957,None,478.1867156000808,None,,,,,,,[[1.54]],2.830000000000002,0.675,11035,001,2024_Mar_10_1340,MFTM_A_new1021,2021.2.3,59.86858843743362,
,,,,,,,,stim/Instruction_adaptive.png,conditions/adaptive.xlsx,test,0.6,0.6,0.6,-0.6,-0.6,right,R,,,,,0,1,1,1,0,80,80,2,,,,,,,,,,,,,,,,,,,,,,,,,,,,,,,,,,,,,,,,,,,,478.6882895999588,None,left,0,1.7545308000408113,479.18830029992387,480.62458069995046,479.18830029992387,480.1242070000153,479.18830029992387,480.1242070000153,479.18830029992387,480.1242070000153,479.18830029992387,480.1242070000153,479.18830029992387,480.1242070000153,480.10638349992223,480.60805410007015,480.10638349992223,480.60805410007015,480.10638349992223,480.60805410007015,480.10638349992223,480.60805410007015,480.10638349992223,480.60805410007015,480.10638349992223,480.60805410007015,480.10638349992223,480.60805410007015,480.10638349992223,480.60805410007015,479.18830029992387,None,480.60805410007015,None,0.9300000000000006,482.19285729993135,None,482.94496540003456,None,,,,,,,[[1.57]],2.690000000000002,0.6666666666666666,11035,001,2024_Mar_10_1340,MFTM_A_new1021,2021.2.3,59.86858843743362,
,,,,,,,,stim/Instruction_adaptive.png,conditions/adaptive.xlsx,test,0.6,0.6,0.6,-0.6,-0.6,right,R,,,,,0,1,1,1,0,81,81,78,,,,,,,,,,,,,,,,,,,,,,,,,,,,,,,,,,,,,,,,,,,,483.44467770005576,None,right,1,1.4608578002080321,483.94612590014003,485.48180570011027,483.94612590014003,484.9809314000886,483.94612590014003,484.9809314000886,483.94612590014003,484.9809314000886,483.94612590014003,484.9809314000886,483.94612590014003,484.9809314000886,484.9481420000084,485.44783030007966,484.9481420000084,485.44783030007966,484.9481420000084,485.44783030007966,484.9481420000084,485.44783030007966,484.9481420000084,485.44783030007966,484.9481420000084,485.44783030007966,484.9481420000084,485.44783030007966,484.9481420000084,485.44783030007966,483.94612590014003,None,485.44783030007966,486.93402160005644,1.0200000000000007,486.9496403001249,None,487.7011862001382,None,,,,,,,[[1.48]],2.740000000000002,0.6707317073170732,11035,001,2024_Mar_10_1340,MFTM_A_new1021,2021.2.3,59.86858843743362,
,,,,,,,,stim/Instruction_adaptive.png,conditions/adaptive.xlsx,test,0.6,0.6,0.6,-0.6,-0.6,right,R,,,,,0,1,1,1,0,82,82,8,,,,,,,,,,,,,,,,,,,,,,,,,,,,,,,,,,,,,,,,,,,,488.2020115000196,None,right,1,1.528253700118512,488.7026542001404,490.18888469995,488.7026542001404,489.6888053000439,488.7026542001404,489.6888053000439,488.7026542001404,489.6888053000439,488.7026542001404,489.6888053000439,488.7026542001404,489.6888053000439,489.67081929999404,490.17209820006974,489.67081929999404,490.17209820006974,489.67081929999404,490.17209820006974,489.67081929999404,490.17209820006974,489.67081929999404,490.17209820006974,489.67081929999404,490.17209820006974,489.67081929999404,490.17209820006974,489.67081929999404,490.17209820006974,488.7026542001404,None,490.17209820006974,None,0.9800000000000006,491.7071982999332,None,492.45905359997414,None,,,,,,,[[1.52]],2.790000000000002,0.6746987951807228,11035,001,2024_Mar_10_1340,MFTM_A_new1021,2021.2.3,59.86858843743362,
,,,,,,,,stim/Instruction_adaptive.png,conditions/adaptive.xlsx,test,-0.6,-0.6,-0.6,0.6,0.6,left,L,,,,,0,1,1,1,0,83,83,13,,,,,,,,,,,,,,,,,,,,,,,,,,,,,,,,,,,,,,,,,,,,492.9591147999745,None,right,0,2.46723850001581,493.46031429991126,494.9130287999287,493.46031429991126,494.4119901000522,493.46031429991126,494.4119901000522,493.46031429991126,494.4119901000522,493.46031429991126,494.4119901000522,493.46031429991126,494.4119901000522,494.3945323000662,494.8959773001261,494.3945323000662,494.8959773001261,494.3945323000662,494.8959773001261,494.3945323000662,494.8959773001261,494.3945323000662,494.8959773001261,494.3945323000662,494.8959773001261,494.3945323000662,494.8959773001261,494.3945323000662,494.8959773001261,493.46031429991126,None,494.8959773001261,496.4476914999541,0.9500000000000006,496.4637853000313,None,497.21513859997503,None,,,,,,,[[1.55]],2.650000000000002,0.6666666666666666,11035,001,2024_Mar_10_1340,MFTM_A_new1021,2021.2.3,59.86858843743362,
,,,,,,,,stim/Instruction_adaptive.png,conditions/adaptive.xlsx,test,-0.6,-0.6,-0.6,0.6,0.6,left,L,,,,,0,1,1,1,0,84,84,5,,,,,,,,,,,,,,,,,,,,,,,,,,,,,,,,,,,,,,,,,,,,497.71631320007145,None,left,1,2.2291216999292374,498.21824509999715,499.7702937000431,498.21824509999715,499.26847989996895,498.21824509999715,499.26847989996895,498.21824509999715,499.26847989996895,498.21824509999715,499.26847989996895,498.21824509999715,499.26847989996895,499.25186770013534,499.75290119997226,499.25186770013534,499.75290119997226,499.25186770013534,499.75290119997226,499.25186770013534,499.75290119997226,499.25186770013534,499.75290119997226,499.25186770013534,499.75290119997226,499.25186770013534,499.75290119997226,499.25186770013534,499.75290119997226,498.21824509999715,None,499.75290119997226,501.205535300076,1.0500000000000007,501.22147709992714,None,501.9727769999299,None,,,,,,,[[1.45]],2.700000000000002,0.6705882352941176,11035,001,2024_Mar_10_1340,MFTM_A_new1021,2021.2.3,59.86858843743362,
,,,,,,,,stim/Instruction_adaptive.png,conditions/adaptive.xlsx,test,0.6,0.6,0.6,-0.6,-0.6,right,R,,,,,0,1,1,1,0,85,85,36,,,,,,,,,,,,,,,,,,,,,,,,,,,,,,,,,,,,,,,,,,,,502.4740641999524,None,right,1,2.073413399979472,502.9742183999624,504.49306580005214,502.9742183999624,503.99248749995604,502.9742183999624,503.99248749995604,502.9742183999624,503.99248749995604,502.9742183999624,503.99248749995604,502.9742183999624,503.99248749995604,503.97573920013383,504.47682600002736,503.97573920013383,504.47682600002736,503.97573920013383,504.47682600002736,503.97573920013383,504.47682600002736,503.97573920013383,504.47682600002736,503.97573920013383,504.47682600002736,503.97573920013383,504.47682600002736,503.97573920013383,504.47682600002736,502.9742183999624,None,504.47682600002736,None,1.0100000000000007,505.9785676000174,None,506.72979020001367,None,,,,,,,[[1.49]],2.740000000000002,0.6744186046511628,11035,001,2024_Mar_10_1340,MFTM_A_new1021,2021.2.3,59.86858843743362,
,,,,,,,,stim/Instruction_adaptive.png,conditions/adaptive.xlsx,test,-0.6,-0.6,-0.6,0.6,0.6,left,L,,,,,0,1,1,1,0,86,86,9,,,,,,,,,,,,,,,,,,,,,,,,,,,,,,,,,,,,,,,,,,,,507.2305397000164,None,left,1,2.3805109998211265,507.7312143999152,509.2174100999255,507.7312143999152,508.71687799994834,507.7312143999152,508.71687799994834,507.7312143999152,508.71687799994834,507.7312143999152,508.71687799994834,507.7312143999152,508.71687799994834,508.69943209993653,509.2011822001077,508.69943209993653,509.2011822001077,508.69943209993653,509.2011822001077,508.69943209993653,509.2011822001077,508.69943209993653,509.2011822001077,508.69943209993653,509.2011822001077,508.69943209993653,509.2011822001077,508.69943209993653,509.2011822001077,507.7312143999152,None,509.2011822001077,None,0.9800000000000006,510.73589879996143,None,511.48777640005574,None,,,,,,,[[1.52]],2.790000000000002,0.6781609195402298,11035,001,2024_Mar_10_1340,MFTM_A_new1021,2021.2.3,59.86858843743362,
,,,,,,,,stim/Instruction_adaptive.png,conditions/adaptive.xlsx,test,0.6,0.6,0.6,-0.6,-0.6,right,R,,,,,0,1,1,1,0,87,87,86,,,,,,,,,,,,,,,,,,,,,,,,,,,,,,,,,,,,,,,,,,,,511.9876810000278,None,right,1,1.9674855000339448,512.4882169999182,513.9416751000099,512.4882169999182,513.43976749992,512.4882169999182,513.43976749992,512.4882169999182,513.43976749992,512.4882169999182,513.43976749992,512.4882169999182,513.43976749992,513.4233277000021,513.9238577000797,513.4233277000021,513.9238577000797,513.4233277000021,513.9238577000797,513.4233277000021,513.9238577000797,513.4233277000021,513.9238577000797,513.4233277000021,513.9238577000797,513.4233277000021,513.9238577000797,513.4233277000021,513.9238577000797,512.4882169999182,None,513.9238577000797,515.4761972001288,0.9500000000000006,515.4930533999577,None,516.2446361000184,None,,,,,,,[[1.55]],2.830000000000002,0.6818181818181818,11035,001,2024_Mar_10_1340,MFTM_A_new1021,2021.2.3,59.86858843743362,
,,,,,,,,stim/Instruction_adaptive.png,conditions/adaptive.xlsx,test,-0.6,-0.6,-0.6,0.6,0.6,left,L,,,,,0,1,1,1,0,88,88,37,,,,,,,,,,,,,,,,,,,,,,,,,,,,,,,,,,,,,,,,,,,,516.7454773001373,None,left,1,1.9138378999195993,517.2464660000987,518.6814866000786,517.2464660000987,518.1815611999482,517.2464660000987,518.1815611999482,517.2464660000987,518.1815611999482,517.2464660000987,518.1815611999482,517.2464660000987,518.1815611999482,518.1642607999966,518.6645186000969,518.1642607999966,518.6645186000969,518.1642607999966,518.6645186000969,518.1642607999966,518.6645186000969,518.1642607999966,518.6645186000969,518.1642607999966,518.6645186000969,518.1642607999966,518.6645186000969,518.1642607999966,518.6645186000969,517.2464660000987,None,518.6645186000969,520.2340399001259,0.9300000000000006,520.2508386999834,None,521.0018653001171,None,,,,,,,[[1.57]],2.860000000000002,0.6853932584269663,11035,001,2024_Mar_10_1340,MFTM_A_new1021,2021.2.3,59.86858843743362,
,,,,,,,,stim/Instruction_adaptive.png,conditions/adaptive.xlsx,test,-0.6,-0.6,-0.6,0.6,0.6,left,L,,,,,0,1,1,1,0,89,89,11,,,,,,,,,,,,,,,,,,,,,,,,,,,,,,,,,,,,,,,,,,,,521.5023552000057,None,left,1,2.1969965000171214,522.0028148000129,523.4225238000508,522.0028148000129,522.9209592000116,522.0028148000129,522.9209592000116,522.0028148000129,522.9209592000116,522.0028148000129,522.9209592000116,522.0028148000129,522.9209592000116,522.9041597999167,523.4052576001268,522.9041597999167,523.4052576001268,522.9041597999167,523.4052576001268,522.9041597999167,523.4052576001268,522.9041597999167,523.4052576001268,522.9041597999167,523.4052576001268,522.9041597999167,523.4052576001268,522.9041597999167,523.4052576001268,522.0028148000129,None,523.4052576001268,None,0.9100000000000006,525.0077100999188,None,525.7593358999584,None,,,,,,,[[1.59]],2.900000000000002,0.6888888888888889,11035,001,2024_Mar_10_1340,MFTM_A_new1021,2021.2.3,59.86858843743362,
,,,,,,,,stim/Instruction_adaptive.png,conditions/adaptive.xlsx,test,0.6,0.6,0.6,-0.6,-0.6,right,R,,,,,0,1,1,1,0,90,90,56,,,,,,,,,,,,,,,,,,,,,,,,,,,,,,,,,,,,,,,,,,,,526.2596388999373,None,right,1,1.7282413998618722,526.7598546999507,528.1459409999661,526.7598546999507,527.6449800999835,526.7598546999507,527.6449800999835,526.7598546999507,527.6449800999835,526.7598546999507,527.6449800999835,526.7598546999507,527.6449800999835,527.6279579000548,528.1290498001035,527.6279579000548,528.1290498001035,527.6279579000548,528.1290498001035,527.6279579000548,528.1290498001035,527.6279579000548,528.1290498001035,527.6279579000548,528.1290498001035,527.6279579000548,528.1290498001035,527.6279579000548,528.1290498001035,526.7598546999507,None,528.1290498001035,None,0.8800000000000006,529.7645487999544,None,530.5162357999943,None,,,,,,,[[1.62]],2.9300000000000024,0.6923076923076923,11035,001,2024_Mar_10_1340,MFTM_A_new1021,2021.2.3,59.86858843743362,
,,,,,,,,stim/Instruction_adaptive.png,conditions/adaptive.xlsx,test,0.6,0.6,0.6,-0.6,-0.6,right,R,,,,,0,1,1,1,0,91,91,22,,,,,,,,,,,,,,,,,,,,,,,,,,,,,,,,,,,,,,,,,,,,531.0173875999171,None,left,0,1.9881333999801427,531.5169530001003,532.8866268000565,531.5169530001003,532.385831200052,531.5169530001003,532.385831200052,531.5169530001003,532.385831200052,531.5169530001003,532.385831200052,531.5169530001003,532.385831200052,532.3517680000514,532.8536394000985,532.3517680000514,532.8536394000985,532.3517680000514,532.8536394000985,532.3517680000514,532.8536394000985,532.3517680000514,532.8536394000985,532.3517680000514,532.8536394000985,532.3517680000514,532.8536394000985,532.3517680000514,532.8536394000985,531.5169530001003,None,532.8536394000985,534.5056877001189,0.8600000000000005,534.5211465000175,None,535.273458099924,None,,,,,,,[[1.64]],2.830000000000002,0.6847826086956522,11035,001,2024_Mar_10_1340,MFTM_A_new1021,2021.2.3,59.86858843743362,
,,,,,,,,stim/Instruction_adaptive.png,conditions/adaptive.xlsx,test,0.6,0.6,0.6,-0.6,-0.6,right,R,,,,,0,1,1,1,0,92,92,26,,,,,,,,,,,,,,,,,,,,,,,,,,,,,,,,,,,,,,,,,,,,535.7735377000645,None,right,1,2.6690314000006765,536.2757844999433,537.7104583999608,536.2757844999433,537.2097732999828,536.2757844999433,537.2097732999828,536.2757844999433,537.2097732999828,536.2757844999433,537.2097732999828,536.2757844999433,537.2097732999828,537.1930500001181,537.6932604999747,537.1930500001181,537.6932604999747,537.1930500001181,537.6932604999747,537.1930500001181,537.6932604999747,537.1930500001181,537.6932604999747,537.1930500001181,537.6932604999747,537.1930500001181,537.6932604999747,537.1930500001181,537.6932604999747,536.2757844999433,None,537.6932604999747,None,0.9300000000000006,539.2788474999834,None,540.0308553001378,None,,,,,,,[[1.57]],2.870000000000002,0.6881720430107527,11035,001,2024_Mar_10_1340,MFTM_A_new1021,2021.2.3,59.86858843743362,
,,,,,,,,stim/Instruction_adaptive.png,conditions/adaptive.xlsx,test,0.6,0.6,0.6,-0.6,-0.6,right,R,,,,,0,1,1,1,0,93,93,6,,,,,,,,,,,,,,,,,,,,,,,,,,,,,,,,,,,,,,,,,,,,540.5305244999472,None,right,1,2.345452999928966,541.0316844000481,542.4344298001379,541.0316844000481,541.9337265000213,541.0316844000481,541.9337265000213,541.0316844000481,541.9337265000213,541.0316844000481,541.9337265000213,541.0316844000481,541.9337265000213,541.9168938000221,542.4169366999995,541.9168938000221,542.4169366999995,541.9168938000221,542.4169366999995,541.9168938000221,542.4169366999995,541.9168938000221,542.4169366999995,541.9168938000221,542.4169366999995,541.9168938000221,542.4169366999995,541.9168938000221,542.4169366999995,541.0316844000481,None,542.4169366999995,544.0207124000881,0.9000000000000006,544.0361083000898,None,544.7873245999217,None,,,,,,,[[1.6]],2.900000000000002,0.6914893617021277,11035,001,2024_Mar_10_1340,MFTM_A_new1021,2021.2.3,59.86858843743362,
