arrwidth1,arrwidth2,arrwidth3,arrwidth4,arrwidth5,keyb,type,orientation,instruction_image,block_filename,block_type,arrow11,arrow22,arrow33,arrow44,arrow55,keyb_3,orientation3,trials.thisRepN,trials.thisTrialN,trials.thisN,trials.thisIndex,trials_3.thisRepN,trials_3.thisTrialN,trials_3.thisN,trials_3.thisIndex,trials_2.thisRepN,trials_2.thisTrialN,trials_2.thisN,trials_2.thisIndex,welcome.started,welcome.stopped,key_resp.keys,key_resp.rt,key_resp.started,key_resp.stopped,instruction_example.started,instruction_example.stopped,key_resp_3.keys,key_resp_3.rt,key_resp_3.started,key_resp_3.stopped,instruction_task.started,instruction_task.stopped,key_resp_2.keys,key_resp_2.rt,key_resp_2.started,key_resp_2.stopped,text_2.started,text_2.stopped,A1.started,A1.stopped,A2.started,A2.stopped,A3.started,A3.stopped,A4.started,A4.stopped,A5.started,A5.stopped,key_resp_4.keys,key_resp_4.corr,key_resp_4.rt,key_resp_4.started,key_resp_4.stopped,fb.started,fb.stopped,instruction_block.started,instruction_block.stopped,key_resp_8.keys,key_resp_8.rt,key_resp_8.started,key_resp_8.stopped,text_8.started,text_8.stopped,key_resp_9.keys,key_resp_9.corr,key_resp_9.rt,text_5.started,text_5.stopped,A11_3.started,A11_3.stopped,A22_2.started,A22_2.stopped,A33_2.started,A33_2.stopped,A44_2.started,A44_2.stopped,A55_2.started,A55_2.stopped,M1_3.started,M1_3.stopped,M2_2.started,M2_2.stopped,M3_2.started,M3_2.stopped,M4_2.started,M4_2.stopped,M5_2.started,M5_2.stopped,M6_2.started,M6_2.stopped,M7_2.started,M7_2.stopped,M8_2.started,M8_2.stopped,key_resp_9.started,key_resp_9.stopped,fixation.started,fixation.stopped,ET,fb_3.started,fb_3.stopped,text_9.started,text_9.stopped,fb_4.started,fb_4.stopped,text_7.started,text_7.stopped,endtext.started,endtext.stopped,fixation_ITI,CCC,Acc,participant,session,date,expName,psychopyVersion,frameRate,
,,,,,,,,,,,,,,,,,,,,,,,,,,,,,,21.38964179996401,None,space,42.817057400010526,21.38964179996401,None,,,,,,,,,,,,,,,,,,,,,,,,,,,,,,,,,,,,,,,,,,,,,,,,,,,,,,,,,,,,,,,,,,,,,,,,,,,,,,,,,,,,,,,,,11037,001,2024_Mar_11_1501,MFTM_A_new1021,2021.2.3,59.89250489460407,
,,,,,,,,,,,,,,,,,,,,,,,,,,,,,,,,,,,,64.22162700002082,None,space,10.68957530008629,64.22162700002082,None,,,,,,,,,,,,,,,,,,,,,,,,,,,,,,,,,,,,,,,,,,,,,,,,,,,,,,,,,,,,,,,,,,,,,,,,,,,,,,,,,,,11037,001,2024_Mar_11_1501,MFTM_A_new1021,2021.2.3,59.89250489460407,
,,,,,,,,,,,,,,,,,,,,,,,,,,,,,,,,,,,,,,,,,,74.93775469996035,None,space,2.813645499991253,74.93775469996035,None,,,,,,,,,,,,,,,,,,,,,,,,,,,,,,,,,,,,,,,,,,,,,,,,,,,,,,,,,,,,,,,,,,,,,,,,,,,,,11037,001,2024_Mar_11_1501,MFTM_A_new1021,2021.2.3,59.89250489460407,
0.6,0.6,0.6,-0.6,-0.6,right,3:2,R,,,,,,,,,,,0,0,0,0,,,,,,,,,,,,,,,,,,,,,,,,,,,77.79320749989711,None,77.79320749989711,None,77.79320749989711,None,77.79320749989711,None,77.79320749989711,None,77.79320749989711,None,right,1,4.51000149990432,77.79320749989711,None,82.35036939987913,None,,,,,,,,,,,,,,,,,,,,,,,,,,,,,,,,,,,,,,,,,,,,,,,,,,,,,,,,,,11037,001,2024_Mar_11_1501,MFTM_A_new1021,2021.2.3,59.89250489460407,
-0.6,-0.6,-0.6,0.6,0.6,left,3:2,L,,,,,,,,,,,0,1,1,1,,,,,,,,,,,,,,,,,,,,,,,,,,,83.10093439999036,None,83.10093439999036,None,83.10093439999036,None,83.10093439999036,None,83.10093439999036,None,83.10093439999036,None,left,1,1.7542167999781668,83.10093439999036,None,84.8862383000087,None,,,,,,,,,,,,,,,,,,,,,,,,,,,,,,,,,,,,,,,,,,,,,,,,,,,,,,,,,,11037,001,2024_Mar_11_1501,MFTM_A_new1021,2021.2.3,59.89250489460407,
0.6,0.6,0.6,-0.6,-0.6,right,3:2,R,,,,,,,,,,,1,0,2,0,,,,,,,,,,,,,,,,,,,,,,,,,,,85.63723320001736,None,85.63723320001736,None,85.63723320001736,None,85.63723320001736,None,85.63723320001736,None,85.63723320001736,None,right,1,1.6747989999130368,85.63723320001736,None,87.33969870000146,None,,,,,,,,,,,,,,,,,,,,,,,,,,,,,,,,,,,,,,,,,,,,,,,,,,,,,,,,,,11037,001,2024_Mar_11_1501,MFTM_A_new1021,2021.2.3,59.89250489460407,
-0.6,-0.6,-0.6,0.6,0.6,left,3:2,L,,,,,,,,,,,1,1,3,1,,,,,,,,,,,,,,,,,,,,,,,,,,,88.09096199995838,None,88.09096199995838,None,88.09096199995838,None,88.09096199995838,None,88.09096199995838,None,88.09096199995838,None,left,1,1.7083846000023186,88.09096199995838,None,89.82692010002211,None,,,,,,,,,,,,,,,,,,,,,,,,,,,,,,,,,,,,,,,,,,,,,,,,,,,,,,,,,,11037,001,2024_Mar_11_1501,MFTM_A_new1021,2021.2.3,59.89250489460407,
,,,,,,,,stim/Instruction_mask.png,conditions/adaptive.xlsx,practice,-0.6,-0.6,-0.6,0.6,0.6,left,L,,,,,0,0,0,0,0,0,0,93,,,,,,,,,,,,,,,,,,,,,,,,,,,,,,,,,,,,,,90.84508809982799,None,space,30.820193800143898,90.84508809982799,None,121.75919469981454,None,None,0,0,122.20926309982315,None,122.20926309982315,125.21440709987655,122.20926309982315,125.21440709987655,122.20926309982315,125.21440709987655,122.20926309982315,125.21440709987655,122.20926309982315,125.21440709987655,125.19749920000322,125.69871749985032,125.19749920000322,125.69871749985032,125.19749920000322,125.69871749985032,125.19749920000322,125.69871749985032,125.19749920000322,125.69871749985032,125.19749920000322,125.69871749985032,125.19749920000322,125.69871749985032,125.19749920000322,125.69871749985032,122.20926309982315,None,125.69871749985032,125.69871749985032,3,125.7136941999197,None,126.46685520000756,None,,,,,,,,,,11037,001,2024_Mar_11_1501,MFTM_A_new1021,2021.2.3,59.89250489460407,
,,,,,,,,stim/Instruction_mask.png,conditions/adaptive.xlsx,practice,-0.6,-0.6,-0.6,0.6,0.6,left,L,,,,,0,0,0,0,0,1,1,51,,,,,,,,,,,,,,,,,,,,,,,,,,,,,,,,,,,,,,,,,,,,126.96717419987544,None,None,0,0,127.4668837999925,129.47127399989404,127.4668837999925,128.9691581998486,127.4668837999925,128.9691581998486,127.4668837999925,128.9691581998486,127.4668837999925,128.9691581998486,127.4668837999925,128.9691581998486,128.95336389984004,129.45404869993217,128.95336389984004,129.45404869993217,128.95336389984004,129.45404869993217,128.95336389984004,129.45404869993217,128.95336389984004,129.45404869993217,128.95336389984004,129.45404869993217,128.95336389984004,129.45404869993217,128.95336389984004,129.45404869993217,127.4668837999925,None,129.45404869993217,130.95581689989194,1.5,130.97321549989283,None,131.72343649994582,None,,,,,,,,,,11037,001,2024_Mar_11_1501,MFTM_A_new1021,2021.2.3,59.89250489460407,
,,,,,,,,stim/Instruction_mask.png,conditions/adaptive.xlsx,practice,-0.6,-0.6,-0.6,0.6,0.6,left,L,,,,,0,0,0,0,0,2,2,53,,,,,,,,,,,,,,,,,,,,,,,,,,,,,,,,,,,,,,,,,,,,132.2242085998878,None,right,0,2.3793325999286026,132.72547579999082,134.02799269999377,132.72547579999082,133.52640779991634,132.72547579999082,133.52640779991634,132.72547579999082,133.52640779991634,132.72547579999082,133.52640779991634,132.72547579999082,133.52640779991634,133.510359399952,134.01103059994057,133.510359399952,134.01103059994057,133.510359399952,134.01103059994057,133.510359399952,134.01103059994057,133.510359399952,134.01103059994057,133.510359399952,134.01103059994057,133.510359399952,134.01103059994057,133.510359399952,134.01103059994057,132.72547579999082,None,134.01103059994057,136.21396939991973,0.8,136.23023939994164,None,136.98210639995523,None,,,,,,,,,,11037,001,2024_Mar_11_1501,MFTM_A_new1021,2021.2.3,59.89250489460407,
,,,,,,,,stim/Instruction_mask.png,conditions/adaptive.xlsx,practice,-0.6,-0.6,-0.6,0.6,0.6,left,L,,,,,0,0,0,0,0,3,3,79,,,,,,,,,,,,,,,,,,,,,,,,,,,,,,,,,,,,,,,,,,,,137.4837017999962,None,right,0,1.4421565998345613,137.98277199990116,138.7350579998456,137.98277199990116,138.2334807999432,137.98277199990116,138.2334807999432,137.98277199990116,138.2334807999432,137.98277199990116,138.2334807999432,137.98277199990116,138.2334807999432,138.21657989989035,138.71740889991634,138.21657989989035,138.71740889991634,138.21657989989035,138.71740889991634,138.21657989989035,138.71740889991634,138.21657989989035,138.71740889991634,138.21657989989035,138.71740889991634,138.21657989989035,138.71740889991634,138.21657989989035,138.71740889991634,137.98277199990116,None,138.71740889991634,141.47235569986515,3,141.48930180002935,None,142.24056559987366,None,,,,,,,,,,11037,001,2024_Mar_11_1501,MFTM_A_new1021,2021.2.3,59.89250489460407,
,,,,,,,,stim/Instruction_mask.png,conditions/adaptive.xlsx,practice,,,,,,,,,,,,0,0,0,0,,,,,,,,,,,,,,,,,,,,,,,,,,,,,,,,,,,,,,,,,,,,,,,,,,,,,,,,,,,,,,,,,,,,,,,,,,,,,,,,,,,,,,,,,,142.75680930004455,143.7592188999988,143.72497859993018,143.72497859993018,143.72497859993018,None,,,,11037,001,2024_Mar_11_1501,MFTM_A_new1021,2021.2.3,59.89250489460407,
,,,,,,,,stim/Instruction_adaptive.png,conditions/adaptive.xlsx,test,0.6,0.6,0.6,-0.6,-0.6,right,R,,,,,0,1,1,1,0,0,0,60,,,,,,,,,,,,,,,,,,,,,,,,,,,,,,,,,,,,,,146.89598279981874,None,space,23.202492699958384,146.89598279981874,None,170.14939429983497,None,right,1,3.1615820000879467,170.63226379989646,None,170.63226379989646,173.63748000003397,170.63226379989646,173.63748000003397,170.63226379989646,173.63748000003397,170.63226379989646,173.63748000003397,170.63226379989646,173.63748000003397,173.62019449984655,174.1215476000216,173.62019449984655,174.1215476000216,173.62019449984655,174.1215476000216,173.62019449984655,174.1215476000216,173.62019449984655,174.1215476000216,173.62019449984655,174.1215476000216,173.62019449984655,174.1215476000216,173.62019449984655,174.1215476000216,170.63226379989646,None,174.1215476000216,174.1215476000216,3,174.1374502000399,None,174.88970219995826,None,,,,,,,0,6.000000000000005,1.0,11037,001,2024_Mar_11_1501,MFTM_A_new1021,2021.2.3,59.89250489460407,
,,,,,,,,stim/Instruction_adaptive.png,conditions/adaptive.xlsx,test,0.6,0.6,0.6,-0.6,-0.6,right,R,,,,,0,1,1,1,0,1,1,32,,,,,,,,,,,,,,,,,,,,,,,,,,,,,,,,,,,,,,,,,,,,175.3907291998621,None,right,1,1.199933199910447,175.89026459981687,176.64122769981623,175.89026459981687,176.1405211999081,175.89026459981687,176.1405211999081,175.89026459981687,176.1405211999081,175.89026459981687,176.1405211999081,175.89026459981687,176.1405211999081,176.12368640000932,176.62517969985493,176.12368640000932,176.62517969985493,176.12368640000932,176.62517969985493,176.12368640000932,176.62517969985493,176.12368640000932,176.62517969985493,176.12368640000932,176.62517969985493,176.12368640000932,176.62517969985493,176.12368640000932,176.62517969985493,175.89026459981687,None,176.62517969985493,177.50917089986615,0.25,177.52583109983243,None,178.2771356999874,None,,,,,,,[0.875],6.000000000000005,1.0,11037,001,2024_Mar_11_1501,MFTM_A_new1021,2021.2.3,59.89250489460407,
,,,,,,,,stim/Instruction_adaptive.png,conditions/adaptive.xlsx,test,0.6,0.6,0.6,-0.6,-0.6,right,R,,,,,0,1,1,1,0,2,2,10,,,,,,,,,,,,,,,,,,,,,,,,,,,,,,,,,,,,,,,,,,,,178.77844619983807,None,left,0,1.107346300035715,179.27859360002913,180.02962349983864,179.27859360002913,179.52995310002007,179.27859360002913,179.52995310002007,179.27859360002913,179.52995310002007,179.27859360002913,179.52995310002007,179.27859360002913,179.52995310002007,179.51224999991246,180.01301099988632,179.51224999991246,180.01301099988632,179.51224999991246,180.01301099988632,179.51224999991246,180.01301099988632,179.51224999991246,180.01301099988632,179.51224999991246,180.01301099988632,179.51224999991246,180.01301099988632,179.51224999991246,180.01301099988632,179.27859360002913,None,180.01301099988632,181.34870259999298,0.25,181.3644234999083,None,182.11701159994118,None,,,,,,,[1.33333333],3.1800000000000024,0.6666666666666666,11037,001,2024_Mar_11_1501,MFTM_A_new1021,2021.2.3,59.89250489460407,
,,,,,,,,stim/Instruction_adaptive.png,conditions/adaptive.xlsx,test,0.6,0.6,0.6,-0.6,-0.6,right,R,,,,,0,1,1,1,0,3,3,48,,,,,,,,,,,,,,,,,,,,,,,,,,,,,,,,,,,,,,,,,,,,182.61761069996282,None,right,1,1.0855525999795645,183.1176394999493,184.3537018999923,183.1176394999493,183.8526612999849,183.1176394999493,183.8526612999849,183.1176394999493,183.8526612999849,183.1176394999493,183.8526612999849,183.1176394999493,183.8526612999849,183.83651409996673,184.33688379987143,183.83651409996673,184.33688379987143,183.83651409996673,184.33688379987143,183.83651409996673,184.33688379987143,183.83651409996673,184.33688379987143,183.83651409996673,184.33688379987143,183.83651409996673,184.33688379987143,183.83651409996673,184.33688379987143,183.1176394999493,None,184.33688379987143,None,0.7300000000000004,185.7882963998709,None,186.54014529986307,None,,,,,,,[1.4425],4.030000000000003,0.75,11037,001,2024_Mar_11_1501,MFTM_A_new1021,2021.2.3,59.89250489460407,
,,,,,,,,stim/Instruction_adaptive.png,conditions/adaptive.xlsx,test,0.6,0.6,0.6,-0.6,-0.6,right,R,,,,,0,1,1,1,0,4,4,50,,,,,,,,,,,,,,,,,,,,,,,,,,,,,,,,,,,,,,,,,,,,187.04095890000463,None,left,0,1.1179080000147223,187.54235639981925,188.44312709989026,187.54235639981925,187.9416471000295,187.54235639981925,187.9416471000295,187.54235639981925,187.9416471000295,187.54235639981925,187.9416471000295,187.54235639981925,187.9416471000295,187.92512629996054,188.4266367999371,187.92512629996054,188.4266367999371,187.92512629996054,188.4266367999371,187.92512629996054,188.4266367999371,187.92512629996054,188.4266367999371,187.92512629996054,188.4266367999371,187.92512629996054,188.4266367999371,187.92512629996054,188.4266367999371,187.54235639981925,None,188.4266367999371,190.01149019994773,0.40000000000000013,190.02806359995157,None,190.78006060002372,None,,,,,,,[1.574],2.8100000000000023,0.6,11037,001,2024_Mar_11_1501,MFTM_A_new1021,2021.2.3,59.89250489460407,
,,,,,,,,stim/Instruction_adaptive.png,conditions/adaptive.xlsx,test,-0.6,-0.6,-0.6,0.6,0.6,left,L,,,,,0,1,1,1,0,5,5,83,,,,,,,,,,,,,,,,,,,,,,,,,,,,,,,,,,,,,,,,,,,,191.2808452998288,None,right,0,2.1172718999441713,191.78139270003885,193.23297979985364,191.78139270003885,192.73217949992977,191.78139270003885,192.73217949992977,191.78139270003885,192.73217949992977,191.78139270003885,192.73217949992977,191.78139270003885,192.73217949992977,192.69920569984242,193.20029519987293,192.69920569984242,193.20029519987293,192.69920569984242,193.20029519987293,192.69920569984242,193.20029519987293,192.69920569984242,193.20029519987293,192.69920569984242,193.20029519987293,192.69920569984242,193.20029519987293,192.69920569984242,193.20029519987293,191.78139270003885,None,193.20029519987293,194.76941599999554,0.9400000000000006,194.78552989987656,None,195.53697360004298,None,,,,,,,[[1.56]],1.3500000000000008,0.5,11037,001,2024_Mar_11_1501,MFTM_A_new1021,2021.2.3,59.89250489460407,
,,,,,,,,stim/Instruction_adaptive.png,conditions/adaptive.xlsx,test,-0.6,-0.6,-0.6,0.6,0.6,left,L,,,,,0,1,1,1,0,6,6,19,,,,,,,,,,,,,,,,,,,,,,,,,,,,,,,,,,,,,,,,,,,,196.03720110002905,None,left,1,2.4324295001570135,196.5378539999947,None,196.5378539999947,199.125194999855,196.5378539999947,199.125194999855,196.5378539999947,199.125194999855,196.5378539999947,199.125194999855,196.5378539999947,199.125194999855,199.10864629992284,199.6092737999279,199.10864629992284,199.6092737999279,199.10864629992284,199.6092737999279,199.10864629992284,199.6092737999279,199.10864629992284,199.6092737999279,199.10864629992284,199.6092737999279,199.10864629992284,199.6092737999279,199.10864629992284,199.6092737999279,196.5378539999947,None,199.6092737999279,199.6092737999279,2.580000000000002,199.62579279998317,None,200.37808669987135,None,,,,,,,0,2.0500000000000016,0.5714285714285714,11037,001,2024_Mar_11_1501,MFTM_A_new1021,2021.2.3,59.89250489460407,
,,,,,,,,stim/Instruction_adaptive.png,conditions/adaptive.xlsx,test,0.6,0.6,0.6,-0.6,-0.6,right,R,,,,,0,1,1,1,0,7,7,94,,,,,,,,,,,,,,,,,,,,,,,,,,,,,,,,,,,,,,,,,,,,200.8786500999704,None,left,0,1.5843487998936325,201.3785933998879,203.48180829989724,201.3785933998879,202.98086929996498,201.3785933998879,202.98086929996498,201.3785933998879,202.98086929996498,201.3785933998879,202.98086929996498,201.3785933998879,202.98086929996498,202.9480492998846,203.44813039992005,202.9480492998846,203.44813039992005,202.9480492998846,203.44813039992005,202.9480492998846,203.44813039992005,202.9480492998846,203.44813039992005,202.9480492998846,203.44813039992005,202.9480492998846,203.44813039992005,202.9480492998846,203.44813039992005,201.3785933998879,None,203.44813039992005,204.36624139989726,1.5900000000000012,204.38303999998607,None,205.1341396998614,None,,,,,,,[[0.91]],0.8000000000000003,0.5,11037,001,2024_Mar_11_1501,MFTM_A_new1021,2021.2.3,59.89250489460407,
,,,,,,,,stim/Instruction_adaptive.png,conditions/adaptive.xlsx,test,0.6,0.6,0.6,-0.6,-0.6,right,R,,,,,0,1,1,1,0,8,8,36,,,,,,,,,,,,,,,,,,,,,,,,,,,,,,,,,,,,,,,,,,,,205.6358498998452,None,right,1,1.2424694001674652,206.13626139983535,None,206.13626139983535,209.14020449994132,206.13626139983535,209.14020449994132,206.13626139983535,209.14020449994132,206.13626139983535,209.14020449994132,206.13626139983535,209.14020449994132,209.12386920000426,209.6252305000089,209.12386920000426,209.6252305000089,209.12386920000426,209.6252305000089,209.12386920000426,209.6252305000089,209.12386920000426,209.6252305000089,209.12386920000426,209.6252305000089,209.12386920000426,209.6252305000089,209.12386920000426,209.6252305000089,206.13626139983535,None,209.60761259985156,209.60761259985156,3.0000000000000027,209.6410179999657,None,210.39289959985763,None,,,,,,,0,1.4200000000000008,0.5555555555555556,11037,001,2024_Mar_11_1501,MFTM_A_new1021,2021.2.3,59.89250489460407,
,,,,,,,,stim/Instruction_adaptive.png,conditions/adaptive.xlsx,test,-0.6,-0.6,-0.6,0.6,0.6,left,L,,,,,0,1,1,1,0,9,9,51,,,,,,,,,,,,,,,,,,,,,,,,,,,,,,,,,,,,,,,,,,,,210.8934484999627,None,left,1,1.8575814999639988,211.39355669985525,214.36553639988415,211.39355669985525,213.86418249993585,211.39355669985525,213.86418249993585,211.39355669985525,213.86418249993585,211.39355669985525,213.86418249993585,211.39355669985525,213.86418249993585,213.83077589981258,214.33194079995155,213.83077589981258,214.33194079995155,213.83077589981258,214.33194079995155,213.83077589981258,214.33194079995155,213.83077589981258,214.33194079995155,213.83077589981258,214.33194079995155,213.83077589981258,214.33194079995155,213.83077589981258,214.33194079995155,211.39355669985525,None,214.33194079995155,214.382066299906,2.4600000000000017,214.39823019993491,None,215.15000739996321,None,,,,,,,[[0.04]],1.7700000000000011,0.6,11037,001,2024_Mar_11_1501,MFTM_A_new1021,2021.2.3,59.89250489460407,
,,,,,,,,stim/Instruction_adaptive.png,conditions/adaptive.xlsx,test,-0.6,-0.6,-0.6,0.6,0.6,left,L,,,,,0,1,1,1,0,10,10,55,,,,,,,,,,,,,,,,,,,,,,,,,,,,,,,,,,,,,,,,,,,,215.6501692000311,None,left,1,2.73132020002231,216.15195089997724,218.58780759992078,216.15195089997724,218.08723949990235,216.15195089997724,218.08723949990235,216.15195089997724,218.08723949990235,216.15195089997724,218.08723949990235,216.15195089997724,218.08723949990235,218.07057340000756,218.57251559989527,218.07057340000756,218.57251559989527,218.07057340000756,218.57251559989527,218.07057340000756,218.57251559989527,218.07057340000756,218.57251559989527,218.07057340000756,218.57251559989527,218.07057340000756,218.57251559989527,218.07057340000756,218.57251559989527,216.15195089997724,None,218.55530199990608,219.13935870002024,1.9300000000000015,219.15541759994812,None,219.9071559999138,None,,,,,,,[[0.57]],2.0200000000000014,0.6363636363636364,11037,001,2024_Mar_11_1501,MFTM_A_new1021,2021.2.3,59.89250489460407,
,,,,,,,,stim/Instruction_adaptive.png,conditions/adaptive.xlsx,test,0.6,0.6,0.6,-0.6,-0.6,right,R,,,,,0,1,1,1,0,11,11,82,,,,,,,,,,,,,,,,,,,,,,,,,,,,,,,,,,,,,,,,,,,,220.40787769993767,None,right,1,1.183141800109297,220.90804829983972,223.02775589982048,220.90804829983972,222.52786769997329,220.90804829983972,222.52786769997329,220.90804829983972,222.52786769997329,220.90804829983972,222.52786769997329,220.90804829983972,222.52786769997329,222.51041079987772,223.01171979983337,222.51041079987772,223.01171979983337,222.51041079987772,223.01171979983337,222.51041079987772,223.01171979983337,222.51041079987772,223.01171979983337,222.51041079987772,223.01171979983337,222.51041079987772,223.01171979983337,222.51041079987772,223.01171979983337,220.90804829983972,None,223.01171979983337,223.89576560002752,1.6200000000000012,223.9125247998163,None,224.66432129987516,None,,,,,,,[[0.88]],2.2100000000000017,0.6666666666666666,11037,001,2024_Mar_11_1501,MFTM_A_new1021,2021.2.3,59.89250489460407,
,,,,,,,,stim/Instruction_adaptive.png,conditions/adaptive.xlsx,test,0.6,0.6,0.6,-0.6,-0.6,right,R,,,,,0,1,1,1,0,12,12,42,,,,,,,,,,,,,,,,,,,,,,,,,,,,,,,,,,,,,,,,,,,,225.16450559999794,None,right,1,1.6023796000517905,225.6652732999064,227.5850132999476,225.6652732999064,227.10123059991747,225.6652732999064,227.10123059991747,225.6652732999064,227.10123059991747,225.6652732999064,227.10123059991747,225.6652732999064,227.10123059991747,227.0673445998691,227.56843529990874,227.0673445998691,227.56843529990874,227.0673445998691,227.56843529990874,227.0673445998691,227.56843529990874,227.0673445998691,227.56843529990874,227.0673445998691,227.56843529990874,227.0673445998691,227.56843529990874,227.0673445998691,227.56843529990874,225.6652732999064,None,227.56843529990874,228.52016359986737,1.420000000000001,228.5369064998813,None,229.2885769000277,None,,,,,,,[0.94846154],2.3800000000000017,0.6923076923076923,11037,001,2024_Mar_11_1501,MFTM_A_new1021,2021.2.3,59.89250489460407,
,,,,,,,,stim/Instruction_adaptive.png,conditions/adaptive.xlsx,test,0.6,0.6,0.6,-0.6,-0.6,right,R,,,,,0,1,1,1,0,13,13,58,,,,,,,,,,,,,,,,,,,,,,,,,,,,,,,,,,,,,,,,,,,,229.78800949989818,None,right,1,2.2510533002205193,230.28877649991773,232.05905699986033,230.28877649991773,231.55851589981467,230.28877649991773,231.55851589981467,230.28877649991773,231.55851589981467,230.28877649991773,231.55851589981467,230.28877649991773,231.55851589981467,231.5239854999818,232.02529549994506,231.5239854999818,232.02529549994506,231.5239854999818,232.02529549994506,231.5239854999818,232.02529549994506,231.5239854999818,232.02529549994506,231.5239854999818,232.02529549994506,231.5239854999818,232.02529549994506,231.5239854999818,232.02529549994506,230.28877649991773,None,232.02529549994506,233.00956879998557,1.260000000000001,233.02666500001214,None,233.7776462000329,None,,,,,,,[0.96928571],2.520000000000002,0.7142857142857143,11037,001,2024_Mar_11_1501,MFTM_A_new1021,2021.2.3,59.89250489460407,
,,,,,,,,stim/Instruction_adaptive.png,conditions/adaptive.xlsx,test,0.6,0.6,0.6,-0.6,-0.6,right,R,,,,,0,1,1,1,0,14,14,86,,,,,,,,,,,,,,,,,,,,,,,,,,,,,,,,,,,,,,,,,,,,234.2790880999528,None,left,0,1.4167017999570817,234.77903209999204,236.43231750000268,234.77903209999204,235.9308338998817,234.77903209999204,235.9308338998817,234.77903209999204,235.9308338998817,234.77903209999204,235.9308338998817,234.77903209999204,235.9308338998817,235.91403679992072,236.41469100001268,235.91403679992072,236.41469100001268,235.91403679992072,236.41469100001268,235.91403679992072,236.41469100001268,235.91403679992072,236.41469100001268,235.91403679992072,236.41469100001268,235.91403679992072,236.41469100001268,235.91403679992072,236.41469100001268,234.77903209999204,None,236.41469100001268,237.41703869984485,1.1500000000000008,237.43263860000297,None,238.18493839981966,None,,,,,,,[0.99466667],2.1500000000000012,0.6666666666666666,11037,001,2024_Mar_11_1501,MFTM_A_new1021,2021.2.3,59.89250489460407,
,,,,,,,,stim/Instruction_adaptive.png,conditions/adaptive.xlsx,test,-0.6,-0.6,-0.6,0.6,0.6,left,L,,,,,0,1,1,1,0,15,15,5,,,,,,,,,,,,,,,,,,,,,,,,,,,,,,,,,,,,,,,,,,,,238.68560649990104,None,left,1,2.209418799960986,239.186314499937,241.17242349986918,239.186314499937,240.6710657000076,239.186314499937,240.6710657000076,239.186314499937,240.6710657000076,239.186314499937,240.6710657000076,239.186314499937,240.6710657000076,240.65527079999447,241.1559557998553,240.65527079999447,241.1559557998553,240.65527079999447,241.1559557998553,240.65527079999447,241.1559557998553,240.65527079999447,241.1559557998553,240.65527079999447,241.1559557998553,240.65527079999447,241.1559557998553,240.65527079999447,241.1559557998553,239.186314499937,None,241.1559557998553,242.15738360001706,1.480000000000001,242.17339659994468,None,242.92454509995878,None,,,,,,,[0.99625],2.290000000000002,0.6875,11037,001,2024_Mar_11_1501,MFTM_A_new1021,2021.2.3,59.89250489460407,
,,,,,,,,stim/Instruction_adaptive.png,conditions/adaptive.xlsx,test,0.6,0.6,0.6,-0.6,-0.6,right,R,,,,,0,1,1,1,0,16,16,70,,,,,,,,,,,,,,,,,,,,,,,,,,,,,,,,,,,,,,,,,,,,243.4261345998384,None,right,1,1.5185547000728548,243.92609029985033,245.77947339997627,243.92609029985033,245.2788851999212,243.92609029985033,245.2788851999212,243.92609029985033,245.2788851999212,243.92609029985033,245.2788851999212,243.92609029985033,245.2788851999212,245.26211209991015,245.76306359982118,245.26211209991015,245.76306359982118,245.26211209991015,245.76306359982118,245.26211209991015,245.76306359982118,245.26211209991015,245.76306359982118,245.26211209991015,245.76306359982118,245.26211209991015,245.76306359982118,245.26211209991015,245.76306359982118,243.92609029985033,None,245.76306359982118,None,1.350000000000001,246.78022349998355,None,247.53156599984504,None,,,,,,,[1.00529412],2.410000000000002,0.7058823529411765,11037,001,2024_Mar_11_1501,MFTM_A_new1021,2021.2.3,59.89250489460407,
,,,,,,,,stim/Instruction_adaptive.png,conditions/adaptive.xlsx,test,-0.6,-0.6,-0.6,0.6,0.6,left,L,,,,,0,1,1,1,0,17,17,97,,,,,,,,,,,,,,,,,,,,,,,,,,,,,,,,,,,,,,,,,,,,248.03218109998852,None,right,0,1.8715239998418838,248.53303739987314,250.28618679987267,248.53303739987314,249.78523479984142,248.53303739987314,249.78523479984142,248.53303739987314,249.78523479984142,248.53303739987314,249.78523479984142,248.53303739987314,249.78523479984142,249.75137089984491,250.25321289990097,249.75137089984491,250.25321289990097,249.75137089984491,250.25321289990097,249.75137089984491,250.25321289990097,249.75137089984491,250.25321289990097,249.75137089984491,250.25321289990097,249.75137089984491,250.25321289990097,249.75137089984491,250.25321289990097,248.53303739987314,None,250.25321289990097,251.28830050001852,1.2400000000000009,251.3035156999249,None,252.0560884999577,None,,,,,,,[1.01944444],2.0800000000000014,0.6666666666666666,11037,001,2024_Mar_11_1501,MFTM_A_new1021,2021.2.3,59.89250489460407,
,,,,,,,,stim/Instruction_adaptive.png,conditions/adaptive.xlsx,test,-0.6,-0.6,-0.6,0.6,0.6,left,L,,,,,0,1,1,1,0,18,18,25,,,,,,,,,,,,,,,,,,,,,,,,,,,,,,,,,,,,,,,,,,,,252.55617769993842,None,left,1,2.2120594999287277,253.05615790002048,255.12718069995753,253.05615790002048,254.62633619992994,253.05615790002048,254.62633619992994,253.05615790002048,254.62633619992994,253.05615790002048,254.62633619992994,253.05615790002048,254.62633619992994,254.60872599994764,255.11028019990772,254.60872599994764,255.11028019990772,254.60872599994764,255.11028019990772,254.60872599994764,255.11028019990772,254.60872599994764,255.11028019990772,254.60872599994764,255.11028019990772,254.60872599994764,255.11028019990772,254.60872599994764,255.11028019990772,253.05615790002048,None,255.11028019990772,None,1.5600000000000012,256.06159139983356,None,256.8121742999647,None,,,,,,,[[0.94]],2.2100000000000017,0.6842105263157895,11037,001,2024_Mar_11_1501,MFTM_A_new1021,2021.2.3,59.89250489460407,
,,,,,,,,stim/Instruction_adaptive.png,conditions/adaptive.xlsx,test,-0.6,-0.6,-0.6,0.6,0.6,left,L,,,,,0,1,1,1,0,19,19,43,,,,,,,,,,,,,,,,,,,,,,,,,,,,,,,,,,,,,,,,,,,,257.3135237998795,None,left,1,1.3428990999236703,257.8136683998164,259.7339041000232,257.8136683998164,259.2334463999141,257.8136683998164,259.2334463999141,257.8136683998164,259.2334463999141,257.8136683998164,259.2334463999141,257.8136683998164,259.2334463999141,259.2167766999919,259.7166261000093,259.2167766999919,259.7166261000093,259.2167766999919,259.7166261000093,259.2167766999919,259.7166261000093,259.2167766999919,259.7166261000093,259.2167766999919,259.7166261000093,259.2167766999919,259.7166261000093,259.2167766999919,259.7166261000093,257.8136683998164,None,259.7166261000093,260.73635429982096,1.420000000000001,260.7518712999299,None,261.5025920998305,None,,,,,,,[1.0185],2.3100000000000014,0.7,11037,001,2024_Mar_11_1501,MFTM_A_new1021,2021.2.3,59.89250489460407,
,,,,,,,,stim/Instruction_adaptive.png,conditions/adaptive.xlsx,test,-0.6,-0.6,-0.6,0.6,0.6,left,L,,,,,0,1,1,1,0,20,20,61,,,,,,,,,,,,,,,,,,,,,,,,,,,,,,,,,,,,,,,,,,,,262.0033170999959,None,left,1,1.4605849999934435,262.5039402998518,264.3407908999361,262.5039402998518,263.83950500003994,262.5039402998518,263.83950500003994,262.5039402998518,263.83950500003994,262.5039402998518,263.83950500003994,262.5039402998518,263.83950500003994,263.8235253000166,264.32431870000437,263.8235253000166,264.32431870000437,263.8235253000166,264.32431870000437,263.8235253000166,264.32431870000437,263.8235253000166,264.32431870000437,263.8235253000166,264.32431870000437,263.8235253000166,264.32431870000437,263.8235253000166,264.32431870000437,262.5039402998518,None,264.32431870000437,265.35907140001655,1.330000000000001,265.3750195999164,None,266.1274043000303,None,,,,,,,[1.02571429],2.410000000000002,0.7142857142857143,11037,001,2024_Mar_11_1501,MFTM_A_new1021,2021.2.3,59.89250489460407,
,,,,,,,,stim/Instruction_adaptive.png,conditions/adaptive.xlsx,test,0.6,0.6,0.6,-0.6,-0.6,right,R,,,,,0,1,1,1,0,21,21,92,,,,,,,,,,,,,,,,,,,,,,,,,,,,,,,,,,,,,,,,,,,,266.62784249987453,None,right,1,1.3801721001509577,267.12801919993944,268.88243819982745,267.12801919993944,268.3802322000265,267.12801919993944,268.3802322000265,267.12801919993944,268.3802322000265,267.12801919993944,268.3802322000265,267.12801919993944,268.3802322000265,268.3467983000446,268.8476821000222,268.3467983000446,268.8476821000222,268.3467983000446,268.8476821000222,268.3467983000446,268.8476821000222,268.3467983000446,268.8476821000222,268.3467983000446,268.8476821000222,268.3467983000446,268.8476821000222,268.3467983000446,268.8476821000222,267.12801919993944,None,268.8476821000222,269.8987761999015,1.2400000000000009,269.9152571000159,None,270.6672914000228,None,,,,,,,[1.03636364],2.5000000000000018,0.7272727272727273,11037,001,2024_Mar_11_1501,MFTM_A_new1021,2021.2.3,59.89250489460407,
,,,,,,,,stim/Instruction_adaptive.png,conditions/adaptive.xlsx,test,-0.6,-0.6,-0.6,0.6,0.6,left,L,,,,,0,1,1,1,0,22,22,71,,,,,,,,,,,,,,,,,,,,,,,,,,,,,,,,,,,,,,,,,,,,271.1682186999824,None,left,1,1.4413091000169516,271.6678449998144,273.33695329981856,271.6678449998144,272.836411499884,271.6678449998144,272.836411499884,271.6678449998144,272.836411499884,271.6678449998144,272.836411499884,271.6678449998144,272.836411499884,272.80278669996187,273.30363620002754,272.80278669996187,273.30363620002754,272.80278669996187,273.30363620002754,272.80278669996187,273.30363620002754,272.80278669996187,273.30363620002754,272.80278669996187,273.30363620002754,272.80278669996187,273.30363620002754,272.80278669996187,273.30363620002754,271.6678449998144,None,273.30363620002754,274.3557651999872,1.1600000000000008,274.3886153998319,None,275.1404846999794,None,,,,,,,[1.04956522],2.580000000000002,0.7391304347826086,11037,001,2024_Mar_11_1501,MFTM_A_new1021,2021.2.3,59.89250489460407,
,,,,,,,,stim/Instruction_adaptive.png,conditions/adaptive.xlsx,test,-0.6,-0.6,-0.6,0.6,0.6,left,L,,,,,0,1,1,1,0,23,23,11,,,,,,,,,,,,,,,,,,,,,,,,,,,,,,,,,,,,,,,,,,,,275.64113789983094,None,left,1,1.1915527998935431,276.1413095998578,277.74348559998907,276.1413095998578,277.2431566999294,276.1413095998578,277.2431566999294,276.1413095998578,277.2431566999294,276.1413095998578,277.2431566999294,276.1413095998578,277.2431566999294,277.2267517000437,277.7273319000378,277.2267517000437,277.7273319000378,277.2267517000437,277.7273319000378,277.2267517000437,277.7273319000378,277.2267517000437,277.7273319000378,277.2267517000437,277.7273319000378,277.2267517000437,277.7273319000378,277.2267517000437,277.7273319000378,276.1413095998578,None,277.7273319000378,278.79631929984316,1.1000000000000008,278.8122962999623,None,279.56288379989564,None,,,,,,,[1.06416667],2.650000000000002,0.75,11037,001,2024_Mar_11_1501,MFTM_A_new1021,2021.2.3,59.89250489460407,
,,,,,,,,stim/Instruction_adaptive.png,conditions/adaptive.xlsx,test,-0.6,-0.6,-0.6,0.6,0.6,left,L,,,,,0,1,1,1,0,24,24,27,,,,,,,,,,,,,,,,,,,,,,,,,,,,,,,,,,,,,,,,,,,,280.0648995998781,None,left,1,1.2326717001851648,280.56449739984237,282.1168960998766,280.56449739984237,281.6171754000243,280.56449739984237,281.6171754000243,280.56449739984237,281.6171754000243,280.56449739984237,281.6171754000243,280.56449739984237,281.6171754000243,281.5994132999331,282.10053389985114,281.5994132999331,282.10053389985114,281.5994132999331,282.10053389985114,281.5994132999331,282.10053389985114,281.5994132999331,282.10053389985114,281.5994132999331,282.10053389985114,281.5994132999331,282.10053389985114,281.5994132999331,282.10053389985114,280.56449739984237,None,282.10053389985114,283.18571179988794,1.0500000000000007,283.2019459998701,None,283.9528565998189,None,,,,,,,[1.0796],2.730000000000002,0.76,11037,001,2024_Mar_11_1501,MFTM_A_new1021,2021.2.3,59.89250489460407,
,,,,,,,,stim/Instruction_adaptive.png,conditions/adaptive.xlsx,test,0.6,0.6,0.6,-0.6,-0.6,right,R,,,,,0,1,1,1,0,25,25,18,,,,,,,,,,,,,,,,,,,,,,,,,,,,,,,,,,,,,,,,,,,,284.4547101999633,None,right,1,1.6102106999605894,284.9546666999813,286.4567713998258,284.9546666999813,285.95609109988436,284.9546666999813,285.95609109988436,284.9546666999813,285.95609109988436,284.9546666999813,285.95609109988436,284.9546666999813,285.95609109988436,285.9226611999329,286.423819599906,285.9226611999329,286.423819599906,285.9226611999329,286.423819599906,285.9226611999329,286.423819599906,285.9226611999329,286.423819599906,285.9226611999329,286.423819599906,285.9226611999329,286.423819599906,285.9226611999329,286.423819599906,284.9546666999813,None,286.423819599906,287.526154599851,0.9900000000000007,287.5417035999708,None,288.29370049992576,None,,,,,,,[1.09615385],2.790000000000002,0.7692307692307693,11037,001,2024_Mar_11_1501,MFTM_A_new1021,2021.2.3,59.89250489460407,
,,,,,,,,stim/Instruction_adaptive.png,conditions/adaptive.xlsx,test,-0.6,-0.6,-0.6,0.6,0.6,left,L,,,,,0,1,1,1,0,26,26,91,,,,,,,,,,,,,,,,,,,,,,,,,,,,,,,,,,,,,,,,,,,,288.7945008999668,None,left,1,1.0941814000252634,289.2948681998532,290.74651299999095,289.2948681998532,290.2460018999409,289.2948681998532,290.2460018999409,289.2948681998532,290.2460018999409,289.2948681998532,290.2460018999409,289.2948681998532,290.2460018999409,290.2292565999087,290.73004769999534,290.2292565999087,290.73004769999534,290.2292565999087,290.73004769999534,290.2292565999087,290.73004769999534,290.2292565999087,290.73004769999534,290.2292565999087,290.73004769999534,290.2292565999087,290.73004769999534,290.2292565999087,290.73004769999534,289.2948681998532,None,290.73004769999534,291.8492078999989,0.9500000000000006,291.86481900000945,None,292.6160651999526,None,,,,,,,[1.11296296],2.8500000000000023,0.7777777777777778,11037,001,2024_Mar_11_1501,MFTM_A_new1021,2021.2.3,59.89250489460407,
,,,,,,,,stim/Instruction_adaptive.png,conditions/adaptive.xlsx,test,-0.6,-0.6,-0.6,0.6,0.6,left,L,,,,,0,1,1,1,0,27,27,85,,,,,,,,,,,,,,,,,,,,,,,,,,,,,,,,,,,,,,,,,,,,293.1173572000116,None,left,1,1.1955434000119567,293.61765589984134,295.03692239988595,293.61765589984134,294.53568829991855,293.61765589984134,294.53568829991855,293.61765589984134,294.53568829991855,293.61765589984134,294.53568829991855,293.61765589984134,294.53568829991855,294.5189826998394,295.0207640998997,294.5189826998394,295.0207640998997,294.5189826998394,295.0207640998997,294.5189826998394,295.0207640998997,294.5189826998394,295.0207640998997,294.5189826998394,295.0207640998997,294.5189826998394,295.0207640998997,294.5189826998394,295.0207640998997,293.61765589984134,None,295.0207640998997,296.1556891000364,0.9100000000000006,296.17177569982596,None,296.9225534000434,None,,,,,,,[1.13],2.910000000000002,0.7857142857142857,11037,001,2024_Mar_11_1501,MFTM_A_new1021,2021.2.3,59.89250489460407,
,,,,,,,,stim/Instruction_adaptive.png,conditions/adaptive.xlsx,test,0.6,0.6,0.6,-0.6,-0.6,right,R,,,,,0,1,1,1,0,28,28,68,,,,,,,,,,,,,,,,,,,,,,,,,,,,,,,,,,,,,,,,,,,,297.42340780002996,None,right,1,1.1533774000126868,297.92408979986794,299.31170789990574,297.92408979986794,298.80879619996995,297.92408979986794,298.80879619996995,297.92408979986794,298.80879619996995,297.92408979986794,298.80879619996995,297.92408979986794,298.80879619996995,298.79240819998085,299.29277169983834,298.79240819998085,299.29277169983834,298.79240819998085,299.29277169983834,298.79240819998085,299.29277169983834,298.79240819998085,299.29277169983834,298.79240819998085,299.29277169983834,298.79240819998085,299.29277169983834,298.79240819998085,299.29277169983834,297.92408979986794,None,299.29277169983834,300.4456591999624,0.8800000000000006,300.4623534998391,None,301.21241030003875,None,,,,,,,[1.14689655],2.9700000000000024,0.7931034482758621,11037,001,2024_Mar_11_1501,MFTM_A_new1021,2021.2.3,59.89250489460407,
,,,,,,,,stim/Instruction_adaptive.png,conditions/adaptive.xlsx,test,-0.6,-0.6,-0.6,0.6,0.6,left,L,,,,,0,1,1,1,0,29,29,75,,,,,,,,,,,,,,,,,,,,,,,,,,,,,,,,,,,,,,,,,,,,301.713990499964,None,right,0,1.359567599836737,302.21423819987103,303.5665969999973,302.21423819987103,303.0651348999236,302.21423819987103,303.0651348999236,302.21423819987103,303.0651348999236,302.21423819987103,303.0651348999236,302.21423819987103,303.0651348999236,303.0316045000218,303.53255230002105,303.0316045000218,303.53255230002105,303.0316045000218,303.53255230002105,303.0316045000218,303.53255230002105,303.0316045000218,303.53255230002105,303.0316045000218,303.53255230002105,303.0316045000218,303.53255230002105,303.0316045000218,303.53255230002105,302.21423819987103,None,303.53255230002105,304.70174089982174,0.8400000000000005,304.7176973999012,None,305.46965049998835,None,,,,,,,[1.164],2.8100000000000023,0.7666666666666667,11037,001,2024_Mar_11_1501,MFTM_A_new1021,2021.2.3,59.89250489460407,
,,,,,,,,stim/Instruction_adaptive.png,conditions/adaptive.xlsx,test,0.6,0.6,0.6,-0.6,-0.6,right,R,,,,,0,1,1,1,0,30,30,34,,,,,,,,,,,,,,,,,,,,,,,,,,,,,,,,,,,,,,,,,,,,305.9703247998841,None,left,0,1.0950096999295056,306.4703261000104,307.9224411000032,306.4703261000104,307.42209269991145,306.4703261000104,307.42209269991145,306.4703261000104,307.42209269991145,306.4703261000104,307.42209269991145,306.4703261000104,307.42209269991145,307.38851059996523,307.8891030999366,307.38851059996523,307.8891030999366,307.38851059996523,307.8891030999366,307.38851059996523,307.8891030999366,307.38851059996523,307.8891030999366,307.38851059996523,307.8891030999366,307.38851059996523,307.8891030999366,307.38851059996523,307.8891030999366,306.4703261000104,None,307.8891030999366,309.07421309989877,0.9400000000000006,309.0908746998757,None,309.843192699831,None,,,,,,,[1.17677419],2.650000000000002,0.7419354838709677,11037,001,2024_Mar_11_1501,MFTM_A_new1021,2021.2.3,59.89250489460407,
,,,,,,,,stim/Instruction_adaptive.png,conditions/adaptive.xlsx,test,-0.6,-0.6,-0.6,0.6,0.6,left,L,,,,,0,1,1,1,0,31,31,65,,,,,,,,,,,,,,,,,,,,,,,,,,,,,,,,,,,,,,,,,,,,310.34345359983854,None,left,1,1.0501323998905718,310.84401739994064,312.3959053000435,310.84401739994064,311.8951858000364,310.84401739994064,311.8951858000364,310.84401739994064,311.8951858000364,310.84401739994064,311.8951858000364,310.84401739994064,311.8951858000364,311.8795902999118,312.3793565998785,311.8795902999118,312.3793565998785,311.8795902999118,312.3793565998785,311.8795902999118,312.3793565998785,311.8795902999118,312.3793565998785,311.8795902999118,312.3793565998785,311.8795902999118,312.3793565998785,311.8795902999118,312.3793565998785,310.84401739994064,None,312.3793565998785,313.5649353999179,1.0500000000000007,313.5810971998144,None,314.3322945998516,None,,,,,,,[1.1853125],2.700000000000002,0.75,11037,001,2024_Mar_11_1501,MFTM_A_new1021,2021.2.3,59.89250489460407,
,,,,,,,,stim/Instruction_adaptive.png,conditions/adaptive.xlsx,test,-0.6,-0.6,-0.6,0.6,0.6,left,L,,,,,0,1,1,1,0,32,32,9,,,,,,,,,,,,,,,,,,,,,,,,,,,,,,,,,,,,,,,,,,,,314.833931799978,None,left,1,1.1121832998469472,315.3335895999335,316.853920500027,315.3335895999335,316.35262389993295,315.3335895999335,316.35262389993295,315.3335895999335,316.35262389993295,315.3335895999335,316.35262389993295,315.3335895999335,316.35262389993295,316.3185010999441,316.82040189998224,316.3185010999441,316.82040189998224,316.3185010999441,316.82040189998224,316.3185010999441,316.82040189998224,316.3185010999441,316.82040189998224,316.3185010999441,316.82040189998224,316.3185010999441,316.82040189998224,316.3185010999441,316.82040189998224,315.3335895999335,None,316.82040189998224,318.02178979991004,1.0100000000000007,318.0377990999259,None,318.7894319000188,None,,,,,,,[1.19454545],2.760000000000002,0.7575757575757576,11037,001,2024_Mar_11_1501,MFTM_A_new1021,2021.2.3,59.89250489460407,
,,,,,,,,stim/Instruction_adaptive.png,conditions/adaptive.xlsx,test,-0.6,-0.6,-0.6,0.6,0.6,left,L,,,,,0,1,1,1,0,33,33,93,,,,,,,,,,,,,,,,,,,,,,,,,,,,,,,,,,,,,,,,,,,,319.29051199997775,None,right,0,1.5674566999077797,319.7904729999136,321.27694749995135,319.7904729999136,320.77599409990944,319.7904729999136,320.77599409990944,319.7904729999136,320.77599409990944,319.7904729999136,320.77599409990944,319.7904729999136,320.77599409990944,320.7424699999392,321.2426022000145,320.7424699999392,321.2426022000145,320.7424699999392,321.2426022000145,320.7424699999392,321.2426022000145,320.7424699999392,321.2426022000145,320.7424699999392,321.2426022000145,320.7424699999392,321.2426022000145,320.7424699999392,321.2426022000145,319.7904729999136,None,321.2426022000145,322.46117559983395,0.9700000000000006,322.4778183000162,None,323.23022000002675,None,,,,,,,[1.20441176],2.600000000000002,0.7352941176470589,11037,001,2024_Mar_11_1501,MFTM_A_new1021,2021.2.3,59.89250489460407,
,,,,,,,,stim/Instruction_adaptive.png,conditions/adaptive.xlsx,test,-0.6,-0.6,-0.6,0.6,0.6,left,L,,,,,0,1,1,1,0,34,34,99,,,,,,,,,,,,,,,,,,,,,,,,,,,,,,,,,,,,,,,,,,,,323.73060749983415,None,left,1,1.2076372997835279,324.2304541999474,325.8330174998846,324.2304541999474,325.3327579998877,324.2304541999474,325.3327579998877,324.2304541999474,325.3327579998877,324.2304541999474,325.3327579998877,324.2304541999474,325.3327579998877,325.2996991998516,325.80043439986184,325.2996991998516,325.80043439986184,325.2996991998516,325.80043439986184,325.2996991998516,325.80043439986184,325.2996991998516,325.80043439986184,325.2996991998516,325.80043439986184,325.2996991998516,325.80043439986184,325.2996991998516,325.80043439986184,324.2304541999474,None,325.80043439986184,327.0188129998278,1.0900000000000007,327.05284129991196,None,327.8047533999197,None,,,,,,,[1.21028571],2.660000000000002,0.7428571428571429,11037,001,2024_Mar_11_1501,MFTM_A_new1021,2021.2.3,59.89250489460407,
,,,,,,,,stim/Instruction_adaptive.png,conditions/adaptive.xlsx,test,-0.6,-0.6,-0.6,0.6,0.6,left,L,,,,,0,1,1,1,0,35,35,47,,,,,,,,,,,,,,,,,,,,,,,,,,,,,,,,,,,,,,,,,,,,328.3045216000173,None,left,1,1.2254321998916566,328.80469689983875,330.35716350004077,328.80469689983875,329.85652549983934,328.80469689983875,329.85652549983934,328.80469689983875,329.85652549983934,328.80469689983875,329.85652549983934,328.80469689983875,329.85652549983934,329.8236269999761,330.32397229992785,329.8236269999761,330.32397229992785,329.8236269999761,330.32397229992785,329.8236269999761,330.32397229992785,329.8236269999761,330.32397229992785,329.8236269999761,330.32397229992785,329.8236269999761,330.32397229992785,329.8236269999761,330.32397229992785,328.80469689983875,None,330.32397229992785,331.54207909991965,1.0400000000000007,331.5756163999904,None,332.32694089994766,None,,,,,,,[1.21722222],2.7100000000000017,0.75,11037,001,2024_Mar_11_1501,MFTM_A_new1021,2021.2.3,59.89250489460407,
,,,,,,,,stim/Instruction_adaptive.png,conditions/adaptive.xlsx,test,0.6,0.6,0.6,-0.6,-0.6,right,R,,,,,0,1,1,1,0,36,36,88,,,,,,,,,,,,,,,,,,,,,,,,,,,,,,,,,,,,,,,,,,,,332.82805339992046,None,right,1,1.5507817000616342,333.3273528998252,334.8466103998944,333.3273528998252,334.3460754000116,333.3273528998252,334.3460754000116,333.3273528998252,334.3460754000116,333.3273528998252,334.3460754000116,333.3273528998252,334.3460754000116,334.32909199991263,334.8311387998983,334.32909199991263,334.8311387998983,334.32909199991263,334.8311387998983,334.32909199991263,334.8311387998983,334.32909199991263,334.8311387998983,334.32909199991263,334.8311387998983,334.32909199991263,334.8311387998983,334.32909199991263,334.8311387998983,333.3273528998252,None,334.8311387998983,None,1.0100000000000007,336.0648209999781,None,336.8160327998921,None,,,,,,,[1.22459459],2.760000000000002,0.7567567567567568,11037,001,2024_Mar_11_1501,MFTM_A_new1021,2021.2.3,59.89250489460407,
,,,,,,,,stim/Instruction_adaptive.png,conditions/adaptive.xlsx,test,-0.6,-0.6,-0.6,0.6,0.6,left,L,,,,,0,1,1,1,0,37,37,67,,,,,,,,,,,,,,,,,,,,,,,,,,,,,,,,,,,,,,,,,,,,337.31764249992557,None,left,1,1.0782983000390232,337.8176106000319,339.2865767998155,337.8176106000319,338.802451999858,337.8176106000319,338.802451999858,337.8176106000319,338.802451999858,337.8176106000319,338.802451999858,337.8176106000319,338.802451999858,338.76993780001067,339.2707199999131,338.76993780001067,339.2707199999131,338.76993780001067,339.2707199999131,338.76993780001067,339.2707199999131,338.76993780001067,339.2707199999131,338.76993780001067,339.2707199999131,338.76993780001067,339.2707199999131,338.76993780001067,339.2707199999131,337.8176106000319,None,339.2707199999131,340.5063974999357,0.9700000000000006,340.5223944999743,None,341.27416379982606,None,,,,,,,[1.23263158],2.8100000000000023,0.7631578947368421,11037,001,2024_Mar_11_1501,MFTM_A_new1021,2021.2.3,59.89250489460407,
,,,,,,,,stim/Instruction_adaptive.png,conditions/adaptive.xlsx,test,0.6,0.6,0.6,-0.6,-0.6,right,R,,,,,0,1,1,1,0,38,38,96,,,,,,,,,,,,,,,,,,,,,,,,,,,,,,,,,,,,,,,,,,,,341.7747144999448,None,right,1,1.467940399888903,342.2745012999512,343.726742999861,342.2745012999512,343.2255789998453,342.2745012999512,343.2255789998453,342.2745012999512,343.2255789998453,342.2745012999512,343.2255789998453,342.2745012999512,343.2255789998453,343.19288600003347,343.69391599996015,343.19288600003347,343.69391599996015,343.19288600003347,343.69391599996015,343.19288600003347,343.69391599996015,343.19288600003347,343.69391599996015,343.19288600003347,343.69391599996015,343.19288600003347,343.69391599996015,343.19288600003347,343.69391599996015,342.2745012999512,None,343.69391599996015,344.9450991998892,0.9400000000000006,344.9625084998552,None,345.7135792998597,None,,,,,,,[1.24102564],2.8500000000000023,0.7692307692307693,11037,001,2024_Mar_11_1501,MFTM_A_new1021,2021.2.3,59.89250489460407,
,,,,,,,,stim/Instruction_adaptive.png,conditions/adaptive.xlsx,test,0.6,0.6,0.6,-0.6,-0.6,right,R,,,,,0,1,1,1,0,39,39,26,,,,,,,,,,,,,,,,,,,,,,,,,,,,,,,,,,,,,,,,,,,,346.2136802999303,None,left,0,1.0682926001027226,346.7144683999941,348.1331807000097,346.7144683999941,347.6332675998565,346.7144683999941,347.6332675998565,346.7144683999941,347.6332675998565,346.7144683999941,347.6332675998565,346.7144683999941,347.6332675998565,347.60001019993797,348.0997499998193,347.60001019993797,348.0997499998193,347.60001019993797,348.0997499998193,347.60001019993797,348.0997499998193,347.60001019993797,348.0997499998193,347.60001019993797,348.0997499998193,347.60001019993797,348.0997499998193,347.60001019993797,348.0997499998193,346.7144683999941,None,348.0997499998193,349.35252969991416,0.9100000000000006,349.3849428999238,None,350.136334199924,None,,,,,,,[1.24975],2.720000000000002,0.75,11037,001,2024_Mar_11_1501,MFTM_A_new1021,2021.2.3,59.89250489460407,
,,,,,,,,stim/Instruction_adaptive.png,conditions/adaptive.xlsx,test,0.6,0.6,0.6,-0.6,-0.6,right,R,,,,,0,1,1,1,0,40,40,6,,,,,,,,,,,,,,,,,,,,,,,,,,,,,,,,,,,,,,,,,,,,350.6377548999153,None,right,1,1.3247245999518782,351.1386308998335,352.64016479998827,351.1386308998335,352.1399315998424,351.1386308998335,352.1399315998424,351.1386308998335,352.1399315998424,351.1386308998335,352.1399315998424,351.1386308998335,352.1399315998424,352.12339179986157,352.6232735000085,352.12339179986157,352.6232735000085,352.12339179986157,352.6232735000085,352.12339179986157,352.6232735000085,352.12339179986157,352.6232735000085,352.12339179986157,352.6232735000085,352.12339179986157,352.6232735000085,352.12339179986157,352.6232735000085,351.1386308998335,None,352.6232735000085,353.89286359981634,1.0000000000000007,353.9086408999283,None,354.66040219995193,None,,,,,,,[1.25585366],2.7700000000000022,0.7560975609756098,11037,001,2024_Mar_11_1501,MFTM_A_new1021,2021.2.3,59.89250489460407,
,,,,,,,,stim/Instruction_adaptive.png,conditions/adaptive.xlsx,test,0.6,0.6,0.6,-0.6,-0.6,right,R,,,,,0,1,1,1,0,41,41,2,,,,,,,,,,,,,,,,,,,,,,,,,,,,,,,,,,,,,,,,,,,,355.16140599991195,None,right,1,1.210129899904132,355.6612404999323,357.1302243999671,355.6612404999323,356.6291972999461,355.6612404999323,356.6291972999461,355.6612404999323,356.6291972999461,355.6612404999323,356.6291972999461,355.6612404999323,356.6291972999461,356.5969505000394,357.0973004999105,356.5969505000394,357.0973004999105,356.5969505000394,357.0973004999105,356.5969505000394,357.0973004999105,356.5969505000394,357.0973004999105,356.5969505000394,357.0973004999105,356.5969505000394,357.0973004999105,356.5969505000394,357.0973004999105,355.6612404999323,None,357.0973004999105,358.36526919994503,0.9600000000000006,358.3988475999795,None,359.15048129996285,None,,,,,,,[1.26261905],2.8100000000000023,0.7619047619047619,11037,001,2024_Mar_11_1501,MFTM_A_new1021,2021.2.3,59.89250489460407,
,,,,,,,,stim/Instruction_adaptive.png,conditions/adaptive.xlsx,test,0.6,0.6,0.6,-0.6,-0.6,right,R,,,,,0,1,1,1,0,42,42,8,,,,,,,,,,,,,,,,,,,,,,,,,,,,,,,,,,,,,,,,,,,,359.65122359991074,None,right,1,1.1440726001746953,360.1512505998835,361.60440109996125,360.1512505998835,361.1027616998181,360.1512505998835,361.1027616998181,360.1512505998835,361.1027616998181,360.1512505998835,361.1027616998181,360.1512505998835,361.1027616998181,361.07003159984015,361.57010299991816,361.07003159984015,361.57010299991816,361.07003159984015,361.57010299991816,361.07003159984015,361.57010299991816,361.07003159984015,361.57010299991816,361.07003159984015,361.57010299991816,361.07003159984015,361.57010299991816,361.07003159984015,361.57010299991816,360.1512505998835,None,361.57010299991816,362.83934319997206,0.9400000000000006,362.87297869985923,None,363.6243385998532,None,,,,,,,[1.26953488],2.8500000000000023,0.7674418604651163,11037,001,2024_Mar_11_1501,MFTM_A_new1021,2021.2.3,59.89250489460407,
,,,,,,,,stim/Instruction_adaptive.png,conditions/adaptive.xlsx,test,0.6,0.6,0.6,-0.6,-0.6,right,R,,,,,0,1,1,1,0,43,43,90,,,,,,,,,,,,,,,,,,,,,,,,,,,,,,,,,,,,,,,,,,,,364.1238983999938,None,right,1,1.4456203000154346,364.62535299989395,366.04404589999467,364.62535299989395,365.54420170001686,364.62535299989395,365.54420170001686,364.62535299989395,365.54420170001686,364.62535299989395,365.54420170001686,364.62535299989395,365.54420170001686,365.5266815999057,366.02717339992523,365.5266815999057,366.02717339992523,365.5266815999057,366.02717339992523,365.5266815999057,366.02717339992523,365.5266815999057,366.02717339992523,365.5266815999057,366.02717339992523,365.5266815999057,366.02717339992523,365.5266815999057,366.02717339992523,364.62535299989395,None,366.01155219995417,367.2965315999463,0.9100000000000006,367.3124450999312,None,368.06396289984696,None,,,,,,,[1.27681818],2.8900000000000023,0.7727272727272727,11037,001,2024_Mar_11_1501,MFTM_A_new1021,2021.2.3,59.89250489460407,
,,,,,,,,stim/Instruction_adaptive.png,conditions/adaptive.xlsx,test,-0.6,-0.6,-0.6,0.6,0.6,left,L,,,,,0,1,1,1,0,44,44,3,,,,,,,,,,,,,,,,,,,,,,,,,,,,,,,,,,,,,,,,,,,,368.5650837998837,None,left,1,1.6381043998990208,369.0648542998824,370.46693799993955,369.0648542998824,369.9667320998851,369.0648542998824,369.9667320998851,369.0648542998824,369.9667320998851,369.0648542998824,369.9667320998851,369.0648542998824,369.9667320998851,369.93281509983353,370.4339305998292,369.93281509983353,370.4339305998292,369.93281509983353,370.4339305998292,369.93281509983353,370.4339305998292,369.93281509983353,370.4339305998292,369.93281509983353,370.4339305998292,369.93281509983353,370.4339305998292,369.93281509983353,370.4339305998292,369.0648542998824,None,370.4339305998292,371.7201245999895,0.8900000000000006,371.7520420998335,None,372.503259500023,None,,,,,,,[1.28422222],2.9300000000000024,0.7777777777777778,11037,001,2024_Mar_11_1501,MFTM_A_new1021,2021.2.3,59.89250489460407,
,,,,,,,,stim/Instruction_adaptive.png,conditions/adaptive.xlsx,test,-0.6,-0.6,-0.6,0.6,0.6,left,L,,,,,0,1,1,1,0,45,45,53,,,,,,,,,,,,,,,,,,,,,,,,,,,,,,,,,,,,,,,,,,,,373.00455449987203,None,right,0,1.1257726000621915,373.5055984999053,374.8735549999401,373.5055984999053,374.373828999931,373.5055984999053,374.373828999931,373.5055984999053,374.373828999931,373.5055984999053,374.373828999931,373.5055984999053,374.373828999931,374.3562344999518,374.8574993999209,374.3562344999518,374.8574993999209,374.3562344999518,374.8574993999209,374.3562344999518,374.8574993999209,374.3562344999518,374.8574993999209,374.3562344999518,374.8574993999209,374.3562344999518,374.8574993999209,374.3562344999518,374.8574993999209,373.5055984999053,None,374.84151369985193,376.1428612000309,0.8600000000000005,376.15822089998983,None,376.9100333999377,None,,,,,,,[1.29195652],2.820000000000002,0.7608695652173914,11037,001,2024_Mar_11_1501,MFTM_A_new1021,2021.2.3,59.89250489460407,
,,,,,,,,stim/Instruction_adaptive.png,conditions/adaptive.xlsx,test,-0.6,-0.6,-0.6,0.6,0.6,left,L,,,,,0,1,1,1,0,46,46,39,,,,,,,,,,,,,,,,,,,,,,,,,,,,,,,,,,,,,,,,,,,,377.41145569994114,None,left,1,1.6556698000058532,377.9120326000266,379.34783719992265,377.9120326000266,378.84691770002246,377.9120326000266,378.84691770002246,377.9120326000266,378.84691770002246,377.9120326000266,378.84691770002246,377.9120326000266,378.84691770002246,378.82954990002327,379.33062110003084,378.82954990002327,379.33062110003084,378.82954990002327,379.33062110003084,378.82954990002327,379.33062110003084,378.82954990002327,379.33062110003084,378.82954990002327,379.33062110003084,378.82954990002327,379.33062110003084,378.82954990002327,379.33062110003084,377.9120326000266,None,379.33062110003084,380.6329818998929,0.9300000000000006,380.64878249983303,None,381.4006828998681,None,,,,,,,[1.29787234],2.860000000000002,0.7659574468085106,11037,001,2024_Mar_11_1501,MFTM_A_new1021,2021.2.3,59.89250489460407,
,,,,,,,,stim/Instruction_adaptive.png,conditions/adaptive.xlsx,test,0.6,0.6,0.6,-0.6,-0.6,right,R,,,,,0,1,1,1,0,47,47,20,,,,,,,,,,,,,,,,,,,,,,,,,,,,,,,,,,,,,,,,,,,,381.90134570002556,None,right,1,1.526376600144431,382.4016455998644,383.82086989982054,382.4016455998644,383.31974159996025,382.4016455998644,383.31974159996025,382.4016455998644,383.31974159996025,382.4016455998644,383.31974159996025,382.4016455998644,383.31974159996025,383.3028211998753,383.80366279999726,383.3028211998753,383.80366279999726,383.3028211998753,383.80366279999726,383.3028211998753,383.80366279999726,383.3028211998753,383.80366279999726,383.3028211998753,383.80366279999726,383.3028211998753,383.80366279999726,383.3028211998753,383.80366279999726,382.4016455998644,None,383.80366279999726,385.10688069998287,0.9100000000000006,385.1222920999862,None,385.87415589997545,None,,,,,,,[1.30395833],2.900000000000002,0.7708333333333334,11037,001,2024_Mar_11_1501,MFTM_A_new1021,2021.2.3,59.89250489460407,
,,,,,,,,stim/Instruction_adaptive.png,conditions/adaptive.xlsx,test,-0.6,-0.6,-0.6,0.6,0.6,left,L,,,,,0,1,1,1,0,48,48,17,,,,,,,,,,,,,,,,,,,,,,,,,,,,,,,,,,,,,,,,,,,,386.3744884999469,None,left,1,1.5650711001362652,386.8747531999834,388.2604936999269,386.8747531999834,387.7597085000016,386.8747531999834,387.7597085000016,386.8747531999834,387.7597085000016,386.8747531999834,387.7597085000016,386.8747531999834,387.7597085000016,387.74298290000297,388.24377639987506,387.74298290000297,388.24377639987506,387.74298290000297,388.24377639987506,387.74298290000297,388.24377639987506,387.74298290000297,388.24377639987506,387.74298290000297,388.24377639987506,387.74298290000297,388.24377639987506,387.74298290000297,388.24377639987506,386.8747531999834,None,388.24377639987506,389.56260019983165,0.8800000000000006,389.5791453998536,None,390.3303179999348,None,,,,,,,[1.31040816],2.9300000000000024,0.7755102040816326,11037,001,2024_Mar_11_1501,MFTM_A_new1021,2021.2.3,59.89250489460407,
,,,,,,,,stim/Instruction_adaptive.png,conditions/adaptive.xlsx,test,-0.6,-0.6,-0.6,0.6,0.6,left,L,,,,,0,1,1,1,0,49,49,33,,,,,,,,,,,,,,,,,,,,,,,,,,,,,,,,,,,,,,,,,,,,390.8317334000021,None,left,1,1.0687839998863637,391.3322584000416,392.7005022999365,391.3322584000416,392.20089069986716,391.3322584000416,392.20089069986716,391.3322584000416,392.20089069986716,391.3322584000416,392.20089069986716,391.3322584000416,392.20089069986716,392.1835664999671,392.68394439993426,392.1835664999671,392.68394439993426,392.1835664999671,392.68394439993426,392.1835664999671,392.68394439993426,392.1835664999671,392.68394439993426,392.1835664999671,392.68394439993426,392.1835664999671,392.68394439993426,392.1835664999671,392.68394439993426,391.3322584000416,None,392.6676020999439,393.9865448998753,0.8600000000000005,394.019044799963,None,394.7711222998332,None,,,,,,,[1.317],2.9700000000000024,0.78,11037,001,2024_Mar_11_1501,MFTM_A_new1021,2021.2.3,59.89250489460407,
,,,,,,,,stim/Instruction_adaptive.png,conditions/adaptive.xlsx,test,0.6,0.6,0.6,-0.6,-0.6,right,R,,,,,0,1,1,1,0,50,50,14,,,,,,,,,,,,,,,,,,,,,,,,,,,,,,,,,,,,,,,,,,,,395.27170199994,None,right,1,1.0527825998142362,395.7716975000221,397.1246120999567,395.7716975000221,396.6238467998337,395.7716975000221,396.6238467998337,395.7716975000221,396.6238467998337,395.7716975000221,396.6238467998337,395.7716975000221,396.6238467998337,396.5905603999272,397.0911397000309,396.5905603999272,397.0911397000309,396.5905603999272,397.0911397000309,396.5905603999272,397.0911397000309,396.5905603999272,397.0911397000309,396.5905603999272,397.0911397000309,396.5905603999272,397.0911397000309,396.5905603999272,397.0911397000309,395.7716975000221,None,397.0911397000309,398.4260376000311,0.8400000000000005,398.44241849984974,None,399.1936066998169,None,,,,,,,[1.32372549],3.000000000000002,0.7843137254901961,11037,001,2024_Mar_11_1501,MFTM_A_new1021,2021.2.3,59.89250489460407,
,,,,,,,,stim/Instruction_adaptive.png,conditions/adaptive.xlsx,test,0.6,0.6,0.6,-0.6,-0.6,right,R,,,,,0,1,1,1,0,51,51,4,,,,,,,,,,,,,,,,,,,,,,,,,,,,,,,,,,,,,,,,,,,,399.6949328999035,None,left,0,1.349531500134617,400.1955988998525,401.53116939985193,400.1955988998525,401.0305514000356,400.1955988998525,401.0305514000356,400.1955988998525,401.0305514000356,400.1955988998525,401.0305514000356,400.1955988998525,401.0305514000356,400.99759369995445,401.49782920000143,400.99759369995445,401.49782920000143,400.99759369995445,401.49782920000143,400.99759369995445,401.49782920000143,400.99759369995445,401.49782920000143,400.99759369995445,401.49782920000143,400.99759369995445,401.49782920000143,400.99759369995445,401.49782920000143,400.1955988998525,None,401.49782920000143,402.83369049988687,0.8200000000000005,402.8484314000234,None,403.60191420000046,None,,,,,,,[1.33057692],2.900000000000002,0.7692307692307693,11037,001,2024_Mar_11_1501,MFTM_A_new1021,2021.2.3,59.89250489460407,
,,,,,,,,stim/Instruction_adaptive.png,conditions/adaptive.xlsx,test,0.6,0.6,0.6,-0.6,-0.6,right,R,,,,,0,1,1,1,0,52,52,72,,,,,,,,,,,,,,,,,,,,,,,,,,,,,,,,,,,,,,,,,,,,404.1020157998428,None,None,0,0,404.603264400037,405.9877448999323,404.603264400037,405.48646929999813,404.603264400037,405.48646929999813,404.603264400037,405.48646929999813,404.603264400037,405.48646929999813,404.603264400037,405.48646929999813,405.4698677000124,405.97052049986087,405.4698677000124,405.97052049986087,405.4698677000124,405.97052049986087,405.4698677000124,405.97052049986087,405.4698677000124,405.97052049986087,405.4698677000124,405.97052049986087,405.4698677000124,405.97052049986087,405.4698677000124,405.97052049986087,404.603264400037,None,405.97052049986087,408.0921867999714,0.8800000000000006,408.1250082999468,None,408.8747673998587,None,,,,,,,[[2.12]],2.800000000000002,0.7547169811320755,11037,001,2024_Mar_11_1501,MFTM_A_new1021,2021.2.3,59.89250489460407,
,,,,,,,,stim/Instruction_adaptive.png,conditions/adaptive.xlsx,test,-0.6,-0.6,-0.6,0.6,0.6,left,L,,,,,0,1,1,1,0,53,53,63,,,,,,,,,,,,,,,,,,,,,,,,,,,,,,,,,,,,,,,,,,,,409.3763727999758,None,left,1,1.1071293000131845,409.87703790003434,411.3283808999695,409.87703790003434,410.82778509985656,409.87703790003434,410.82778509985656,409.87703790003434,410.82778509985656,409.87703790003434,410.82778509985656,409.87703790003434,410.82778509985656,410.794584200019,411.2950253998861,410.794584200019,411.2950253998861,410.794584200019,411.2950253998861,410.794584200019,411.2950253998861,410.794584200019,411.2950253998861,410.794584200019,411.2950253998861,410.794584200019,411.2950253998861,410.794584200019,411.2950253998861,409.87703790003434,None,411.2950253998861,412.64789739996195,0.9400000000000006,412.66379369981587,None,413.4154147999361,None,,,,,,,[1.34018519],2.840000000000002,0.7592592592592593,11037,001,2024_Mar_11_1501,MFTM_A_new1021,2021.2.3,59.89250489460407,
,,,,,,,,stim/Instruction_adaptive.png,conditions/adaptive.xlsx,test,0.6,0.6,0.6,-0.6,-0.6,right,R,,,,,0,1,1,1,0,54,54,40,,,,,,,,,,,,,,,,,,,,,,,,,,,,,,,,,,,,,,,,,,,,413.916440699948,None,right,1,1.6648187001701444,414.4163180999458,415.835408099927,414.4163180999458,415.35145600000396,414.4163180999458,415.35145600000396,414.4163180999458,415.35145600000396,414.4163180999458,415.35145600000396,414.4163180999458,415.35145600000396,415.31795459985733,415.8196091998834,415.31795459985733,415.8196091998834,415.31795459985733,415.8196091998834,415.31795459985733,415.8196091998834,415.31795459985733,415.8196091998834,415.31795459985733,415.8196091998834,415.31795459985733,415.8196091998834,415.31795459985733,415.8196091998834,414.4163180999458,None,415.8196091998834,417.17074129986577,0.9200000000000006,417.1873822999187,None,417.93860309990123,None,,,,,,,[1.34454545],2.870000000000002,0.7636363636363637,11037,001,2024_Mar_11_1501,MFTM_A_new1021,2021.2.3,59.89250489460407,
,,,,,,,,stim/Instruction_adaptive.png,conditions/adaptive.xlsx,test,0.6,0.6,0.6,-0.6,-0.6,right,R,,,,,0,1,1,1,0,55,55,28,,,,,,,,,,,,,,,,,,,,,,,,,,,,,,,,,,,,,,,,,,,,418.44048579991795,None,left,0,1.2118980998639017,418.9410377999302,420.3427649999503,418.9410377999302,419.8419496999122,418.9410377999302,419.8419496999122,418.9410377999302,419.8419496999122,418.9410377999302,419.8419496999122,418.9410377999302,419.8419496999122,419.82537669991143,420.3255690999795,419.82537669991143,420.3255690999795,419.82537669991143,420.3255690999795,419.82537669991143,420.3255690999795,419.82537669991143,420.3255690999795,419.82537669991143,420.3255690999795,419.82537669991143,420.3255690999795,419.82537669991143,420.3255690999795,418.9410377999302,None,420.3255690999795,421.6779816998169,0.9000000000000006,421.694137299899,None,422.4453235999681,None,,,,,,,[1.34910714],2.7700000000000022,0.75,11037,001,2024_Mar_11_1501,MFTM_A_new1021,2021.2.3,59.89250489460407,
,,,,,,,,stim/Instruction_adaptive.png,conditions/adaptive.xlsx,test,-0.6,-0.6,-0.6,0.6,0.6,left,L,,,,,0,1,1,1,0,56,56,73,,,,,,,,,,,,,,,,,,,,,,,,,,,,,,,,,,,,,,,,,,,,422.9460386999417,None,left,1,1.5214761001989245,423.446909399936,424.9163146999199,423.446909399936,424.41490209987387,423.446909399936,424.41490209987387,423.446909399936,424.41490209987387,423.446909399936,424.41490209987387,423.446909399936,424.41490209987387,424.3981651000213,424.8991352999583,424.3981651000213,424.8991352999583,424.3981651000213,424.8991352999583,424.3981651000213,424.8991352999583,424.3981651000213,424.8991352999583,424.3981651000213,424.8991352999583,424.3981651000213,424.8991352999583,424.3981651000213,424.8991352999583,423.446909399936,None,424.8823637999594,426.23505249992013,0.9600000000000006,426.2676059999503,None,427.0203247999307,None,,,,,,,[1.35245614],2.8100000000000023,0.7543859649122807,11037,001,2024_Mar_11_1501,MFTM_A_new1021,2021.2.3,59.89250489460407,
,,,,,,,,stim/Instruction_adaptive.png,conditions/adaptive.xlsx,test,0.6,0.6,0.6,-0.6,-0.6,right,R,,,,,0,1,1,1,0,57,57,66,,,,,,,,,,,,,,,,,,,,,,,,,,,,,,,,,,,,,,,,,,,,427.5197368999943,None,right,1,1.500603700056672,428.0204944999423,429.4730308998842,428.0204944999423,428.9725016998127,428.0204944999423,428.9725016998127,428.0204944999423,428.9725016998127,428.0204944999423,428.9725016998127,428.0204944999423,428.9725016998127,428.938620199915,429.4400881999172,428.938620199915,429.4400881999172,428.938620199915,429.4400881999172,428.938620199915,429.4400881999172,428.938620199915,429.4400881999172,428.938620199915,429.4400881999172,428.938620199915,429.4400881999172,428.938620199915,429.4400881999172,428.0204944999423,None,429.4400881999172,430.80868569994345,0.9400000000000006,430.8245186000131,None,431.5758432999719,None,,,,,,,[1.35603448],2.840000000000002,0.7586206896551724,11037,001,2024_Mar_11_1501,MFTM_A_new1021,2021.2.3,59.89250489460407,
,,,,,,,,stim/Instruction_adaptive.png,conditions/adaptive.xlsx,test,-0.6,-0.6,-0.6,0.6,0.6,left,L,,,,,0,1,1,1,0,58,58,89,,,,,,,,,,,,,,,,,,,,,,,,,,,,,,,,,,,,,,,,,,,,432.0769751998596,None,left,1,1.0317476999480277,432.5773076999467,434.0126880998723,432.5773076999467,433.495356899919,432.5773076999467,433.495356899919,432.5773076999467,433.495356899919,432.5773076999467,433.495356899919,432.5773076999467,433.495356899919,433.48002150002867,433.97920579998754,433.48002150002867,433.97920579998754,433.48002150002867,433.97920579998754,433.48002150002867,433.97920579998754,433.48002150002867,433.97920579998754,433.48002150002867,433.97920579998754,433.48002150002867,433.97920579998754,433.48002150002867,433.97920579998754,432.5773076999467,None,433.97920579998754,435.3488959998358,0.9200000000000006,435.36516389995813,None,436.1158065998461,None,,,,,,,[1.35983051],2.870000000000002,0.7627118644067796,11037,001,2024_Mar_11_1501,MFTM_A_new1021,2021.2.3,59.89250489460407,
,,,,,,,,stim/Instruction_adaptive.png,conditions/adaptive.xlsx,test,-0.6,-0.6,-0.6,0.6,0.6,left,L,,,,,0,1,1,1,0,59,59,45,,,,,,,,,,,,,,,,,,,,,,,,,,,,,,,,,,,,,,,,,,,,436.6172593999654,None,right,0,1.0839768000878394,437.1173588000238,438.52039419999346,437.1173588000238,438.0193973998539,437.1173588000238,438.0193973998539,437.1173588000238,438.0193973998539,437.1173588000238,438.0193973998539,437.1173588000238,438.0193973998539,438.00290249986574,438.5028027999215,438.00290249986574,438.5028027999215,438.00290249986574,438.5028027999215,438.00290249986574,438.5028027999215,438.00290249986574,438.5028027999215,438.00290249986574,438.5028027999215,438.00290249986574,438.5028027999215,438.00290249986574,438.5028027999215,437.1173588000238,None,438.5028027999215,439.87196909985505,0.9000000000000006,439.8882361999713,None,440.64109879988246,None,,,,,,,[1.36383333],2.780000000000002,0.75,11037,001,2024_Mar_11_1501,MFTM_A_new1021,2021.2.3,59.89250489460407,
,,,,,,,,stim/Instruction_adaptive.png,conditions/adaptive.xlsx,test,0.6,0.6,0.6,-0.6,-0.6,right,R,,,,,0,1,1,1,0,60,60,52,,,,,,,,,,,,,,,,,,,,,,,,,,,,,,,,,,,,,,,,,,,,441.15745699987747,None,right,1,1.5754739998374134,441.65768940001726,443.12696639983915,441.65768940001726,442.62554889987223,441.65768940001726,442.62554889987223,441.65768940001726,442.62554889987223,441.65768940001726,442.62554889987223,441.65768940001726,442.62554889987223,442.59240989992395,443.0931136000436,442.59240989992395,443.0931136000436,442.59240989992395,443.0931136000436,442.59240989992395,443.0931136000436,442.59240989992395,443.0931136000436,442.59240989992395,443.0931136000436,442.59240989992395,443.0931136000436,442.59240989992395,443.0931136000436,441.65768940001726,None,443.0931136000436,444.4618211998604,0.9600000000000006,444.4951555998996,None,445.24682500003837,None,,,,,,,[1.36672131],2.8100000000000023,0.7540983606557377,11037,001,2024_Mar_11_1501,MFTM_A_new1021,2021.2.3,59.89250489460407,
,,,,,,,,stim/Instruction_adaptive.png,conditions/adaptive.xlsx,test,0.6,0.6,0.6,-0.6,-0.6,right,R,,,,,0,1,1,1,0,61,61,44,,,,,,,,,,,,,,,,,,,,,,,,,,,,,,,,,,,,,,,,,,,,445.7470476999879,None,left,0,1.5926377000287175,446.24845369998366,447.7001741998829,446.24845369998366,447.19995099981315,446.24845369998366,447.19995099981315,446.24845369998366,447.19995099981315,446.24845369998366,447.19995099981315,446.24845369998366,447.19995099981315,447.16674069990404,447.66719239996746,447.16674069990404,447.66719239996746,447.16674069990404,447.66719239996746,447.16674069990404,447.66719239996746,447.16674069990404,447.66719239996746,447.16674069990404,447.66719239996746,447.16674069990404,447.66719239996746,447.16674069990404,447.66719239996746,446.24845369998366,None,447.66719239996746,449.03530559991486,0.9400000000000006,449.0684070000425,None,449.82007999997586,None,,,,,,,[1.36983871],2.720000000000002,0.7419354838709677,11037,001,2024_Mar_11_1501,MFTM_A_new1021,2021.2.3,59.89250489460407,
,,,,,,,,stim/Instruction_adaptive.png,conditions/adaptive.xlsx,test,-0.6,-0.6,-0.6,0.6,0.6,left,L,,,,,0,1,1,1,0,62,62,77,,,,,,,,,,,,,,,,,,,,,,,,,,,,,,,,,,,,,,,,,,,,450.3204756998457,None,left,1,1.1718618997838348,450.8217668000143,452.3246559998952,450.8217668000143,451.8237521999981,450.8217668000143,451.8237521999981,450.8217668000143,451.8237521999981,450.8217668000143,451.8237521999981,450.8217668000143,451.8237521999981,451.8060943998862,452.30796539993025,451.8060943998862,452.30796539993025,451.8060943998862,452.30796539993025,451.8060943998862,452.30796539993025,451.8060943998862,452.30796539993025,451.8060943998862,452.30796539993025,451.8060943998862,452.30796539993025,451.8060943998862,452.30796539993025,450.8217668000143,None,452.30796539993025,453.6935654999688,1.0000000000000007,453.70846650004387,None,454.4595297998749,None,,,,,,,[1.37190476],2.7500000000000018,0.746031746031746,11037,001,2024_Mar_11_1501,MFTM_A_new1021,2021.2.3,59.89250489460407,
,,,,,,,,stim/Instruction_adaptive.png,conditions/adaptive.xlsx,test,0.6,0.6,0.6,-0.6,-0.6,right,R,,,,,0,1,1,1,0,63,63,84,,,,,,,,,,,,,,,,,,,,,,,,,,,,,,,,,,,,,,,,,,,,454.96088819997385,None,right,1,1.0268953000195324,455.462728299899,456.9481538999826,455.462728299899,456.4477255998645,455.462728299899,456.4477255998645,455.462728299899,456.4477255998645,455.462728299899,456.4477255998645,455.462728299899,456.4477255998645,456.43144149985164,456.9305296000093,456.43144149985164,456.9305296000093,456.43144149985164,456.9305296000093,456.43144149985164,456.9305296000093,456.43144149985164,456.9305296000093,456.43144149985164,456.9305296000093,456.43144149985164,456.9305296000093,456.43144149985164,456.9305296000093,455.462728299899,None,456.9305296000093,None,0.9800000000000006,458.3167415999342,None,459.0672384998761,None,,,,,,,[1.37421875],2.780000000000002,0.75,11037,001,2024_Mar_11_1501,MFTM_A_new1021,2021.2.3,59.89250489460407,
,,,,,,,,stim/Instruction_adaptive.png,conditions/adaptive.xlsx,test,-0.6,-0.6,-0.6,0.6,0.6,left,L,,,,,0,1,1,1,0,64,64,31,,,,,,,,,,,,,,,,,,,,,,,,,,,,,,,,,,,,,,,,,,,,459.56788879982196,None,right,0,1.2602140998933464,460.0695851999335,461.5384880998172,460.0695851999335,461.0374435998965,460.0695851999335,461.0374435998965,460.0695851999335,461.0374435998965,460.0695851999335,461.0374435998965,460.0695851999335,461.0374435998965,461.00347639992833,461.50418739998713,461.00347639992833,461.50418739998713,461.00347639992833,461.50418739998713,461.00347639992833,461.50418739998713,461.00347639992833,461.50418739998713,461.00347639992833,461.50418739998713,461.00347639992833,461.50418739998713,461.00347639992833,461.50418739998713,460.0695851999335,None,461.50418739998713,462.88995480001904,0.9600000000000006,462.90632739989087,None,463.65748659987,None,,,,,,,[1.37676923],2.690000000000002,0.7384615384615385,11037,001,2024_Mar_11_1501,MFTM_A_new1021,2021.2.3,59.89250489460407,
,,,,,,,,stim/Instruction_adaptive.png,conditions/adaptive.xlsx,test,-0.6,-0.6,-0.6,0.6,0.6,left,L,,,,,0,1,1,1,0,65,65,1,,,,,,,,,,,,,,,,,,,,,,,,,,,,,,,,,,,,,,,,,,,,464.158149600029,None,left,1,0.9673400998581201,464.6589197998401,466.17864469997585,464.6589197998401,465.69384279986843,464.6589197998401,465.69384279986843,464.6589197998401,465.69384279986843,464.6589197998401,465.69384279986843,464.6589197998401,465.69384279986843,465.66114309988916,466.16131799994037,465.66114309988916,466.16131799994037,465.66114309988916,466.16131799994037,465.66114309988916,466.16131799994037,465.66114309988916,466.16131799994037,465.66114309988916,466.16131799994037,465.66114309988916,466.16131799994037,465.66114309988916,466.16131799994037,464.6589197998401,None,466.16131799994037,467.5472088998649,1.0200000000000007,467.5633107998874,None,468.3153313000221,None,,,,,,,[1.37833333],2.720000000000002,0.7424242424242424,11037,001,2024_Mar_11_1501,MFTM_A_new1021,2021.2.3,59.89250489460407,
,,,,,,,,stim/Instruction_adaptive.png,conditions/adaptive.xlsx,test,-0.6,-0.6,-0.6,0.6,0.6,left,L,,,,,0,1,1,1,0,66,66,35,,,,,,,,,,,,,,,,,,,,,,,,,,,,,,,,,,,,,,,,,,,,468.81587179983035,None,left,1,1.32590420008637,469.3166278998833,470.81819539982826,469.3166278998833,470.31764509994537,469.3166278998833,470.31764509994537,469.3166278998833,470.31764509994537,469.3166278998833,470.31764509994537,469.3166278998833,470.31764509994537,470.30076200002804,470.8020164000336,470.30076200002804,470.8020164000336,470.30076200002804,470.8020164000336,470.30076200002804,470.8020164000336,470.30076200002804,470.8020164000336,470.30076200002804,470.8020164000336,470.30076200002804,470.8020164000336,470.30076200002804,470.8020164000336,469.3166278998833,None,470.8020164000336,472.1893335999921,1.0000000000000007,472.20363410003483,None,472.9547580999788,None,,,,,,,[1.38014925],2.7500000000000018,0.746268656716418,11037,001,2024_Mar_11_1501,MFTM_A_new1021,2021.2.3,59.89250489460407,
,,,,,,,,stim/Instruction_adaptive.png,conditions/adaptive.xlsx,test,0.6,0.6,0.6,-0.6,-0.6,right,R,,,,,0,1,1,1,0,67,67,62,,,,,,,,,,,,,,,,,,,,,,,,,,,,,,,,,,,,,,,,,,,,473.4563585999422,None,right,1,1.5665215000044554,473.9560431998689,475.4418967999518,473.9560431998689,474.9411453998182,473.9560431998689,474.9411453998182,473.9560431998689,474.9411453998182,473.9560431998689,474.9411453998182,473.9560431998689,474.9411453998182,474.9252455998212,475.42556579993106,474.9252455998212,475.42556579993106,474.9252455998212,475.42556579993106,474.9252455998212,475.42556579993106,474.9252455998212,475.42556579993106,474.9252455998212,475.42556579993106,474.9252455998212,475.42556579993106,474.9252455998212,475.42556579993106,473.9560431998689,None,475.42556579993106,476.810758800013,0.9800000000000006,476.8273570998572,None,477.5791076000314,None,,,,,,,[1.38220588],2.780000000000002,0.75,11037,001,2024_Mar_11_1501,MFTM_A_new1021,2021.2.3,59.89250489460407,
,,,,,,,,stim/Instruction_adaptive.png,conditions/adaptive.xlsx,test,-0.6,-0.6,-0.6,0.6,0.6,left,L,,,,,0,1,1,1,0,68,68,29,,,,,,,,,,,,,,,,,,,,,,,,,,,,,,,,,,,,,,,,,,,,478.08024849998765,None,left,1,0.8461927999742329,478.57991810003296,480.0485980999656,478.57991810003296,479.54881919990294,478.57991810003296,479.54881919990294,478.57991810003296,479.54881919990294,478.57991810003296,479.54881919990294,478.57991810003296,479.54881919990294,479.5149679998867,480.0154347999487,479.5149679998867,480.0154347999487,479.5149679998867,480.0154347999487,479.5149679998867,480.0154347999487,479.5149679998867,480.0154347999487,479.5149679998867,480.0154347999487,479.5149679998867,480.0154347999487,479.5149679998867,480.0154347999487,478.57991810003296,None,480.0154347999487,481.40208279993385,0.9600000000000006,481.4342487999238,None,482.1865403999109,None,,,,,,,[1.38449275],2.8100000000000023,0.7536231884057971,11037,001,2024_Mar_11_1501,MFTM_A_new1021,2021.2.3,59.89250489460407,
,,,,,,,,stim/Instruction_adaptive.png,conditions/adaptive.xlsx,test,0.6,0.6,0.6,-0.6,-0.6,right,R,,,,,0,1,1,1,0,69,69,30,,,,,,,,,,,,,,,,,,,,,,,,,,,,,,,,,,,,,,,,,,,,482.68707380001433,None,right,1,1.0944980999920517,483.18759280000813,484.638981499942,483.18759280000813,484.13932349998504,483.18759280000813,484.13932349998504,483.18759280000813,484.13932349998504,483.18759280000813,484.13932349998504,483.18759280000813,484.13932349998504,484.1057302998379,484.6063228000421,484.1057302998379,484.6063228000421,484.1057302998379,484.6063228000421,484.1057302998379,484.6063228000421,484.1057302998379,484.6063228000421,484.1057302998379,484.6063228000421,484.1057302998379,484.6063228000421,484.1057302998379,484.6063228000421,483.18759280000813,None,484.6063228000421,486.0077275999356,0.9400000000000006,486.02447449998,None,486.77573899994604,None,,,,,,,[1.387],2.840000000000002,0.7571428571428571,11037,001,2024_Mar_11_1501,MFTM_A_new1021,2021.2.3,59.89250489460407,
,,,,,,,,stim/Instruction_adaptive.png,conditions/adaptive.xlsx,test,0.6,0.6,0.6,-0.6,-0.6,right,R,,,,,0,1,1,1,0,70,70,0,,,,,,,,,,,,,,,,,,,,,,,,,,,,,,,,,,,,,,,,,,,,487.27648360002786,None,right,1,1.5619741999544203,487.77714110002853,489.1960288998671,487.77714110002853,488.7135127999354,487.77714110002853,488.7135127999354,487.77714110002853,488.7135127999354,487.77714110002853,488.7135127999354,487.77714110002853,488.7135127999354,488.6784621998668,489.1800695999991,488.6784621998668,489.1800695999991,488.6784621998668,489.1800695999991,488.6784621998668,489.1800695999991,488.6784621998668,489.1800695999991,488.6784621998668,489.1800695999991,488.6784621998668,489.1800695999991,488.6784621998668,489.1800695999991,487.77714110002853,None,489.1800695999991,490.5820024998393,0.9200000000000006,490.59797609993257,None,491.34979139990173,None,,,,,,,[1.38971831],2.860000000000002,0.7605633802816901,11037,001,2024_Mar_11_1501,MFTM_A_new1021,2021.2.3,59.89250489460407,
,,,,,,,,stim/Instruction_adaptive.png,conditions/adaptive.xlsx,test,0.6,0.6,0.6,-0.6,-0.6,right,R,,,,,0,1,1,1,0,71,71,78,,,,,,,,,,,,,,,,,,,,,,,,,,,,,,,,,,,,,,,,,,,,491.8501676998567,None,left,0,1.0695314998738468,492.3505706000142,493.76957089989446,492.3505706000142,493.268689799821,492.3505706000142,493.268689799821,492.3505706000142,493.268689799821,492.3505706000142,493.268689799821,492.3505706000142,493.268689799821,493.25312189990655,493.7534549999982,493.25312189990655,493.7534549999982,493.25312189990655,493.7534549999982,493.25312189990655,493.7534549999982,493.25312189990655,493.7534549999982,493.25312189990655,493.7534549999982,493.25312189990655,493.7534549999982,493.25312189990655,493.7534549999982,492.3505706000142,None,493.73619109997526,495.1388824998867,0.9100000000000006,495.1544329000171,None,495.90593779995106,None,,,,,,,[1.3925],2.790000000000002,0.75,11037,001,2024_Mar_11_1501,MFTM_A_new1021,2021.2.3,59.89250489460407,
,,,,,,,,stim/Instruction_adaptive.png,conditions/adaptive.xlsx,test,-0.6,-0.6,-0.6,0.6,0.6,left,L,,,,,0,1,1,1,0,72,72,7,,,,,,,,,,,,,,,,,,,,,,,,,,,,,,,,,,,,,,,,,,,,496.40754609997384,None,left,1,1.0071478998288512,496.9075780999847,498.36043119989336,496.9075780999847,497.85919889993966,496.9075780999847,497.85919889993966,496.9075780999847,497.85919889993966,496.9075780999847,497.85919889993966,496.9075780999847,497.85919889993966,497.84218269982375,498.344107999932,497.84218269982375,498.344107999932,497.84218269982375,498.344107999932,497.84218269982375,498.344107999932,497.84218269982375,498.344107999932,497.84218269982375,498.344107999932,497.84218269982375,498.344107999932,497.84218269982375,498.344107999932,496.9075780999847,None,498.344107999932,499.74546619993635,0.9500000000000006,499.76185079989955,None,500.5134785999544,None,,,,,,,[1.39465753],2.8100000000000023,0.7534246575342466,11037,001,2024_Mar_11_1501,MFTM_A_new1021,2021.2.3,59.89250489460407,
,,,,,,,,stim/Instruction_adaptive.png,conditions/adaptive.xlsx,test,0.6,0.6,0.6,-0.6,-0.6,right,R,,,,,0,1,1,1,0,73,73,56,,,,,,,,,,,,,,,,,,,,,,,,,,,,,,,,,,,,,,,,,,,,501.0146206000354,None,right,1,1.8803622999694198,501.5144744999707,502.966627900023,501.5144744999707,502.4668627998326,501.5144744999707,502.4668627998326,501.5144744999707,502.4668627998326,501.5144744999707,502.4668627998326,501.5144744999707,502.4668627998326,502.43356049992144,502.93340189987794,502.43356049992144,502.93340189987794,502.43356049992144,502.93340189987794,502.43356049992144,502.93340189987794,502.43356049992144,502.93340189987794,502.43356049992144,502.93340189987794,502.43356049992144,502.93340189987794,502.43356049992144,502.93340189987794,501.5144744999707,None,502.93340189987794,504.3353283999022,0.9400000000000006,504.35206319997087,None,505.10325929988176,None,,,,,,,[1.39689189],2.840000000000002,0.7567567567567568,11037,001,2024_Mar_11_1501,MFTM_A_new1021,2021.2.3,59.89250489460407,
,,,,,,,,stim/Instruction_adaptive.png,conditions/adaptive.xlsx,test,-0.6,-0.6,-0.6,0.6,0.6,left,L,,,,,0,1,1,1,0,74,74,41,,,,,,,,,,,,,,,,,,,,,,,,,,,,,,,,,,,,,,,,,,,,505.6041410998441,None,left,1,1.1065466001164168,506.10470089991577,507.52411259990185,506.10470089991577,507.0407826998271,506.10470089991577,507.0407826998271,506.10470089991577,507.0407826998271,506.10470089991577,507.0407826998271,506.10470089991577,507.0407826998271,507.00614439998753,507.5077374998946,507.00614439998753,507.5077374998946,507.00614439998753,507.5077374998946,507.00614439998753,507.5077374998946,507.00614439998753,507.5077374998946,507.00614439998753,507.5077374998946,507.00614439998753,507.5077374998946,507.00614439998753,507.5077374998946,506.10470089991577,None,507.5077374998946,508.91076899995096,0.9200000000000006,508.9260709998198,None,509.676798600005,None,,,,,,,[1.39933333],2.860000000000002,0.76,11037,001,2024_Mar_11_1501,MFTM_A_new1021,2021.2.3,59.89250489460407,
,,,,,,,,stim/Instruction_adaptive.png,conditions/adaptive.xlsx,test,-0.6,-0.6,-0.6,0.6,0.6,left,L,,,,,0,1,1,1,0,75,75,81,,,,,,,,,,,,,,,,,,,,,,,,,,,,,,,,,,,,,,,,,,,,510.17762119998224,None,left,1,0.6450381998438388,510.6783404999878,512.0971788999159,510.6783404999878,511.59621419990435,510.6783404999878,511.59621419990435,510.6783404999878,511.59621419990435,510.6783404999878,511.59621419990435,510.6783404999878,511.59621419990435,511.57977760001086,512.0804385000374,511.57977760001086,512.0804385000374,511.57977760001086,512.0804385000374,511.57977760001086,512.0804385000374,511.57977760001086,512.0804385000374,511.57977760001086,512.0804385000374,511.57977760001086,512.0804385000374,511.57977760001086,512.0804385000374,510.6783404999878,None,512.0804385000374,513.4825998998713,0.9100000000000006,513.500488899881,None,514.2511563999578,None,,,,,,,[1.40184211],2.8900000000000023,0.7631578947368421,11037,001,2024_Mar_11_1501,MFTM_A_new1021,2021.2.3,59.89250489460407,
,,,,,,,,stim/Instruction_adaptive.png,conditions/adaptive.xlsx,test,0.6,0.6,0.6,-0.6,-0.6,right,R,,,,,0,1,1,1,0,76,76,22,,,,,,,,,,,,,,,,,,,,,,,,,,,,,,,,,,,,,,,,,,,,514.7521507998463,None,right,1,1.0314025001134723,515.2518398000393,516.6545277000405,515.2518398000393,516.1533908999991,515.2518398000393,516.1533908999991,515.2518398000393,516.1533908999991,515.2518398000393,516.1533908999991,515.2518398000393,516.1533908999991,516.1199644999579,516.6215158998966,516.1199644999579,516.6215158998966,516.1199644999579,516.6215158998966,516.1199644999579,516.6215158998966,516.1199644999579,516.6215158998966,516.1199644999579,516.6215158998966,516.1199644999579,516.6215158998966,516.1199644999579,516.6215158998966,515.2518398000393,None,516.6215158998966,518.0399117998313,0.8900000000000006,518.0563560000155,None,518.8081054999493,None,,,,,,,[1.40454545],2.910000000000002,0.7662337662337663,11037,001,2024_Mar_11_1501,MFTM_A_new1021,2021.2.3,59.89250489460407,
,,,,,,,,stim/Instruction_adaptive.png,conditions/adaptive.xlsx,test,-0.6,-0.6,-0.6,0.6,0.6,left,L,,,,,0,1,1,1,0,77,77,95,,,,,,,,,,,,,,,,,,,,,,,,,,,,,,,,,,,,,,,,,,,,519.3089038999751,None,left,1,1.0664627000223845,519.809390499955,521.1949763000011,519.809390499955,520.6942637998145,519.809390499955,520.6942637998145,519.809390499955,520.6942637998145,519.809390499955,520.6942637998145,519.809390499955,520.6942637998145,520.6774579999037,521.1784891998395,520.6774579999037,521.1784891998395,520.6774579999037,521.1784891998395,520.6774579999037,521.1784891998395,520.6774579999037,521.1784891998395,520.6774579999037,521.1784891998395,520.6774579999037,521.1784891998395,520.6774579999037,521.1784891998395,519.809390499955,None,521.1784891998395,None,0.8800000000000006,522.5962906000204,None,523.3474085000344,None,,,,,,,[1.40730769],2.9300000000000024,0.7692307692307693,11037,001,2024_Mar_11_1501,MFTM_A_new1021,2021.2.3,59.89250489460407,
,,,,,,,,stim/Instruction_adaptive.png,conditions/adaptive.xlsx,test,0.6,0.6,0.6,-0.6,-0.6,right,R,,,,,0,1,1,1,0,78,78,74,,,,,,,,,,,,,,,,,,,,,,,,,,,,,,,,,,,,,,,,,,,,523.8482621000148,None,right,1,0.8144747000187635,524.3488687998615,525.718614500016,524.3488687998615,525.2184492000379,524.3488687998615,525.2184492000379,524.3488687998615,525.2184492000379,524.3488687998615,525.2184492000379,524.3488687998615,525.2184492000379,525.2001189000439,525.7018051999621,525.2001189000439,525.7018051999621,525.2001189000439,525.7018051999621,525.2001189000439,525.7018051999621,525.2001189000439,525.7018051999621,525.2001189000439,525.7018051999621,525.2001189000439,525.7018051999621,525.2001189000439,525.7018051999621,524.3488687998615,None,525.685139699839,527.1036629998125,0.8600000000000005,527.1205982998945,None,527.8712458999362,None,,,,,,,[1.41025316],2.960000000000002,0.7721518987341772,11037,001,2024_Mar_11_1501,MFTM_A_new1021,2021.2.3,59.89250489460407,
,,,,,,,,stim/Instruction_adaptive.png,conditions/adaptive.xlsx,test,-0.6,-0.6,-0.6,0.6,0.6,left,L,,,,,0,1,1,1,0,79,79,13,,,,,,,,,,,,,,,,,,,,,,,,,,,,,,,,,,,,,,,,,,,,528.3727356998716,None,right,0,0.9462649000342935,528.8734505998436,530.224991899915,528.8734505998436,529.7245661998168,528.8734505998436,529.7245661998168,528.8734505998436,529.7245661998168,528.8734505998436,529.7245661998168,528.8734505998436,529.7245661998168,529.707171899965,530.2086385998409,529.707171899965,530.2086385998409,529.707171899965,530.2086385998409,529.707171899965,530.2086385998409,529.707171899965,530.2086385998409,529.707171899965,530.2086385998409,529.707171899965,530.2086385998409,529.707171899965,530.2086385998409,528.8734505998436,None,530.2086385998409,531.6275390998926,0.8500000000000005,531.6425005998462,None,532.3945171998348,None,,,,,,,[1.41325],2.8900000000000023,0.7625,11037,001,2024_Mar_11_1501,MFTM_A_new1021,2021.2.3,59.89250489460407,
,,,,,,,,stim/Instruction_adaptive.png,conditions/adaptive.xlsx,test,-0.6,-0.6,-0.6,0.6,0.6,left,L,,,,,0,1,1,1,0,80,80,87,,,,,,,,,,,,,,,,,,,,,,,,,,,,,,,,,,,,,,,,,,,,532.8951461999677,None,left,1,1.1514844000339508,533.3967553998809,534.7987418000121,533.3967553998809,534.2971800998785,533.3967553998809,534.2971800998785,533.3967553998809,534.2971800998785,533.3967553998809,534.2971800998785,533.3967553998809,534.2971800998785,534.26396199991,534.7646246999502,534.26396199991,534.7646246999502,534.26396199991,534.7646246999502,534.26396199991,534.7646246999502,534.26396199991,534.7646246999502,534.26396199991,534.7646246999502,534.26396199991,534.7646246999502,534.26396199991,534.7646246999502,533.3967553998809,None,534.7646246999502,536.1833386998624,0.8900000000000006,536.2166559998877,None,536.9690882000141,None,,,,,,,[1.41567901],2.910000000000002,0.7654320987654321,11037,001,2024_Mar_11_1501,MFTM_A_new1021,2021.2.3,59.89250489460407,
,,,,,,,,stim/Instruction_adaptive.png,conditions/adaptive.xlsx,test,-0.6,-0.6,-0.6,0.6,0.6,left,L,,,,,0,1,1,1,0,81,81,57,,,,,,,,,,,,,,,,,,,,,,,,,,,,,,,,,,,,,,,,,,,,537.4696480999701,None,right,0,1.1939804998692125,537.9700223000254,539.3561433998402,537.9700223000254,538.8542047999799,537.9700223000254,538.8542047999799,537.9700223000254,538.8542047999799,537.9700223000254,538.8542047999799,537.9700223000254,538.8542047999799,538.837452699896,539.3381959998515,538.837452699896,539.3381959998515,538.837452699896,539.3381959998515,538.837452699896,539.3381959998515,538.837452699896,539.3381959998515,538.837452699896,539.3381959998515,538.837452699896,539.3381959998515,538.837452699896,539.3381959998515,537.9700223000254,None,539.3381959998515,540.757828099886,0.8800000000000006,540.7737701998558,None,541.5261963999365,None,,,,,,,[1.41817073],2.8500000000000023,0.7560975609756098,11037,001,2024_Mar_11_1501,MFTM_A_new1021,2021.2.3,59.89250489460407,
,,,,,,,,stim/Instruction_adaptive.png,conditions/adaptive.xlsx,test,0.6,0.6,0.6,-0.6,-0.6,right,R,,,,,0,1,1,1,0,82,82,12,,,,,,,,,,,,,,,,,,,,,,,,,,,,,,,,,,,,,,,,,,,,542.0256519999821,None,left,0,0.8935959001537412,542.526890899986,543.9463543000165,542.526890899986,543.4445201000199,542.526890899986,543.4445201000199,542.526890899986,543.4445201000199,542.526890899986,543.4445201000199,542.526890899986,543.4445201000199,543.4111883000005,543.9127547999378,543.4111883000005,543.9127547999378,543.4111883000005,543.9127547999378,543.4111883000005,543.9127547999378,543.4111883000005,543.9127547999378,543.4111883000005,543.9127547999378,543.4111883000005,543.9127547999378,543.4111883000005,543.9127547999378,542.526890899986,None,543.9127547999378,545.3482023000252,0.9100000000000006,545.3639150999952,None,546.1149965999648,None,,,,,,,[1.42024096],2.780000000000002,0.7469879518072289,11037,001,2024_Mar_11_1501,MFTM_A_new1021,2021.2.3,59.89250489460407,
,,,,,,,,stim/Instruction_adaptive.png,conditions/adaptive.xlsx,test,0.6,0.6,0.6,-0.6,-0.6,right,R,,,,,0,1,1,1,0,83,83,24,,,,,,,,,,,,,,,,,,,,,,,,,,,,,,,,,,,,,,,,,,,,546.6156746000051,None,right,1,1.7272161000873893,547.116659599822,548.5861911999527,547.116659599822,548.0848862000275,547.116659599822,548.0848862000275,547.116659599822,548.0848862000275,547.116659599822,548.0848862000275,547.116659599822,548.0848862000275,548.068190400023,548.5694505998399,548.068190400023,548.5694505998399,548.068190400023,548.5694505998399,548.068190400023,548.5694505998399,548.068190400023,548.5694505998399,548.068190400023,548.5694505998399,548.068190400023,548.5694505998399,548.068190400023,548.5694505998399,547.116659599822,None,548.5694505998399,None,0.9600000000000006,550.0043758999091,None,550.7562501998618,None,,,,,,,[1.42166667],2.800000000000002,0.75,11037,001,2024_Mar_11_1501,MFTM_A_new1021,2021.2.3,59.89250489460407,
,,,,,,,,stim/Instruction_adaptive.png,conditions/adaptive.xlsx,test,0.6,0.6,0.6,-0.6,-0.6,right,R,,,,,0,1,1,1,0,84,84,98,,,,,,,,,,,,,,,,,,,,,,,,,,,,,,,,,,,,,,,,,,,,551.2572957999073,None,right,1,1.5029209000058472,551.7578712999821,553.2093594998587,551.7578712999821,552.7094762998167,551.7578712999821,552.7094762998167,551.7578712999821,552.7094762998167,551.7578712999821,552.7094762998167,551.7578712999821,552.7094762998167,552.6757864998654,553.1765225999989,552.6757864998654,553.1765225999989,552.6757864998654,553.1765225999989,552.6757864998654,553.1765225999989,552.6757864998654,553.1765225999989,552.6757864998654,553.1765225999989,552.6757864998654,553.1765225999989,552.6757864998654,553.1765225999989,551.7578712999821,None,553.1765225999989,554.6119799998123,0.9400000000000006,554.6282803998329,None,555.3800709999632,None,,,,,,,[1.42329412],2.820000000000002,0.7529411764705882,11037,001,2024_Mar_11_1501,MFTM_A_new1021,2021.2.3,59.89250489460407,
,,,,,,,,stim/Instruction_adaptive.png,conditions/adaptive.xlsx,test,0.6,0.6,0.6,-0.6,-0.6,right,R,,,,,0,1,1,1,0,85,85,46,,,,,,,,,,,,,,,,,,,,,,,,,,,,,,,,,,,,,,,,,,,,555.8800117999781,None,right,1,1.6715136000420898,556.38077779999,557.8161942998413,556.38077779999,557.3155330000445,556.38077779999,557.3155330000445,556.38077779999,557.3155330000445,556.38077779999,557.3155330000445,556.38077779999,557.3155330000445,557.2988328998908,557.8000983998645,557.2988328998908,557.8000983998645,557.2988328998908,557.8000983998645,557.2988328998908,557.8000983998645,557.2988328998908,557.8000983998645,557.2988328998908,557.8000983998645,557.2988328998908,557.8000983998645,557.2988328998908,557.8000983998645,556.38077779999,None,557.8000983998645,None,0.9300000000000006,559.2356455000117,None,559.9861547998153,None,,,,,,,[1.425],2.8500000000000023,0.7558139534883721,11037,001,2024_Mar_11_1501,MFTM_A_new1021,2021.2.3,59.89250489460407,
,,,,,,,,stim/Instruction_adaptive.png,conditions/adaptive.xlsx,test,0.6,0.6,0.6,-0.6,-0.6,right,R,,,,,0,1,1,1,0,86,86,76,,,,,,,,,,,,,,,,,,,,,,,,,,,,,,,,,,,,,,,,,,,,560.4868182998616,None,left,0,1.304846900049597,560.9873334998265,562.4063990998548,560.9873334998265,561.9055387999397,560.9873334998265,561.9055387999397,560.9873334998265,561.9055387999397,560.9873334998265,561.9055387999397,560.9873334998265,561.9055387999397,561.872383199865,562.3730319999158,561.872383199865,562.3730319999158,561.872383199865,562.3730319999158,561.872383199865,562.3730319999158,561.872383199865,562.3730319999158,561.872383199865,562.3730319999158,561.872383199865,562.3730319999158,561.872383199865,562.3730319999158,560.9873334998265,None,562.3730319999158,563.8086035999004,0.9100000000000006,563.8416293000337,None,564.5930610999931,None,,,,,,,[1.42689655],2.780000000000002,0.7471264367816092,11037,001,2024_Mar_11_1501,MFTM_A_new1021,2021.2.3,59.89250489460407,
,,,,,,,,stim/Instruction_adaptive.png,conditions/adaptive.xlsx,test,-0.6,-0.6,-0.6,0.6,0.6,left,L,,,,,0,1,1,1,0,87,87,69,,,,,,,,,,,,,,,,,,,,,,,,,,,,,,,,,,,,,,,,,,,,565.0939813998993,None,left,1,0.9539435999467969,565.5944179999642,567.0633572000079,565.5944179999642,566.5627515998203,565.5944179999642,566.5627515998203,565.5944179999642,566.5627515998203,565.5944179999642,566.5627515998203,565.5944179999642,566.5627515998203,566.5293069998734,567.03005880001,566.5293069998734,567.03005880001,566.5293069998734,567.03005880001,566.5293069998734,567.03005880001,566.5293069998734,567.03005880001,566.5293069998734,567.03005880001,566.5293069998734,567.03005880001,566.5293069998734,567.03005880001,565.5944179999642,None,567.03005880001,568.4654012999963,0.9600000000000006,568.4821378998458,None,569.2334067998454,None,,,,,,,[1.42818182],2.800000000000002,0.75,11037,001,2024_Mar_11_1501,MFTM_A_new1021,2021.2.3,59.89250489460407,
,,,,,,,,stim/Instruction_adaptive.png,conditions/adaptive.xlsx,test,-0.6,-0.6,-0.6,0.6,0.6,left,L,,,,,0,1,1,1,0,88,88,49,,,,,,,,,,,,,,,,,,,,,,,,,,,,,,,,,,,,,,,,,,,,569.7340052998625,None,left,1,1.5141149000264704,570.2348331999965,571.6876439999323,570.2348331999965,571.1862697999459,570.2348331999965,571.1862697999459,570.2348331999965,571.1862697999459,570.2348331999965,571.1862697999459,570.2348331999965,571.1862697999459,571.1533786999062,571.655677099945,571.1533786999062,571.655677099945,571.1533786999062,571.655677099945,571.1533786999062,571.655677099945,571.1533786999062,571.655677099945,571.1533786999062,571.655677099945,571.1533786999062,571.655677099945,571.1533786999062,571.655677099945,570.2348331999965,None,571.655677099945,573.0889253998175,0.9400000000000006,573.1057843000162,None,573.8573302999139,None,,,,,,,[1.42966292],2.820000000000002,0.7528089887640449,11037,001,2024_Mar_11_1501,MFTM_A_new1021,2021.2.3,59.89250489460407,
,,,,,,,,stim/Instruction_adaptive.png,conditions/adaptive.xlsx,test,0.6,0.6,0.6,-0.6,-0.6,right,R,,,,,0,1,1,1,0,89,89,38,,,,,,,,,,,,,,,,,,,,,,,,,,,,,,,,,,,,,,,,,,,,574.3602379998192,None,right,1,1.1469129000324756,574.8583475998603,576.2939930998255,574.8583475998603,575.7930332999676,574.8583475998603,575.7930332999676,574.8583475998603,575.7930332999676,574.8583475998603,575.7930332999676,574.8583475998603,575.7930332999676,575.7770936999004,576.2779945000075,575.7770936999004,576.2779945000075,575.7770936999004,576.2779945000075,575.7770936999004,576.2779945000075,575.7770936999004,576.2779945000075,575.7770936999004,576.2779945000075,575.7770936999004,576.2779945000075,575.7770936999004,576.2779945000075,574.8583475998603,None,576.2779945000075,577.7128252999391,0.9300000000000006,577.729389899876,None,578.4812725998927,None,,,,,,,[1.43122222],2.8500000000000023,0.7555555555555555,11037,001,2024_Mar_11_1501,MFTM_A_new1021,2021.2.3,59.89250489460407,
,,,,,,,,stim/Instruction_adaptive.png,conditions/adaptive.xlsx,test,-0.6,-0.6,-0.6,0.6,0.6,left,L,,,,,0,1,1,1,0,90,90,21,,,,,,,,,,,,,,,,,,,,,,,,,,,,,,,,,,,,,,,,,,,,578.9815517999232,None,left,1,0.8521694000810385,579.4819133998826,580.9017751999199,579.4819133998826,580.3999454998411,579.4819133998826,580.3999454998411,579.4819133998826,580.3999454998411,579.4819133998826,580.3999454998411,579.4819133998826,580.3999454998411,580.3667525998317,580.8674719999544,580.3667525998317,580.8674719999544,580.3667525998317,580.8674719999544,580.3667525998317,580.8674719999544,580.3667525998317,580.8674719999544,580.3667525998317,580.8674719999544,580.3667525998317,580.8674719999544,580.3667525998317,580.8674719999544,579.4819133998826,None,580.8674719999544,582.3038430998567,0.9100000000000006,582.3368379999883,None,583.0880666000303,None,,,,,,,[1.43296703],2.870000000000002,0.7582417582417582,11037,001,2024_Mar_11_1501,MFTM_A_new1021,2021.2.3,59.89250489460407,
,,,,,,,,stim/Instruction_adaptive.png,conditions/adaptive.xlsx,test,-0.6,-0.6,-0.6,0.6,0.6,left,L,,,,,0,1,1,1,0,91,91,15,,,,,,,,,,,,,,,,,,,,,,,,,,,,,,,,,,,,,,,,,,,,583.5883149998263,None,right,0,0.9002890000119805,584.0890875000041,585.4922718999442,584.0890875000041,584.9902095999569,584.0890875000041,584.9902095999569,584.0890875000041,584.9902095999569,584.0890875000041,584.9902095999569,584.0890875000041,584.9902095999569,584.973539999919,585.4752266998403,584.973539999919,585.4752266998403,584.973539999919,585.4752266998403,584.973539999919,585.4752266998403,584.973539999919,585.4752266998403,584.973539999919,585.4752266998403,584.973539999919,585.4752266998403,584.973539999919,585.4752266998403,584.0890875000041,None,585.4752266998403,586.9106872999109,0.9000000000000006,586.9277619998902,None,587.6779020000249,None,,,,,,,[1.43478261],2.8100000000000023,0.75,11037,001,2024_Mar_11_1501,MFTM_A_new1021,2021.2.3,59.89250489460407,
,,,,,,,,stim/Instruction_adaptive.png,conditions/adaptive.xlsx,test,-0.6,-0.6,-0.6,0.6,0.6,left,L,,,,,0,1,1,1,0,92,92,79,,,,,,,,,,,,,,,,,,,,,,,,,,,,,,,,,,,,,,,,,,,,588.180123699829,None,left,1,1.4777294001542032,588.6793804999907,590.1325153999496,588.6793804999907,589.6308130000252,588.6793804999907,589.6308130000252,588.6793804999907,589.6308130000252,588.6793804999907,589.6308130000252,588.6793804999907,589.6308130000252,589.5976656998973,590.0991406999528,589.5976656998973,590.0991406999528,589.5976656998973,590.0991406999528,589.5976656998973,590.0991406999528,589.5976656998973,590.0991406999528,589.5976656998973,590.0991406999528,589.5976656998973,590.0991406999528,589.5976656998973,590.0991406999528,588.6793804999907,None,590.0991406999528,591.5510956000071,0.9400000000000006,591.5669205999002,None,592.3184483998921,None,,,,,,,[1.43612903],2.830000000000002,0.7526881720430108,11037,001,2024_Mar_11_1501,MFTM_A_new1021,2021.2.3,59.89250489460407,
,,,,,,,,stim/Instruction_adaptive.png,conditions/adaptive.xlsx,test,-0.6,-0.6,-0.6,0.6,0.6,left,L,,,,,0,1,1,1,0,93,93,37,,,,,,,,,,,,,,,,,,,,,,,,,,,,,,,,,,,,,,,,,,,,592.8197474998888,None,left,1,1.661494200117886,593.319599499926,594.7560202998575,593.319599499926,594.255407899851,593.319599499926,594.255407899851,593.319599499926,594.255407899851,593.319599499926,594.255407899851,593.319599499926,594.255407899851,594.2377106999047,594.7395329000428,594.2377106999047,594.7395329000428,594.2377106999047,594.7395329000428,594.2377106999047,594.7395329000428,594.2377106999047,594.7395329000428,594.2377106999047,594.7395329000428,594.2377106999047,594.7395329000428,594.2377106999047,594.7395329000428,593.319599499926,None,594.7395329000428,None,0.9300000000000006,596.1914500000421,None,596.9427405998576,None,,,,,,,[1.43755319],2.8500000000000023,0.7553191489361702,11037,001,2024_Mar_11_1501,MFTM_A_new1021,2021.2.3,59.89250489460407,
