arrwidth1,arrwidth2,arrwidth3,arrwidth4,arrwidth5,keyb,type,orientation,instruction_image,block_filename,block_type,arrow11,arrow22,arrow33,arrow44,arrow55,keyb_3,orientation3,trials.thisRepN,trials.thisTrialN,trials.thisN,trials.thisIndex,trials_3.thisRepN,trials_3.thisTrialN,trials_3.thisN,trials_3.thisIndex,trials_2.thisRepN,trials_2.thisTrialN,trials_2.thisN,trials_2.thisIndex,welcome.started,welcome.stopped,key_resp.keys,key_resp.rt,key_resp.started,key_resp.stopped,instruction_example.started,instruction_example.stopped,key_resp_3.keys,key_resp_3.rt,key_resp_3.started,key_resp_3.stopped,instruction_task.started,instruction_task.stopped,key_resp_2.keys,key_resp_2.rt,key_resp_2.started,key_resp_2.stopped,text_2.started,text_2.stopped,A1.started,A1.stopped,A2.started,A2.stopped,A3.started,A3.stopped,A4.started,A4.stopped,A5.started,A5.stopped,key_resp_4.keys,key_resp_4.corr,key_resp_4.rt,key_resp_4.started,key_resp_4.stopped,fb.started,fb.stopped,instruction_block.started,instruction_block.stopped,key_resp_8.keys,key_resp_8.rt,key_resp_8.started,key_resp_8.stopped,text_8.started,text_8.stopped,key_resp_9.keys,key_resp_9.corr,key_resp_9.rt,text_5.started,text_5.stopped,A11_3.started,A11_3.stopped,A22_2.started,A22_2.stopped,A33_2.started,A33_2.stopped,A44_2.started,A44_2.stopped,A55_2.started,A55_2.stopped,M1_3.started,M1_3.stopped,M2_2.started,M2_2.stopped,M3_2.started,M3_2.stopped,M4_2.started,M4_2.stopped,M5_2.started,M5_2.stopped,M6_2.started,M6_2.stopped,M7_2.started,M7_2.stopped,M8_2.started,M8_2.stopped,key_resp_9.started,key_resp_9.stopped,fixation.started,fixation.stopped,ET,fb_3.started,fb_3.stopped,text_9.started,text_9.stopped,fb_4.started,fb_4.stopped,text_7.started,text_7.stopped,endtext.started,endtext.stopped,fixation_ITI,CCC,Acc,participant,session,date,expName,psychopyVersion,frameRate,
,,,,,,,,,,,,,,,,,,,,,,,,,,,,,,102.16218500002287,None,space,1.2654701999854296,102.16218500002287,None,,,,,,,,,,,,,,,,,,,,,,,,,,,,,,,,,,,,,,,,,,,,,,,,,,,,,,,,,,,,,,,,,,,,,,,,,,,,,,,,,,,,,,,,,11033,002,2024_Jan_12_1042,MFTM_A_new1021,2021.2.3,60.0282252208682,
,,,,,,,,,,,,,,,,,,,,,,,,,,,,,,,,,,,,103.44747380004264,None,space,0.6520394999533892,103.44747380004264,None,,,,,,,,,,,,,,,,,,,,,,,,,,,,,,,,,,,,,,,,,,,,,,,,,,,,,,,,,,,,,,,,,,,,,,,,,,,,,,,,,,,11033,002,2024_Jan_12_1042,MFTM_A_new1021,2021.2.3,60.0282252208682,
,,,,,,,,,,,,,,,,,,,,,,,,,,,,,,,,,,,,,,,,,,104.11501299985684,None,space,0.6326040998101234,104.11501299985684,None,,,,,,,,,,,,,,,,,,,,,,,,,,,,,,,,,,,,,,,,,,,,,,,,,,,,,,,,,,,,,,,,,,,,,,,,,,,,,11033,002,2024_Jan_12_1042,MFTM_A_new1021,2021.2.3,60.0282252208682,
0.6,0.6,0.6,-0.6,-0.6,right,3:2,R,,,,,,,,,,,0,0,0,0,,,,,,,,,,,,,,,,,,,,,,,,,,,104.7825597000774,None,104.7825597000774,None,104.7825597000774,None,104.7825597000774,None,104.7825597000774,None,104.7825597000774,None,right,1,2.35723159997724,104.7825597000774,None,107.18621090007946,None,,,,,,,,,,,,,,,,,,,,,,,,,,,,,,,,,,,,,,,,,,,,,,,,,,,,,,,,,,11033,002,2024_Jan_12_1042,MFTM_A_new1021,2021.2.3,60.0282252208682,
-0.6,-0.6,-0.6,0.6,0.6,left,3:2,L,,,,,,,,,,,0,1,1,1,,,,,,,,,,,,,,,,,,,,,,,,,,,107.93734929990023,None,107.93734929990023,None,107.93734929990023,None,107.93734929990023,None,107.93734929990023,None,107.93734929990023,None,left,1,3.4341749001760036,107.93734929990023,None,111.39235290000215,None,,,,,,,,,,,,,,,,,,,,,,,,,,,,,,,,,,,,,,,,,,,,,,,,,,,,,,,,,,11033,002,2024_Jan_12_1042,MFTM_A_new1021,2021.2.3,60.0282252208682,
-0.6,-0.6,-0.6,0.6,0.6,left,3:2,L,,,,,,,,,,,1,0,2,1,,,,,,,,,,,,,,,,,,,,,,,,,,,112.1436014000792,None,112.1436014000792,None,112.1436014000792,None,112.1436014000792,None,112.1436014000792,None,112.1436014000792,None,left,1,1.4038831000216305,112.1436014000792,None,113.57886769995093,None,,,,,,,,,,,,,,,,,,,,,,,,,,,,,,,,,,,,,,,,,,,,,,,,,,,,,,,,,,11033,002,2024_Jan_12_1042,MFTM_A_new1021,2021.2.3,60.0282252208682,
0.6,0.6,0.6,-0.6,-0.6,right,3:2,R,,,,,,,,,,,1,1,3,0,,,,,,,,,,,,,,,,,,,,,,,,,,,114.33010239992291,None,114.33010239992291,None,114.33010239992291,None,114.33010239992291,None,114.33010239992291,None,114.33010239992291,None,right,1,1.249383700080216,114.33010239992291,None,115.5988711998798,None,,,,,,,,,,,,,,,,,,,,,,,,,,,,,,,,,,,,,,,,,,,,,,,,,,,,,,,,,,11033,002,2024_Jan_12_1042,MFTM_A_new1021,2021.2.3,60.0282252208682,
,,,,,,,,stim/Instruction_mask.png,conditions/adaptive.xlsx,practice,0.6,0.6,0.6,-0.6,-0.6,right,R,,,,,0,0,0,0,0,0,0,22,,,,,,,,,,,,,,,,,,,,,,,,,,,,,,,,,,,,,,116.60020200000145,None,space,3.0193231001030654,116.60020200000145,None,119.72165079996921,None,right,1,1.9122144000139087,120.1552353000734,None,120.1552353000734,123.15983320004307,120.1552353000734,123.15983320004307,120.1552353000734,123.15983320004307,120.1552353000734,123.15983320004307,120.1552353000734,123.15983320004307,123.1431336000096,123.64380869991146,123.1431336000096,123.64380869991146,123.1431336000096,123.64380869991146,123.1431336000096,123.64380869991146,123.1431336000096,123.64380869991146,123.1431336000096,123.64380869991146,123.1431336000096,123.64380869991146,123.1431336000096,123.64380869991146,120.1552353000734,None,123.64380869991146,123.64380869991146,3,123.66060579987243,None,124.41148880007677,None,,,,,,,,,,11033,002,2024_Jan_12_1042,MFTM_A_new1021,2021.2.3,60.0282252208682,
,,,,,,,,stim/Instruction_mask.png,conditions/adaptive.xlsx,practice,0.6,0.6,0.6,-0.6,-0.6,right,R,,,,,0,0,0,0,0,1,1,54,,,,,,,,,,,,,,,,,,,,,,,,,,,,,,,,,,,,,,,,,,,,124.91259699990042,None,right,1,0.9903798000887036,125.41328099998645,127.41619640006684,125.41328099998645,126.9155873998534,125.41328099998645,126.9155873998534,125.41328099998645,126.9155873998534,125.41328099998645,126.9155873998534,125.41328099998645,126.9155873998534,126.89889819989912,127.39952029986307,126.89889819989912,127.39952029986307,126.89889819989912,127.39952029986307,126.89889819989912,127.39952029986307,126.89889819989912,127.39952029986307,126.89889819989912,127.39952029986307,126.89889819989912,127.39952029986307,126.89889819989912,127.39952029986307,125.41328099998645,None,127.39952029986307,128.90180059988052,1.5,128.91849690000527,None,129.6703254999593,None,,,,,,,,,,11033,002,2024_Jan_12_1042,MFTM_A_new1021,2021.2.3,60.0282252208682,
,,,,,,,,stim/Instruction_mask.png,conditions/adaptive.xlsx,practice,-0.6,-0.6,-0.6,0.6,0.6,left,L,,,,,0,0,0,0,0,2,2,87,,,,,,,,,,,,,,,,,,,,,,,,,,,,,,,,,,,,,,,,,,,,130.17028729990125,None,left,1,1.4844349001068622,130.67102800006978,131.97293789987452,130.67102800006978,131.4722802999895,130.67102800006978,131.4722802999895,130.67102800006978,131.4722802999895,130.67102800006978,131.4722802999895,130.67102800006978,131.4722802999895,131.45555369998328,131.9563553999178,131.45555369998328,131.9563553999178,131.45555369998328,131.9563553999178,131.45555369998328,131.9563553999178,131.45555369998328,131.9563553999178,131.45555369998328,131.9563553999178,131.45555369998328,131.9563553999178,131.45555369998328,131.9563553999178,130.67102800006978,None,131.9563553999178,134.15947670000605,0.8,134.1761811999604,None,134.9273808998987,None,,,,,,,,,,11033,002,2024_Jan_12_1042,MFTM_A_new1021,2021.2.3,60.0282252208682,
,,,,,,,,stim/Instruction_mask.png,conditions/adaptive.xlsx,practice,0.6,0.6,0.6,-0.6,-0.6,right,R,,,,,0,0,0,0,0,3,3,94,,,,,,,,,,,,,,,,,,,,,,,,,,,,,,,,,,,,,,,,,,,,135.4281134000048,None,left,0,1.3623917999211699,135.92907790001482,136.68007760006003,135.92907790001482,136.17911839997396,135.92907790001482,136.17911839997396,135.92907790001482,136.17911839997396,135.92907790001482,136.17911839997396,135.92907790001482,136.17911839997396,136.16240109992214,136.66335309995338,136.16240109992214,136.66335309995338,136.16240109992214,136.66335309995338,136.16240109992214,136.66335309995338,136.16240109992214,136.66335309995338,136.16240109992214,136.66335309995338,136.16240109992214,136.66335309995338,136.16240109992214,136.66335309995338,135.92907790001482,None,136.66335309995338,139.41730370000005,3,139.43383320001885,None,140.18505129986443,None,,,,,,,,,,11033,002,2024_Jan_12_1042,MFTM_A_new1021,2021.2.3,60.0282252208682,
,,,,,,,,stim/Instruction_mask.png,conditions/adaptive.xlsx,practice,,,,,,,,,,,,0,0,0,0,,,,,,,,,,,,,,,,,,,,,,,,,,,,,,,,,,,,,,,,,,,,,,,,,,,,,,,,,,,,,,,,,,,,,,,,,,,,,,,,,,,,,,,,,,140.70266900002025,141.70405959989876,141.68823460000567,141.68823460000567,141.68823460000567,None,,,,11033,002,2024_Jan_12_1042,MFTM_A_new1021,2021.2.3,60.0282252208682,
,,,,,,,,stim/Instruction_adaptive.png,conditions/adaptive.xlsx,test,0.6,0.6,0.6,-0.6,-0.6,right,R,,,,,0,1,1,1,0,0,0,48,,,,,,,,,,,,,,,,,,,,,,,,,,,,,,,,,,,,,,144.8415600999724,None,space,0.7859614000190049,144.8415600999724,None,145.6597631999757,None,right,1,1.3548718001693487,146.16071179998107,None,146.16071179998107,149.16517980000935,146.16071179998107,149.16517980000935,146.16071179998107,149.16517980000935,146.16071179998107,149.16517980000935,146.16071179998107,149.16517980000935,149.14852589997463,149.6492586999666,149.14852589997463,149.6492586999666,149.14852589997463,149.6492586999666,149.14852589997463,149.6492586999666,149.14852589997463,149.6492586999666,149.14852589997463,149.6492586999666,149.14852589997463,149.6492586999666,149.14852589997463,149.6492586999666,146.16071179998107,None,149.63252869993448,149.63252869993448,3,149.6659575998783,None,150.4170917000156,None,,,,,,,0,6.000000000000005,1.0,11033,002,2024_Jan_12_1042,MFTM_A_new1021,2021.2.3,60.0282252208682,
,,,,,,,,stim/Instruction_adaptive.png,conditions/adaptive.xlsx,test,0.6,0.6,0.6,-0.6,-0.6,right,R,,,,,0,1,1,1,0,1,1,42,,,,,,,,,,,,,,,,,,,,,,,,,,,,,,,,,,,,,,,,,,,,150.91779009997845,None,left,0,1.1691968000959605,151.418272000039,152.16966590005904,151.418272000039,151.66895249998197,151.418272000039,151.66895249998197,151.418272000039,151.66895249998197,151.418272000039,151.66895249998197,151.418272000039,151.66895249998197,151.65218089986593,152.15324939996935,151.65218089986593,152.15324939996935,151.65218089986593,152.15324939996935,151.65218089986593,152.15324939996935,151.65218089986593,152.15324939996935,151.65218089986593,152.15324939996935,151.65218089986593,152.15324939996935,151.65218089986593,152.15324939996935,151.418272000039,None,152.15324939996935,153.03741399990395,0.25,153.054143599933,None,153.80528369988315,None,,,,,,,[0.875],2.570000000000002,0.5,11033,002,2024_Jan_12_1042,MFTM_A_new1021,2021.2.3,60.0282252208682,
,,,,,,,,stim/Instruction_adaptive.png,conditions/adaptive.xlsx,test,-0.6,-0.6,-0.6,0.6,0.6,left,L,,,,,0,1,1,1,0,2,2,57,,,,,,,,,,,,,,,,,,,,,,,,,,,,,,,,,,,,,,,,,,,,154.3059594000224,None,left,1,1.3645829998422414,154.80697240005247,156.4256704999134,154.80697240005247,155.92529370007105,154.80697240005247,155.92529370007105,154.80697240005247,155.92529370007105,154.80697240005247,155.92529370007105,154.80697240005247,155.92529370007105,155.89187920000404,156.39247530000284,155.89187920000404,156.39247530000284,155.89187920000404,156.39247530000284,155.89187920000404,156.39247530000284,155.89187920000404,156.39247530000284,155.89187920000404,156.39247530000284,155.89187920000404,156.39247530000284,155.89187920000404,156.39247530000284,154.80697240005247,None,156.39247530000284,157.44394030002877,1.1100000000000008,157.47738919989206,None,158.22858570003882,None,,,,,,,[1.04666667],3.3800000000000026,0.6666666666666666,11033,002,2024_Jan_12_1042,MFTM_A_new1021,2021.2.3,60.0282252208682,
,,,,,,,,stim/Instruction_adaptive.png,conditions/adaptive.xlsx,test,-0.6,-0.6,-0.6,0.6,0.6,left,L,,,,,0,1,1,1,0,3,3,23,,,,,,,,,,,,,,,,,,,,,,,,,,,,,,,,,,,,,,,,,,,,158.7292640998494,None,left,1,1.1898470998276025,159.2301648000721,160.36487030005082,159.2301648000721,159.86461049993522,159.2301648000721,159.86461049993522,159.2301648000721,159.86461049993522,159.2301648000721,159.86461049993522,159.2301648000721,159.86461049993522,159.84756270004436,160.34819269995205,159.84756270004436,160.34819269995205,159.84756270004436,160.34819269995205,159.84756270004436,160.34819269995205,159.84756270004436,160.34819269995205,159.84756270004436,160.34819269995205,159.84756270004436,160.34819269995205,159.84756270004436,160.34819269995205,159.2301648000721,None,160.34819269995205,161.60033240006305,0.6300000000000003,161.61704799998552,None,162.367833300028,None,,,,,,,[1.2525],3.940000000000003,0.75,11033,002,2024_Jan_12_1042,MFTM_A_new1021,2021.2.3,60.0282252208682,
,,,,,,,,stim/Instruction_adaptive.png,conditions/adaptive.xlsx,test,0.6,0.6,0.6,-0.6,-0.6,right,R,,,,,0,1,1,1,0,4,4,80,,,,,,,,,,,,,,,,,,,,,,,,,,,,,,,,,,,,,,,,,,,,162.86891179997474,None,right,1,1.281878300011158,163.36962169990875,164.3041971998755,163.36962169990875,163.80328690004535,163.36962169990875,163.80328690004535,163.36962169990875,163.80328690004535,163.36962169990875,163.80328690004535,163.36962169990875,163.80328690004535,163.78688000002876,164.2874720999971,163.78688000002876,164.2874720999971,163.78688000002876,164.2874720999971,163.78688000002876,164.2874720999971,163.78688000002876,164.2874720999971,163.78688000002876,164.2874720999971,163.78688000002876,164.2874720999971,163.78688000002876,164.2874720999971,163.36962169990875,None,164.2874720999971,165.7061660999898,0.43000000000000016,165.72278960002586,None,166.47409969987348,None,,,,,,,[1.416],4.370000000000004,0.8,11033,002,2024_Jan_12_1042,MFTM_A_new1021,2021.2.3,60.0282252208682,
,,,,,,,,stim/Instruction_adaptive.png,conditions/adaptive.xlsx,test,-0.6,-0.6,-0.6,0.6,0.6,left,L,,,,,0,1,1,1,0,5,5,75,,,,,,,,,,,,,,,,,,,,,,,,,,,,,,,,,,,,,,,,,,,,166.97476510005072,None,right,0,1.5438279998488724,167.475660600001,168.3101266999729,167.475660600001,167.80946479993872,167.475660600001,167.80946479993872,167.475660600001,167.80946479993872,167.475660600001,167.80946479993872,167.475660600001,167.80946479993872,167.77601370005868,168.27669409988448,167.77601370005868,168.27669409988448,167.77601370005868,168.27669409988448,167.77601370005868,168.27669409988448,167.77601370005868,168.27669409988448,167.77601370005868,168.27669409988448,167.77601370005868,168.27669409988448,167.77601370005868,168.27669409988448,167.475660600001,None,168.27669409988448,169.82914200006053,0.32000000000000006,169.84648229996674,None,170.59697069996037,None,,,,,,,[1.54333333],3.5400000000000027,0.6666666666666666,11033,002,2024_Jan_12_1042,MFTM_A_new1021,2021.2.3,60.0282252208682,
,,,,,,,,stim/Instruction_adaptive.png,conditions/adaptive.xlsx,test,-0.6,-0.6,-0.6,0.6,0.6,left,L,,,,,0,1,1,1,0,6,6,31,,,,,,,,,,,,,,,,,,,,,,,,,,,,,,,,,,,,,,,,,,,,171.09761049994268,None,right,0,2.1573824000079185,171.59833150007762,172.6827014000155,171.59833150007762,172.1825846999418,171.59833150007762,172.1825846999418,171.59833150007762,172.1825846999418,171.59833150007762,172.1825846999418,171.59833150007762,172.1825846999418,172.1492101000622,172.6498392999638,172.1492101000622,172.6498392999638,172.1492101000622,172.6498392999638,172.1492101000622,172.6498392999638,172.1492101000622,172.6498392999638,172.1492101000622,172.6498392999638,172.1492101000622,172.6498392999638,172.1492101000622,172.6498392999638,171.59833150007762,None,172.6498392999638,174.2521375999786,0.5700000000000003,174.26895359996706,None,175.01990909990855,None,,,,,,,[1.59857143],2.650000000000002,0.5714285714285714,11033,002,2024_Jan_12_1042,MFTM_A_new1021,2021.2.3,60.0282252208682,
,,,,,,,,stim/Instruction_adaptive.png,conditions/adaptive.xlsx,test,0.6,0.6,0.6,-0.6,-0.6,right,R,,,,,0,1,1,1,0,7,7,36,,,,,,,,,,,,,,,,,,,,,,,,,,,,,,,,,,,,,,,,,,,,175.52092360006645,None,right,1,2.3180428000632674,176.02159789996222,177.57399900001474,176.02159789996222,177.0730795999989,176.02159789996222,177.0730795999989,176.02159789996222,177.0730795999989,176.02159789996222,177.0730795999989,176.02159789996222,177.0730795999989,177.0563747000415,177.55739460000768,177.0563747000415,177.55739460000768,177.0563747000415,177.55739460000768,177.0563747000415,177.55739460000768,177.0563747000415,177.55739460000768,177.0563747000415,177.55739460000768,177.0563747000415,177.55739460000768,177.0563747000415,177.55739460000768,176.02159789996222,None,177.55739460000768,179.00946659990586,1.0500000000000007,179.026084800018,None,179.7772677000612,None,,,,,,,[[1.45]],3.0200000000000022,0.625,11033,002,2024_Jan_12_1042,MFTM_A_new1021,2021.2.3,60.0282252208682,
,,,,,,,,stim/Instruction_adaptive.png,conditions/adaptive.xlsx,test,0.6,0.6,0.6,-0.6,-0.6,right,R,,,,,0,1,1,1,0,8,8,90,,,,,,,,,,,,,,,,,,,,,,,,,,,,,,,,,,,,,,,,,,,,180.27797159994952,None,left,0,2.017099700169638,180.77845139987767,182.0973244998604,180.77845139987767,181.5963373000268,180.77845139987767,181.5963373000268,180.77845139987767,181.5963373000268,180.77845139987767,181.5963373000268,180.77845139987767,181.5963373000268,181.57968480000272,182.080593300052,181.57968480000272,182.080593300052,181.57968480000272,182.080593300052,181.57968480000272,182.080593300052,181.57968480000272,182.080593300052,181.57968480000272,182.080593300052,181.57968480000272,182.080593300052,181.57968480000272,182.080593300052,180.77845139987767,None,182.080593300052,None,0.8100000000000005,183.68288660002872,None,184.43401009985246,None,,,,,,,[1.59222222],2.2200000000000015,0.5555555555555556,11033,002,2024_Jan_12_1042,MFTM_A_new1021,2021.2.3,60.0282252208682,
,,,,,,,,stim/Instruction_adaptive.png,conditions/adaptive.xlsx,test,-0.6,-0.6,-0.6,0.6,0.6,left,L,,,,,0,1,1,1,0,9,9,41,,,,,,,,,,,,,,,,,,,,,,,,,,,,,,,,,,,,,,,,,,,,184.93469240004197,None,left,1,1.1523502001073211,185.43535219994374,187.35493590007536,185.43535219994374,186.8543187000323,185.43535219994374,186.8543187000323,185.43535219994374,186.8543187000323,185.43535219994374,186.8543187000323,185.43535219994374,186.8543187000323,186.8208603998646,187.3215759000741,186.8208603998646,187.3215759000741,186.8208603998646,187.3215759000741,186.8208603998646,187.3215759000741,186.8208603998646,187.3215759000741,186.8208603998646,187.3215759000741,186.8208603998646,187.3215759000741,186.8208603998646,187.3215759000741,185.43535219994374,None,187.3215759000741,188.4245764000807,1.410000000000001,188.43986100004986,None,189.192139999941,None,,,,,,,[[1.09]],2.560000000000002,0.6,11033,002,2024_Jan_12_1042,MFTM_A_new1021,2021.2.3,60.0282252208682,
,,,,,,,,stim/Instruction_adaptive.png,conditions/adaptive.xlsx,test,0.6,0.6,0.6,-0.6,-0.6,right,R,,,,,0,1,1,1,0,10,10,44,,,,,,,,,,,,,,,,,,,,,,,,,,,,,,,,,,,,,,,,,,,,189.69171599997208,None,right,1,2.5229559000581503,190.19264360005036,191.8116925000213,190.19264360005036,191.32775479997508,190.19264360005036,191.32775479997508,190.19264360005036,191.32775479997508,190.19264360005036,191.32775479997508,190.19264360005036,191.32775479997508,191.2942941999063,191.79532149992883,191.2942941999063,191.79532149992883,191.2942941999063,191.79532149992883,191.2942941999063,191.79532149992883,191.2942941999063,191.79532149992883,191.2942941999063,191.79532149992883,191.2942941999063,191.79532149992883,191.2942941999063,191.79532149992883,190.19264360005036,None,191.79532149992883,193.17976749991067,1.1200000000000008,193.19689909997396,None,193.94801090005785,None,,,,,,,[[1.38]],2.8100000000000023,0.6363636363636364,11033,002,2024_Jan_12_1042,MFTM_A_new1021,2021.2.3,60.0282252208682,
,,,,,,,,stim/Instruction_adaptive.png,conditions/adaptive.xlsx,test,0.6,0.6,0.6,-0.6,-0.6,right,R,,,,,0,1,1,1,0,11,11,46,,,,,,,,,,,,,,,,,,,,,,,,,,,,,,,,,,,,,,,,,,,,194.44898599991575,None,right,1,1.1658354999963194,194.94974169996567,196.40183370001614,194.94974169996567,195.9010465000756,194.94974169996567,195.9010465000756,194.94974169996567,195.9010465000756,194.94974169996567,195.9010465000756,194.94974169996567,195.9010465000756,195.86747459997423,196.36839960003272,195.86747459997423,196.36839960003272,195.86747459997423,196.36839960003272,195.86747459997423,196.36839960003272,195.86747459997423,196.36839960003272,195.86747459997423,196.36839960003272,195.86747459997423,196.36839960003272,195.86747459997423,196.36839960003272,194.94974169996567,None,196.36839960003272,197.90412379987538,0.9400000000000006,197.9208140000701,None,198.67192139988765,None,,,,,,,[1.53],3.0100000000000025,0.6666666666666666,11033,002,2024_Jan_12_1042,MFTM_A_new1021,2021.2.3,60.0282252208682,
,,,,,,,,stim/Instruction_adaptive.png,conditions/adaptive.xlsx,test,0.6,0.6,0.6,-0.6,-0.6,right,R,,,,,0,1,1,1,0,12,12,56,,,,,,,,,,,,,,,,,,,,,,,,,,,,,,,,,,,,,,,,,,,,199.17260270006955,None,right,1,1.4422768000513315,199.67332100006752,201.0087117999792,199.67332100006752,200.50736119993962,199.67332100006752,200.50736119993962,199.67332100006752,200.50736119993962,199.67332100006752,200.50736119993962,199.67332100006752,200.50736119993962,200.47431449987926,200.97525839996524,200.47431449987926,200.97525839996524,200.47431449987926,200.97525839996524,200.47431449987926,200.97525839996524,200.47431449987926,200.97525839996524,200.47431449987926,200.97525839996524,200.47431449987926,200.97525839996524,200.47431449987926,200.97525839996524,199.67332100006752,None,200.97525839996524,202.52763949986547,0.8200000000000005,202.54410260007717,None,203.2952489000745,None,,,,,,,[1.54153846],3.1700000000000026,0.6923076923076923,11033,002,2024_Jan_12_1042,MFTM_A_new1021,2021.2.3,60.0282252208682,
,,,,,,,,stim/Instruction_adaptive.png,conditions/adaptive.xlsx,test,0.6,0.6,0.6,-0.6,-0.6,right,R,,,,,0,1,1,1,0,13,13,52,,,,,,,,,,,,,,,,,,,,,,,,,,,,,,,,,,,,,,,,,,,,203.79622019990347,None,right,1,1.0747427998576313,204.29684720002115,205.53192269988358,204.29684720002115,205.03128649992868,204.29684720002115,205.03128649992868,204.29684720002115,205.03128649992868,204.29684720002115,205.03128649992868,204.29684720002115,205.03128649992868,205.01458139996976,205.51472950004973,205.01458139996976,205.51472950004973,205.01458139996976,205.51472950004973,205.01458139996976,205.51472950004973,205.01458139996976,205.51472950004973,205.01458139996976,205.51472950004973,205.01458139996976,205.51472950004973,205.01458139996976,205.51472950004973,204.29684720002115,None,205.51472950004973,None,0.7300000000000004,207.08387820003554,None,207.83520670002326,None,,,,,,,[1.55785714],3.3100000000000023,0.7142857142857143,11033,002,2024_Jan_12_1042,MFTM_A_new1021,2021.2.3,60.0282252208682,
,,,,,,,,stim/Instruction_adaptive.png,conditions/adaptive.xlsx,test,0.6,0.6,0.6,-0.6,-0.6,right,R,,,,,0,1,1,1,0,14,14,12,,,,,,,,,,,,,,,,,,,,,,,,,,,,,,,,,,,,,,,,,,,,208.33619279996492,None,right,1,1.910858399933204,208.8368476999458,210.00537510006689,208.8368476999458,209.50464789988473,208.8368476999458,209.50464789988473,208.8368476999458,209.50464789988473,208.8368476999458,209.50464789988473,208.8368476999458,209.50464789988473,209.48795189987868,209.98869560007006,209.48795189987868,209.98869560007006,209.48795189987868,209.98869560007006,209.48795189987868,209.98869560007006,209.48795189987868,209.98869560007006,209.48795189987868,209.98869560007006,209.48795189987868,209.98869560007006,209.48795189987868,209.98869560007006,208.8368476999458,None,209.97194249997847,211.557494699955,0.6600000000000004,211.574184600031,None,212.3253720998764,None,,,,,,,[1.57666667],3.4400000000000026,0.7333333333333333,11033,002,2024_Jan_12_1042,MFTM_A_new1021,2021.2.3,60.0282252208682,
,,,,,,,,stim/Instruction_adaptive.png,conditions/adaptive.xlsx,test,0.6,0.6,0.6,-0.6,-0.6,right,R,,,,,0,1,1,1,0,15,15,86,,,,,,,,,,,,,,,,,,,,,,,,,,,,,,,,,,,,,,,,,,,,212.82600250001997,None,right,1,1.6206171999219805,213.32696440001018,214.44517580000684,213.32696440001018,213.94437210005708,213.32696440001018,213.94437210005708,213.32696440001018,213.94437210005708,213.32696440001018,213.94437210005708,213.32696440001018,213.94437210005708,213.9276540998835,214.42848240002058,213.9276540998835,214.42848240002058,213.9276540998835,214.42848240002058,213.9276540998835,214.42848240002058,213.9276540998835,214.42848240002058,213.9276540998835,214.42848240002058,213.9276540998835,214.42848240002058,213.9276540998835,214.42848240002058,213.32696440001018,None,214.42848240002058,216.03090350003913,0.6100000000000003,216.04760920000263,None,216.7988378999289,None,,,,,,,[1.59625],3.5500000000000025,0.75,11033,002,2024_Jan_12_1042,MFTM_A_new1021,2021.2.3,60.0282252208682,
,,,,,,,,stim/Instruction_adaptive.png,conditions/adaptive.xlsx,test,0.6,0.6,0.6,-0.6,-0.6,right,R,,,,,0,1,1,1,0,16,16,20,,,,,,,,,,,,,,,,,,,,,,,,,,,,,,,,,,,,,,,,,,,,217.29942979989573,None,left,0,1.0835667999926955,217.8001043999102,218.8683017999865,217.8001043999102,218.36762179993093,217.8001043999102,218.36762179993093,217.8001043999102,218.36762179993093,217.8001043999102,218.36762179993093,217.8001043999102,218.36762179993093,218.35092350002378,218.8518371998798,218.35092350002378,218.8518371998798,218.35092350002378,218.8518371998798,218.35092350002378,218.8518371998798,218.35092350002378,218.8518371998798,218.35092350002378,218.8518371998798,218.35092350002378,218.8518371998798,218.35092350002378,218.8518371998798,217.8001043999102,None,218.8518371998798,220.47157950000837,0.5600000000000003,220.48757559992373,None,221.23870859993622,None,,,,,,,[1.61647059],3.2500000000000027,0.7058823529411765,11033,002,2024_Jan_12_1042,MFTM_A_new1021,2021.2.3,60.0282252208682,
,,,,,,,,stim/Instruction_adaptive.png,conditions/adaptive.xlsx,test,-0.6,-0.6,-0.6,0.6,0.6,left,L,,,,,0,1,1,1,0,17,17,21,,,,,,,,,,,,,,,,,,,,,,,,,,,,,,,,,,,,,,,,,,,,221.73918929998763,None,left,1,2.0996600999496877,222.24005710007623,223.44196249987,222.24005710007623,222.94102029991336,222.24005710007623,222.94102029991336,222.24005710007623,222.94102029991336,222.24005710007623,222.94102029991336,222.24005710007623,222.94102029991336,222.90746690006927,223.4085854999721,222.90746690006927,223.4085854999721,222.90746690006927,223.4085854999721,222.90746690006927,223.4085854999721,222.90746690006927,223.4085854999721,222.90746690006927,223.4085854999721,222.90746690006927,223.4085854999721,222.90746690006927,223.4085854999721,222.24005710007623,None,223.4085854999721,225.0449123000726,0.6900000000000004,225.06101770000532,None,225.81217100005597,None,,,,,,,[1.62722222],3.3600000000000025,0.7222222222222222,11033,002,2024_Jan_12_1042,MFTM_A_new1021,2021.2.3,60.0282252208682,
,,,,,,,,stim/Instruction_adaptive.png,conditions/adaptive.xlsx,test,-0.6,-0.6,-0.6,0.6,0.6,left,L,,,,,0,1,1,1,0,18,18,97,,,,,,,,,,,,,,,,,,,,,,,,,,,,,,,,,,,,,,,,,,,,226.3128263000399,None,left,1,1.094253099989146,226.81352550000884,227.96528959996067,226.81352550000884,227.4645435998682,226.81352550000884,227.4645435998682,226.81352550000884,227.4645435998682,226.81352550000884,227.4645435998682,226.81352550000884,227.4645435998682,227.43113350006752,227.93130100006238,227.43113350006752,227.93130100006238,227.43113350006752,227.93130100006238,227.43113350006752,227.93130100006238,227.43113350006752,227.93130100006238,227.43113350006752,227.93130100006238,227.43113350006752,227.93130100006238,227.43113350006752,227.93130100006238,226.81352550000884,None,227.93130100006238,229.58428089995869,0.6400000000000003,229.60099940001965,None,230.3521493000444,None,,,,,,,[1.63947368],3.4600000000000026,0.7368421052631579,11033,002,2024_Jan_12_1042,MFTM_A_new1021,2021.2.3,60.0282252208682,
,,,,,,,,stim/Instruction_adaptive.png,conditions/adaptive.xlsx,test,-0.6,-0.6,-0.6,0.6,0.6,left,L,,,,,0,1,1,1,0,19,19,29,,,,,,,,,,,,,,,,,,,,,,,,,,,,,,,,,,,,,,,,,,,,230.85280189989135,None,left,1,3.426462900126353,231.35346010001376,232.4550995999016,231.35346010001376,231.9544774000533,231.35346010001376,231.9544774000533,231.35346010001376,231.9544774000533,231.35346010001376,231.9544774000533,231.35346010001376,231.9544774000533,231.93780099996366,232.43864839989692,231.93780099996366,232.43864839989692,231.93780099996366,232.43864839989692,231.93780099996366,232.43864839989692,231.93780099996366,232.43864839989692,231.93780099996366,232.43864839989692,231.93780099996366,232.43864839989692,231.93780099996366,232.43864839989692,231.35346010001376,None,232.43864839989692,234.8088291999884,0.6000000000000003,234.8253107999917,None,235.57645140006207,None,,,,,,,[1.6525],3.5500000000000025,0.75,11033,002,2024_Jan_12_1042,MFTM_A_new1021,2021.2.3,60.0282252208682,
,,,,,,,,stim/Instruction_adaptive.png,conditions/adaptive.xlsx,test,-0.6,-0.6,-0.6,0.6,0.6,left,L,,,,,0,1,1,1,0,20,20,27,,,,,,,,,,,,,,,,,,,,,,,,,,,,,,,,,,,,,,,,,,,,236.07739529991522,None,right,0,1.1776158001739532,236.578047899995,237.6462346999906,236.578047899995,237.1456118999049,236.578047899995,237.1456118999049,236.578047899995,237.1456118999049,236.578047899995,237.1456118999049,236.578047899995,237.1456118999049,237.12891849991865,237.62950589996763,237.12891849991865,237.62950589996763,237.12891849991865,237.62950589996763,237.12891849991865,237.62950589996763,237.12891849991865,237.62950589996763,237.12891849991865,237.62950589996763,237.12891849991865,237.62950589996763,237.12891849991865,237.62950589996763,236.578047899995,None,237.62950589996763,239.29873439995572,0.5600000000000003,239.3153919999022,None,240.06655799993314,None,,,,,,,[1.66619048],3.3000000000000025,0.7142857142857143,11033,002,2024_Jan_12_1042,MFTM_A_new1021,2021.2.3,60.0282252208682,
,,,,,,,,stim/Instruction_adaptive.png,conditions/adaptive.xlsx,test,0.6,0.6,0.6,-0.6,-0.6,right,R,,,,,0,1,1,1,0,21,21,2,,,,,,,,,,,,,,,,,,,,,,,,,,,,,,,,,,,,,,,,,,,,240.56720829987898,None,right,1,1.2719927998259664,241.06769989989698,242.2529315999709,241.06769989989698,241.75240910006687,241.06769989989698,241.75240910006687,241.06769989989698,241.75240910006687,241.06769989989698,241.75240910006687,241.06769989989698,241.75240910006687,241.71896429988556,242.21948409988545,241.71896429988556,242.21948409988545,241.71896429988556,242.21948409988545,241.71896429988556,242.21948409988545,241.71896429988556,242.21948409988545,241.71896429988556,242.21948409988545,241.71896429988556,242.21948409988545,241.71896429988556,242.21948409988545,241.06769989989698,None,242.21948409988545,243.90554549987428,0.6700000000000004,243.92229510005563,None,244.6734575999435,None,,,,,,,[1.67363636],3.3900000000000023,0.7272727272727273,11033,002,2024_Jan_12_1042,MFTM_A_new1021,2021.2.3,60.0282252208682,
,,,,,,,,stim/Instruction_adaptive.png,conditions/adaptive.xlsx,test,-0.6,-0.6,-0.6,0.6,0.6,left,L,,,,,0,1,1,1,0,22,22,39,,,,,,,,,,,,,,,,,,,,,,,,,,,,,,,,,,,,,,,,,,,,245.17408829997294,None,left,1,1.208996000001207,245.67473459988832,246.80982810002752,245.67473459988832,246.30924149998464,245.67473459988832,246.30924149998464,245.67473459988832,246.30924149998464,245.67473459988832,246.30924149998464,245.67473459988832,246.30924149998464,246.29243230004795,246.79308129986748,246.29243230004795,246.79308129986748,246.29243230004795,246.79308129986748,246.29243230004795,246.79308129986748,246.29243230004795,246.79308129986748,246.29243230004795,246.79308129986748,246.29243230004795,246.79308129986748,246.29243230004795,246.79308129986748,245.67473459988832,None,246.79308129986748,248.47901399992406,0.6300000000000003,248.49561519990675,None,249.2468178998679,None,,,,,,,[1.68217391],3.4800000000000026,0.7391304347826086,11033,002,2024_Jan_12_1042,MFTM_A_new1021,2021.2.3,60.0282252208682,
,,,,,,,,stim/Instruction_adaptive.png,conditions/adaptive.xlsx,test,-0.6,-0.6,-0.6,0.6,0.6,left,L,,,,,0,1,1,1,0,23,23,33,,,,,,,,,,,,,,,,,,,,,,,,,,,,,,,,,,,,,,,,,,,,249.7474954999052,None,left,1,1.9715273000765592,250.2482346999459,251.34981049993075,250.2482346999459,250.8491265999619,250.2482346999459,250.8491265999619,250.2482346999459,250.8491265999619,250.2482346999459,250.8491265999619,250.2482346999459,250.8491265999619,250.81569069996476,251.31665779999457,250.81569069996476,251.31665779999457,250.81569069996476,251.31665779999457,250.81569069996476,251.31665779999457,250.81569069996476,251.31665779999457,250.81569069996476,251.31665779999457,250.81569069996476,251.31665779999457,250.81569069996476,251.31665779999457,250.2482346999459,None,251.31665779999457,253.01874740002677,0.5900000000000003,253.03552490007132,None,253.78666729992256,None,,,,,,,[1.69166667],3.5500000000000025,0.75,11033,002,2024_Jan_12_1042,MFTM_A_new1021,2021.2.3,60.0282252208682,
,,,,,,,,stim/Instruction_adaptive.png,conditions/adaptive.xlsx,test,-0.6,-0.6,-0.6,0.6,0.6,left,L,,,,,0,1,1,1,0,24,24,73,,,,,,,,,,,,,,,,,,,,,,,,,,,,,,,,,,,,,,,,,,,,254.28747399989516,None,right,0,2.0872673999983817,254.78847400005907,255.85667690006085,254.78847400005907,255.3556893998757,254.78847400005907,255.3556893998757,254.78847400005907,255.3556893998757,254.78847400005907,255.3556893998757,254.78847400005907,255.3556893998757,255.33895540004596,255.8400071999058,255.33895540004596,255.8400071999058,255.33895540004596,255.8400071999058,255.33895540004596,255.8400071999058,255.33895540004596,255.8400071999058,255.33895540004596,255.8400071999058,255.33895540004596,255.8400071999058,255.33895540004596,255.8400071999058,254.78847400005907,None,255.82324729999527,257.5259028999135,0.5600000000000003,257.5592042999342,None,258.3100958999712,None,,,,,,,[1.7016],3.3400000000000025,0.72,11033,002,2024_Jan_12_1042,MFTM_A_new1021,2021.2.3,60.0282252208682,
,,,,,,,,stim/Instruction_adaptive.png,conditions/adaptive.xlsx,test,0.6,0.6,0.6,-0.6,-0.6,right,R,,,,,0,1,1,1,0,25,25,0,,,,,,,,,,,,,,,,,,,,,,,,,,,,,,,,,,,,,,,,,,,,258.81075889989734,None,right,1,1.1800004998221993,259.3117076999042,260.46347619988956,259.3117076999042,259.9623171000276,259.3117076999042,259.9623171000276,259.3117076999042,259.9623171000276,259.3117076999042,259.9623171000276,259.3117076999042,259.9623171000276,259.94578709988855,260.4467859000433,259.94578709988855,260.4467859000433,259.94578709988855,260.4467859000433,259.94578709988855,260.4467859000433,259.94578709988855,260.4467859000433,259.94578709988855,260.4467859000433,259.94578709988855,260.4467859000433,259.94578709988855,260.4467859000433,259.3117076999042,None,260.4467859000433,262.16577750002034,0.6500000000000004,262.18252839986235,None,262.9336510999128,None,,,,,,,[1.70730769],3.4200000000000026,0.7307692307692307,11033,002,2024_Jan_12_1042,MFTM_A_new1021,2021.2.3,60.0282252208682,
,,,,,,,,stim/Instruction_adaptive.png,conditions/adaptive.xlsx,test,-0.6,-0.6,-0.6,0.6,0.6,left,L,,,,,0,1,1,1,0,26,26,85,,,,,,,,,,,,,,,,,,,,,,,,,,,,,,,,,,,,,,,,,,,,263.4341770999599,None,left,1,1.0852220000233501,263.93529679998755,265.05364859988913,263.93529679998755,264.5527705999557,263.93529679998755,264.5527705999557,263.93529679998755,264.5527705999557,263.93529679998755,264.5527705999557,263.93529679998755,264.5527705999557,264.51949539990164,265.0200193999335,264.51949539990164,265.0200193999335,264.51949539990164,265.0200193999335,264.51949539990164,265.0200193999335,264.51949539990164,265.0200193999335,264.51949539990164,265.0200193999335,264.51949539990164,265.0200193999335,264.51949539990164,265.0200193999335,263.93529679998755,None,265.0200193999335,266.7392503998708,0.6100000000000003,266.7726171000395,None,267.5238317998592,None,,,,,,,[1.71407407],3.490000000000003,0.7407407407407407,11033,002,2024_Jan_12_1042,MFTM_A_new1021,2021.2.3,60.0282252208682,
,,,,,,,,stim/Instruction_adaptive.png,conditions/adaptive.xlsx,test,0.6,0.6,0.6,-0.6,-0.6,right,R,,,,,0,1,1,1,0,27,27,76,,,,,,,,,,,,,,,,,,,,,,,,,,,,,,,,,,,,,,,,,,,,268.02470050007105,None,left,0,1.5982111000921577,268.5254823998548,269.62708000000566,268.5254823998548,269.1261072999332,268.5254823998548,269.1261072999332,268.5254823998548,269.1261072999332,268.5254823998548,269.1261072999332,268.5254823998548,269.1261072999332,269.0929958000779,269.5933965998702,269.0929958000779,269.5933965998702,269.0929958000779,269.5933965998702,269.0929958000779,269.5933965998702,269.0929958000779,269.5933965998702,269.0929958000779,269.5933965998702,269.0929958000779,269.5933965998702,269.0929958000779,269.5933965998702,268.5254823998548,None,269.5933965998702,271.3293862999417,0.5900000000000003,271.34615110000595,None,272.09723669989035,None,,,,,,,[1.72107143],3.2900000000000027,0.7142857142857143,11033,002,2024_Jan_12_1042,MFTM_A_new1021,2021.2.3,60.0282252208682,
,,,,,,,,stim/Instruction_adaptive.png,conditions/adaptive.xlsx,test,0.6,0.6,0.6,-0.6,-0.6,right,R,,,,,0,1,1,1,0,28,28,34,,,,,,,,,,,,,,,,,,,,,,,,,,,,,,,,,,,,,,,,,,,,272.5982375999447,None,right,1,1.7535006999969482,273.0983541000169,274.28378800000064,273.0983541000169,273.7831359000411,273.0983541000169,273.7831359000411,273.0983541000169,273.7831359000411,273.0983541000169,273.7831359000411,273.0983541000169,273.7831359000411,273.74966740002856,274.25030780001543,273.74966740002856,274.25030780001543,273.74966740002856,274.25030780001543,273.74966740002856,274.25030780001543,273.74966740002856,274.25030780001543,273.74966740002856,274.25030780001543,273.74966740002856,274.25030780001543,273.74966740002856,274.25030780001543,273.0983541000169,None,274.25030780001543,275.98639369988814,0.6700000000000004,276.0031137999613,None,276.75426779990084,None,,,,,,,[1.72482759],3.3600000000000025,0.7241379310344828,11033,002,2024_Jan_12_1042,MFTM_A_new1021,2021.2.3,60.0282252208682,
,,,,,,,,stim/Instruction_adaptive.png,conditions/adaptive.xlsx,test,0.6,0.6,0.6,-0.6,-0.6,right,R,,,,,0,1,1,1,0,29,29,62,,,,,,,,,,,,,,,,,,,,,,,,,,,,,,,,,,,,,,,,,,,,277.25489159999415,None,left,0,1.7524694001767784,277.75533509999514,278.9067989999894,277.75533509999514,278.40672979992814,277.75533509999514,278.40672979992814,277.75533509999514,278.40672979992814,277.75533509999514,278.40672979992814,277.75533509999514,278.40672979992814,278.37322989990935,278.87388870003633,278.37322989990935,278.87388870003633,278.37322989990935,278.87388870003633,278.37322989990935,278.87388870003633,278.37322989990935,278.87388870003633,278.37322989990935,278.87388870003633,278.37322989990935,278.87388870003633,278.37322989990935,278.87388870003633,277.75533509999514,None,278.87388870003633,280.60995849990286,0.6400000000000003,280.6266772998497,None,281.37778529990464,None,,,,,,,[1.72933333],3.1600000000000024,0.7,11033,002,2024_Jan_12_1042,MFTM_A_new1021,2021.2.3,60.0282252208682,
,,,,,,,,stim/Instruction_adaptive.png,conditions/adaptive.xlsx,test,0.6,0.6,0.6,-0.6,-0.6,right,R,,,,,0,1,1,1,0,30,30,98,,,,,,,,,,,,,,,,,,,,,,,,,,,,,,,,,,,,,,,,,,,,281.87848459999077,None,right,1,1.9605061998590827,282.37915190006606,283.6309436999727,282.37915190006606,283.13023860007524,282.37915190006606,283.13023860007524,282.37915190006606,283.13023860007524,282.37915190006606,283.13023860007524,282.37915190006606,283.13023860007524,283.0969123998657,283.59765090001747,283.0969123998657,283.59765090001747,283.0969123998657,283.59765090001747,283.0969123998657,283.59765090001747,283.0969123998657,283.59765090001747,283.0969123998657,283.59765090001747,283.0969123998657,283.59765090001747,283.0969123998657,283.59765090001747,282.37915190006606,None,283.59765090001747,285.3339762999676,0.7400000000000004,285.3503111000173,None,286.1014803999569,None,,,,,,,[1.73032258],3.230000000000002,0.7096774193548387,11033,002,2024_Jan_12_1042,MFTM_A_new1021,2021.2.3,60.0282252208682,
,,,,,,,,stim/Instruction_adaptive.png,conditions/adaptive.xlsx,test,0.6,0.6,0.6,-0.6,-0.6,right,R,,,,,0,1,1,1,0,31,31,92,,,,,,,,,,,,,,,,,,,,,,,,,,,,,,,,,,,,,,,,,,,,286.6019389000721,None,right,1,1.748971899971366,287.102748000063,288.3046998998616,287.102748000063,287.8037200998515,287.102748000063,287.8037200998515,287.102748000063,287.8037200998515,287.102748000063,287.8037200998515,287.102748000063,287.8037200998515,287.78713819989935,288.28798919986,287.78713819989935,288.28798919986,287.78713819989935,288.28798919986,287.78713819989935,288.28798919986,287.78713819989935,288.28798919986,287.78713819989935,288.28798919986,287.78713819989935,288.28798919986,287.78713819989935,288.28798919986,287.102748000063,None,288.28798919986,290.0239985000808,0.7000000000000004,290.04045219998807,None,290.791555600008,None,,,,,,,[1.7325],3.3000000000000025,0.71875,11033,002,2024_Jan_12_1042,MFTM_A_new1021,2021.2.3,60.0282252208682,
,,,,,,,,stim/Instruction_adaptive.png,conditions/adaptive.xlsx,test,0.6,0.6,0.6,-0.6,-0.6,right,R,,,,,0,1,1,1,0,32,32,22,,,,,,,,,,,,,,,,,,,,,,,,,,,,,,,,,,,,,,,,,,,,291.2920492000412,None,left,0,1.6503820000216365,291.79322610003874,292.978049099911,291.79322610003874,292.4773955999408,291.79322610003874,292.4773955999408,291.79322610003874,292.4773955999408,291.79322610003874,292.4773955999408,291.79322610003874,292.4773955999408,292.4439499999862,292.94500289997086,292.4439499999862,292.94500289997086,292.4439499999862,292.94500289997086,292.4439499999862,292.94500289997086,292.4439499999862,292.94500289997086,292.4439499999862,292.94500289997086,292.4439499999862,292.94500289997086,292.4439499999862,292.94500289997086,291.79322610003874,None,292.94500289997086,294.6807440998964,0.6700000000000004,294.71399499988183,None,295.46520269988105,None,,,,,,,[1.73545455],3.110000000000002,0.696969696969697,11033,002,2024_Jan_12_1042,MFTM_A_new1021,2021.2.3,60.0282252208682,
,,,,,,,,stim/Instruction_adaptive.png,conditions/adaptive.xlsx,test,0.6,0.6,0.6,-0.6,-0.6,right,R,,,,,0,1,1,1,0,33,33,94,,,,,,,,,,,,,,,,,,,,,,,,,,,,,,,,,,,,,,,,,,,,295.9659601999447,None,left,0,1.8731368000153452,296.46666330005974,297.73517429991625,296.46666330005974,297.2344931999687,296.46666330005974,297.2344931999687,296.46666330005974,297.2344931999687,296.46666330005974,297.2344931999687,296.46666330005974,297.2344931999687,297.2011376998853,297.701997899916,297.2011376998853,297.701997899916,297.2011376998853,297.701997899916,297.2011376998853,297.701997899916,297.2011376998853,297.701997899916,297.2011376998853,297.701997899916,297.2011376998853,297.701997899916,297.2011376998853,297.701997899916,296.46666330005974,None,297.701997899916,299.43777249986306,0.7600000000000005,299.4712143999059,None,300.22235469985753,None,,,,,,,[1.73558824],2.910000000000002,0.6764705882352942,11033,002,2024_Jan_12_1042,MFTM_A_new1021,2021.2.3,60.0282252208682,
,,,,,,,,stim/Instruction_adaptive.png,conditions/adaptive.xlsx,test,0.6,0.6,0.6,-0.6,-0.6,right,R,,,,,0,1,1,1,0,34,34,74,,,,,,,,,,,,,,,,,,,,,,,,,,,,,,,,,,,,,,,,,,,,300.72297229990363,None,right,1,1.9720402001403272,301.2236556999851,302.60917229996994,301.2236556999851,302.10832650004886,301.2236556999851,302.10832650004886,301.2236556999851,302.10832650004886,301.2236556999851,302.10832650004886,301.2236556999851,302.10832650004886,302.09156199987046,302.59245470003225,302.09156199987046,302.59245470003225,302.09156199987046,302.59245470003225,302.09156199987046,302.59245470003225,302.09156199987046,302.59245470003225,302.09156199987046,302.59245470003225,302.09156199987046,302.59245470003225,302.09156199987046,302.59245470003225,301.2236556999851,None,302.59245470003225,None,0.8800000000000006,304.22823580005206,None,304.97940990002826,None,,,,,,,[[1.62]],2.980000000000002,0.6857142857142857,11033,002,2024_Jan_12_1042,MFTM_A_new1021,2021.2.3,60.0282252208682,
,,,,,,,,stim/Instruction_adaptive.png,conditions/adaptive.xlsx,test,0.6,0.6,0.6,-0.6,-0.6,right,R,,,,,0,1,1,1,0,35,35,16,,,,,,,,,,,,,,,,,,,,,,,,,,,,,,,,,,,,,,,,,,,,305.4800207000226,None,left,0,1.526853899937123,305.98083289992064,307.31613439996727,305.98083289992064,306.81547809997573,305.98083289992064,306.81547809997573,305.98083289992064,306.81547809997573,305.98083289992064,306.81547809997573,305.98083289992064,306.81547809997573,306.7986939998809,307.29936249996535,306.7986939998809,307.29936249996535,306.7986939998809,307.29936249996535,306.7986939998809,307.29936249996535,306.7986939998809,307.29936249996535,306.7986939998809,307.29936249996535,306.7986939998809,307.29936249996535,306.7986939998809,307.29936249996535,305.98083289992064,None,307.29936249996535,308.96859359997325,0.8300000000000005,308.9853048999794,None,309.7364664999768,None,,,,,,,[[1.67]],2.7700000000000022,0.6666666666666666,11033,002,2024_Jan_12_1042,MFTM_A_new1021,2021.2.3,60.0282252208682,
,,,,,,,,stim/Instruction_adaptive.png,conditions/adaptive.xlsx,test,-0.6,-0.6,-0.6,0.6,0.6,left,L,,,,,0,1,1,1,0,36,36,47,,,,,,,,,,,,,,,,,,,,,,,,,,,,,,,,,,,,,,,,,,,,310.2369460000191,None,right,0,1.6019983000587672,310.73803559993394,312.20686580007896,310.73803559993394,311.7058748998679,310.73803559993394,311.7058748998679,310.73803559993394,311.7058748998679,310.73803559993394,311.7058748998679,310.73803559993394,311.7058748998679,311.6727439998649,312.173405099893,311.6727439998649,312.173405099893,311.6727439998649,312.173405099893,311.6727439998649,312.173405099893,311.6727439998649,312.173405099893,311.6727439998649,312.173405099893,311.6727439998649,312.173405099893,311.6727439998649,312.173405099893,310.73803559993394,None,312.173405099893,313.7255350998603,0.9600000000000006,313.7422670999076,None,314.4934008999262,None,,,,,,,[[1.54]],2.530000000000002,0.6486486486486487,11033,002,2024_Jan_12_1042,MFTM_A_new1021,2021.2.3,60.0282252208682,
,,,,,,,,stim/Instruction_adaptive.png,conditions/adaptive.xlsx,test,0.6,0.6,0.6,-0.6,-0.6,right,R,,,,,0,1,1,1,0,37,37,26,,,,,,,,,,,,,,,,,,,,,,,,,,,,,,,,,,,,,,,,,,,,314.9940642998554,None,right,1,1.2207549000158906,315.4950192000251,317.1472284998745,315.4950192000251,316.6465060999617,315.4950192000251,316.6465060999617,315.4950192000251,316.6465060999617,315.4950192000251,316.6465060999617,315.4950192000251,316.6465060999617,316.6133582999464,317.11377270007506,316.6133582999464,317.11377270007506,316.6133582999464,317.11377270007506,316.6133582999464,317.11377270007506,316.6133582999464,317.11377270007506,316.6133582999464,317.11377270007506,316.6133582999464,317.11377270007506,316.6133582999464,317.11377270007506,315.4950192000251,None,317.11377270007506,318.4826191000175,1.1400000000000008,318.4993054999504,None,319.2504237999674,None,,,,,,,[[1.36]],2.620000000000002,0.6578947368421053,11033,002,2024_Jan_12_1042,MFTM_A_new1021,2021.2.3,60.0282252208682,
,,,,,,,,stim/Instruction_adaptive.png,conditions/adaptive.xlsx,test,-0.6,-0.6,-0.6,0.6,0.6,left,L,,,,,0,1,1,1,0,38,38,67,,,,,,,,,,,,,,,,,,,,,,,,,,,,,,,,,,,,,,,,,,,,319.7511354999151,None,left,1,1.4081538999453187,320.2517996998504,321.8376388999168,320.2517996998504,321.3370077998843,320.2517996998504,321.3370077998843,320.2517996998504,321.3370077998843,320.2517996998504,321.3370077998843,320.2517996998504,321.3370077998843,321.30362419993617,321.80371690005995,321.30362419993617,321.80371690005995,321.30362419993617,321.80371690005995,321.30362419993617,321.80371690005995,321.30362419993617,321.80371690005995,321.30362419993617,321.80371690005995,321.30362419993617,321.80371690005995,321.30362419993617,321.80371690005995,320.2517996998504,None,321.80371690005995,323.23964749998413,1.0700000000000007,323.25635450007394,None,324.00749149988405,None,,,,,,,[[1.43]],2.700000000000002,0.6666666666666666,11033,002,2024_Jan_12_1042,MFTM_A_new1021,2021.2.3,60.0282252208682,
,,,,,,,,stim/Instruction_adaptive.png,conditions/adaptive.xlsx,test,-0.6,-0.6,-0.6,0.6,0.6,left,L,,,,,0,1,1,1,0,39,39,59,,,,,,,,,,,,,,,,,,,,,,,,,,,,,,,,,,,,,,,,,,,,324.5082622000482,None,left,1,1.4026294997893274,325.00911820004694,326.5280462000519,325.00911820004694,326.0270666000433,325.00911820004694,326.0270666000433,325.00911820004694,326.0270666000433,325.00911820004694,326.0270666000433,325.00911820004694,326.0270666000433,325.99388609989546,326.49465789995156,325.99388609989546,326.49465789995156,325.99388609989546,326.49465789995156,325.99388609989546,326.49465789995156,325.99388609989546,326.49465789995156,325.99388609989546,326.49465789995156,325.99388609989546,326.49465789995156,325.99388609989546,326.49465789995156,325.00911820004694,None,326.49465789995156,327.99680039985105,1.0100000000000007,328.0133102000691,None,328.76445279992186,None,,,,,,,[[1.49]],2.7700000000000022,0.675,11033,002,2024_Jan_12_1042,MFTM_A_new1021,2021.2.3,60.0282252208682,
,,,,,,,,stim/Instruction_adaptive.png,conditions/adaptive.xlsx,test,0.6,0.6,0.6,-0.6,-0.6,right,R,,,,,0,1,1,1,0,40,40,82,,,,,,,,,,,,,,,,,,,,,,,,,,,,,,,,,,,,,,,,,,,,329.26547920005396,None,right,1,2.2537688000593334,329.76615729997866,331.2349519999698,329.76615729997866,330.7343593998812,329.76615729997866,330.7343593998812,329.76615729997866,330.7343593998812,329.76615729997866,330.7343593998812,329.76615729997866,330.7343593998812,330.7008855000604,331.20155459991656,330.7008855000604,331.20155459991656,330.7008855000604,331.20155459991656,330.7008855000604,331.20155459991656,330.7008855000604,331.20155459991656,330.7008855000604,331.20155459991656,330.7008855000604,331.20155459991656,330.7008855000604,331.20155459991656,329.76615729997866,None,331.20155459991656,332.7539508000482,0.9600000000000006,332.7704255999997,None,333.5216133000795,None,,,,,,,[[1.54]],2.840000000000002,0.6829268292682927,11033,002,2024_Jan_12_1042,MFTM_A_new1021,2021.2.3,60.0282252208682,
,,,,,,,,stim/Instruction_adaptive.png,conditions/adaptive.xlsx,test,-0.6,-0.6,-0.6,0.6,0.6,left,L,,,,,0,1,1,1,0,41,41,91,,,,,,,,,,,,,,,,,,,,,,,,,,,,,,,,,,,,,,,,,,,,334.0224995999597,None,right,0,1.7047755001112819,334.522989399964,335.95862039993517,334.522989399964,335.4579360000789,334.522989399964,335.4579360000789,334.522989399964,335.4579360000789,334.522989399964,335.4579360000789,334.522989399964,335.4579360000789,335.42454209993593,335.925127599854,335.42454209993593,335.925127599854,335.42454209993593,335.925127599854,335.42454209993593,335.925127599854,335.42454209993593,335.925127599854,335.42454209993593,335.925127599854,335.42454209993593,335.925127599854,335.42454209993593,335.925127599854,334.522989399964,None,335.925127599854,337.5109993999358,0.9200000000000006,337.52769519994035,None,338.27862189989537,None,,,,,,,[[1.58]],2.650000000000002,0.6666666666666666,11033,002,2024_Jan_12_1042,MFTM_A_new1021,2021.2.3,60.0282252208682,
,,,,,,,,stim/Instruction_adaptive.png,conditions/adaptive.xlsx,test,0.6,0.6,0.6,-0.6,-0.6,right,R,,,,,0,1,1,1,0,42,42,70,,,,,,,,,,,,,,,,,,,,,,,,,,,,,,,,,,,,,,,,,,,,338.77927240007557,None,right,1,1.6356409001164138,339.28020769986324,340.83257619990036,339.28020769986324,340.3315530999098,339.28020769986324,340.3315530999098,339.28020769986324,340.3315530999098,339.28020769986324,340.3315530999098,339.28020769986324,340.3315530999098,340.31481879996136,340.815880500013,340.31481879996136,340.815880500013,340.31481879996136,340.815880500013,340.31481879996136,340.815880500013,340.31481879996136,340.815880500013,340.31481879996136,340.815880500013,340.31481879996136,340.815880500013,340.31481879996136,340.815880500013,339.28020769986324,None,340.815880500013,342.26781619992107,1.0500000000000007,342.28441149997525,None,343.03561659995466,None,,,,,,,[[1.45]],2.720000000000002,0.6744186046511628,11033,002,2024_Jan_12_1042,MFTM_A_new1021,2021.2.3,60.0282252208682,
,,,,,,,,stim/Instruction_adaptive.png,conditions/adaptive.xlsx,test,-0.6,-0.6,-0.6,0.6,0.6,left,L,,,,,0,1,1,1,0,43,43,45,,,,,,,,,,,,,,,,,,,,,,,,,,,,,,,,,,,,,,,,,,,,343.536575099919,None,left,1,1.726592600112781,344.0372202000581,345.5395519998856,344.0372202000581,345.03880600002594,344.0372202000581,345.03880600002594,344.0372202000581,345.03880600002594,344.0372202000581,345.03880600002594,344.0372202000581,345.03880600002594,345.0221189998556,345.5227749000769,345.0221189998556,345.5227749000769,345.0221189998556,345.5227749000769,345.0221189998556,345.5227749000769,345.0221189998556,345.5227749000769,345.0221189998556,345.5227749000769,345.0221189998556,345.5227749000769,345.0221189998556,345.5227749000769,344.0372202000581,None,345.5227749000769,347.0250456999056,1.0000000000000007,347.041721199872,None,347.7930067998823,None,,,,,,,[[1.5]],2.780000000000002,0.6818181818181818,11033,002,2024_Jan_12_1042,MFTM_A_new1021,2021.2.3,60.0282252208682,
,,,,,,,,stim/Instruction_adaptive.png,conditions/adaptive.xlsx,test,0.6,0.6,0.6,-0.6,-0.6,right,R,,,,,0,1,1,1,0,44,44,88,,,,,,,,,,,,,,,,,,,,,,,,,,,,,,,,,,,,,,,,,,,,348.29360709991306,None,right,1,1.1457245000638068,348.79412949993275,350.263143699849,348.79412949993275,349.7624196000397,348.79412949993275,349.7624196000397,348.79412949993275,349.7624196000397,348.79412949993275,349.7624196000397,348.79412949993275,349.7624196000397,349.7289805000182,350.22967120003887,349.7289805000182,350.22967120003887,349.7289805000182,350.22967120003887,349.7289805000182,350.22967120003887,349.7289805000182,350.22967120003887,349.7289805000182,350.22967120003887,349.7289805000182,350.22967120003887,349.7289805000182,350.22967120003887,348.79412949993275,None,350.22967120003887,351.7820726998616,0.9600000000000006,351.79877149988897,None,352.5498939999379,None,,,,,,,[[1.54]],2.840000000000002,0.6888888888888889,11033,002,2024_Jan_12_1042,MFTM_A_new1021,2021.2.3,60.0282252208682,
,,,,,,,,stim/Instruction_adaptive.png,conditions/adaptive.xlsx,test,-0.6,-0.6,-0.6,0.6,0.6,left,L,,,,,0,1,1,1,0,45,45,17,,,,,,,,,,,,,,,,,,,,,,,,,,,,,,,,,,,,,,,,,,,,353.05056690005586,None,left,1,1.3725548998918384,353.5513386998791,354.98654219997115,353.5513386998791,354.48610599990934,353.5513386998791,354.48610599990934,353.5513386998791,354.48610599990934,353.5513386998791,354.48610599990934,353.5513386998791,354.48610599990934,354.45266130007803,354.9535639998503,354.45266130007803,354.9535639998503,354.45266130007803,354.9535639998503,354.45266130007803,354.9535639998503,354.45266130007803,354.9535639998503,354.45266130007803,354.9535639998503,354.45266130007803,354.9535639998503,354.45266130007803,354.9535639998503,353.5513386998791,None,354.9535639998503,356.53861839999445,0.9200000000000006,356.55561719997786,None,357.3067103000358,None,,,,,,,[[1.58]],2.8900000000000023,0.6956521739130435,11033,002,2024_Jan_12_1042,MFTM_A_new1021,2021.2.3,60.0282252208682,
,,,,,,,,stim/Instruction_adaptive.png,conditions/adaptive.xlsx,test,0.6,0.6,0.6,-0.6,-0.6,right,R,,,,,0,1,1,1,0,46,46,6,,,,,,,,,,,,,,,,,,,,,,,,,,,,,,,,,,,,,,,,,,,,357.80765159986913,None,right,1,2.6636435000691563,358.3083083999809,359.7105928999372,358.3083083999809,359.2095933998935,358.3083083999809,359.2095933998935,358.3083083999809,359.2095933998935,358.3083083999809,359.2095933998935,358.3083083999809,359.2095933998935,359.176458099857,359.6771104000509,359.176458099857,359.6771104000509,359.176458099857,359.6771104000509,359.176458099857,359.6771104000509,359.176458099857,359.6771104000509,359.176458099857,359.6771104000509,359.176458099857,359.6771104000509,359.176458099857,359.6771104000509,358.3083083999809,None,359.6771104000509,361.2961657999549,0.8900000000000006,361.3128680998925,None,362.0640495000407,None,,,,,,,[[1.61]],2.940000000000002,0.7021276595744681,11033,002,2024_Jan_12_1042,MFTM_A_new1021,2021.2.3,60.0282252208682,
,,,,,,,,stim/Instruction_adaptive.png,conditions/adaptive.xlsx,test,-0.6,-0.6,-0.6,0.6,0.6,left,L,,,,,0,1,1,1,0,47,47,55,,,,,,,,,,,,,,,,,,,,,,,,,,,,,,,,,,,,,,,,,,,,362.5647171000019,None,left,1,1.4263157998211682,363.06543539999984,364.43420649995096,363.06543539999984,363.93335999990813,363.06543539999984,363.93335999990813,363.06543539999984,363.93335999990813,363.06543539999984,363.93335999990813,363.06543539999984,363.93335999990813,363.89984899992123,364.40077680000104,363.89984899992123,364.40077680000104,363.89984899992123,364.40077680000104,363.89984899992123,364.40077680000104,363.89984899992123,364.40077680000104,363.89984899992123,364.40077680000104,363.89984899992123,364.40077680000104,363.89984899992123,364.40077680000104,363.06543539999984,None,364.40077680000104,366.0532368000131,0.8600000000000005,366.0699493000284,None,366.8210924998857,None,,,,,,,[[1.64]],2.990000000000002,0.7083333333333334,11033,002,2024_Jan_12_1042,MFTM_A_new1021,2021.2.3,60.0282252208682,
,,,,,,,,stim/Instruction_adaptive.png,conditions/adaptive.xlsx,test,-0.6,-0.6,-0.6,0.6,0.6,left,L,,,,,0,1,1,1,0,48,48,3,,,,,,,,,,,,,,,,,,,,,,,,,,,,,,,,,,,,,,,,,,,,367.32182849990204,None,left,1,1.0534222000278533,367.8223643999081,369.15778489992954,367.8223643999081,368.65713960002176,367.8223643999081,368.65713960002176,367.8223643999081,368.65713960002176,367.8223643999081,368.65713960002176,367.8223643999081,368.65713960002176,368.6404663999565,369.14105199999176,368.6404663999565,369.14105199999176,368.6404663999565,369.14105199999176,368.6404663999565,369.14105199999176,368.6404663999565,369.14105199999176,368.6404663999565,369.14105199999176,368.6404663999565,369.14105199999176,368.6404663999565,369.14105199999176,367.8223643999081,None,369.14105199999176,370.81023010006174,0.8300000000000005,370.8267864000518,None,371.5780795000028,None,,,,,,,[[1.67]],3.0400000000000023,0.7142857142857143,11033,002,2024_Jan_12_1042,MFTM_A_new1021,2021.2.3,60.0282252208682,
,,,,,,,,stim/Instruction_adaptive.png,conditions/adaptive.xlsx,test,-0.6,-0.6,-0.6,0.6,0.6,left,L,,,,,0,1,1,1,0,49,49,7,,,,,,,,,,,,,,,,,,,,,,,,,,,,,,,,,,,,,,,,,,,,372.0787925000768,None,left,1,2.3282735999673605,372.5794319000561,373.8814020999707,372.5794319000561,373.38071299996227,372.5794319000561,373.38071299996227,372.5794319000561,373.38071299996227,372.5794319000561,373.38071299996227,372.5794319000561,373.38071299996227,373.3643837000709,373.86467639985494,373.3643837000709,373.86467639985494,373.3643837000709,373.86467639985494,373.3643837000709,373.86467639985494,373.3643837000709,373.86467639985494,373.3643837000709,373.86467639985494,373.3643837000709,373.86467639985494,373.3643837000709,373.86467639985494,372.5794319000561,None,373.86467639985494,375.55054620001465,0.8000000000000005,375.56723159994,None,376.31835739989765,None,,,,,,,[1.6786],3.0800000000000023,0.72,11033,002,2024_Jan_12_1042,MFTM_A_new1021,2021.2.3,60.0282252208682,
,,,,,,,,stim/Instruction_adaptive.png,conditions/adaptive.xlsx,test,-0.6,-0.6,-0.6,0.6,0.6,left,L,,,,,0,1,1,1,0,50,50,81,,,,,,,,,,,,,,,,,,,,,,,,,,,,,,,,,,,,,,,,,,,,376.81910720001906,None,left,1,1.1080124999862164,377.3200211999938,378.6052115999628,377.3200211999938,378.1042966998648,377.3200211999938,378.1042966998648,377.3200211999938,378.1042966998648,377.3200211999938,378.1042966998648,377.3200211999938,378.1042966998648,378.08759859995916,378.5884038999211,378.08759859995916,378.5884038999211,378.08759859995916,378.5884038999211,378.08759859995916,378.5884038999211,378.08759859995916,378.5884038999211,378.08759859995916,378.5884038999211,378.08759859995916,378.5884038999211,378.08759859995916,378.5884038999211,377.3200211999938,None,378.5884038999211,380.2741566998884,0.7800000000000005,380.2908552000299,None,381.04193259985186,None,,,,,,,[1.67941176],3.1200000000000023,0.7254901960784313,11033,002,2024_Jan_12_1042,MFTM_A_new1021,2021.2.3,60.0282252208682,
,,,,,,,,stim/Instruction_adaptive.png,conditions/adaptive.xlsx,test,0.6,0.6,0.6,-0.6,-0.6,right,R,,,,,0,1,1,1,0,51,51,96,,,,,,,,,,,,,,,,,,,,,,,,,,,,,,,,,,,,,,,,,,,,381.5429422999732,None,right,1,1.3044741000048816,382.0433606998995,383.3121412000619,382.0433606998995,382.81100760004483,382.0433606998995,382.81100760004483,382.0433606998995,382.81100760004483,382.0433606998995,382.81100760004483,382.0433606998995,382.81100760004483,382.7778326999396,383.27867599995807,382.7778326999396,383.27867599995807,382.7778326999396,383.27867599995807,382.7778326999396,383.27867599995807,382.7778326999396,383.27867599995807,382.7778326999396,383.27867599995807,382.7778326999396,383.27867599995807,382.7778326999396,383.27867599995807,382.0433606998995,None,383.27867599995807,384.96470030001365,0.7600000000000005,384.99802320008166,None,385.7491460000165,None,,,,,,,[1.68057692],3.1600000000000024,0.7307692307692307,11033,002,2024_Jan_12_1042,MFTM_A_new1021,2021.2.3,60.0282252208682,
,,,,,,,,stim/Instruction_adaptive.png,conditions/adaptive.xlsx,test,0.6,0.6,0.6,-0.6,-0.6,right,R,,,,,0,1,1,1,0,52,52,40,,,,,,,,,,,,,,,,,,,,,,,,,,,,,,,,,,,,,,,,,,,,386.24985879985616,None,right,1,1.4373391000553966,386.75052200001664,388.00229789991863,386.75052200001664,387.50162389990874,386.75052200001664,387.50162389990874,386.75052200001664,387.50162389990874,386.75052200001664,387.50162389990874,386.75052200001664,387.50162389990874,387.46808909997344,387.9691037000157,387.46808909997344,387.9691037000157,387.46808909997344,387.9691037000157,387.46808909997344,387.9691037000157,387.46808909997344,387.9691037000157,387.46808909997344,387.9691037000157,387.46808909997344,387.9691037000157,387.46808909997344,387.9691037000157,386.75052200001664,None,387.9691037000157,389.6547628999688,0.7400000000000004,389.6881708998699,None,390.43935110000893,None,,,,,,,[1.68207547],3.2000000000000024,0.7358490566037735,11033,002,2024_Jan_12_1042,MFTM_A_new1021,2021.2.3,60.0282252208682,
,,,,,,,,stim/Instruction_adaptive.png,conditions/adaptive.xlsx,test,0.6,0.6,0.6,-0.6,-0.6,right,R,,,,,0,1,1,1,0,53,53,30,,,,,,,,,,,,,,,,,,,,,,,,,,,,,,,,,,,,,,,,,,,,390.93989160005003,None,left,0,2.0753154000267386,391.4409401998855,392.6760593999643,391.4409401998855,392.17533820006065,391.4409401998855,392.17533820006065,391.4409401998855,392.17533820006065,391.4409401998855,392.17533820006065,391.4409401998855,392.17533820006065,392.1419557000045,392.64268020004965,392.1419557000045,392.64268020004965,392.1419557000045,392.64268020004965,392.1419557000045,392.64268020004965,392.1419557000045,392.64268020004965,392.1419557000045,392.64268020004965,392.1419557000045,392.64268020004965,392.1419557000045,392.64268020004965,391.4409401998855,None,392.64268020004965,394.32851790008135,0.7200000000000004,394.3457448000554,None,395.0963633998763,None,,,,,,,[1.68388889],3.0900000000000025,0.7222222222222222,11033,002,2024_Jan_12_1042,MFTM_A_new1021,2021.2.3,60.0282252208682,
,,,,,,,,stim/Instruction_adaptive.png,conditions/adaptive.xlsx,test,-0.6,-0.6,-0.6,0.6,0.6,left,L,,,,,0,1,1,1,0,54,54,49,,,,,,,,,,,,,,,,,,,,,,,,,,,,,,,,,,,,,,,,,,,,395.5970091999043,None,left,1,1.4981561999302357,396.0976312998682,397.3828801000491,396.0976312998682,396.8822510999162,396.0976312998682,396.8822510999162,396.0976312998682,396.8822510999162,396.0976312998682,396.8822510999162,396.0976312998682,396.8822510999162,396.8488364999648,397.3494700000156,396.8488364999648,397.3494700000156,396.8488364999648,397.3494700000156,396.8488364999648,397.3494700000156,396.8488364999648,397.3494700000156,396.8488364999648,397.3494700000156,396.8488364999648,397.3494700000156,396.8488364999648,397.3494700000156,396.0976312998682,None,397.3494700000156,399.0352487000637,0.7700000000000005,399.05199359986,None,399.80304779997095,None,,,,,,,[1.68472727],3.1300000000000026,0.7272727272727273,11033,002,2024_Jan_12_1042,MFTM_A_new1021,2021.2.3,60.0282252208682,
,,,,,,,,stim/Instruction_adaptive.png,conditions/adaptive.xlsx,test,0.6,0.6,0.6,-0.6,-0.6,right,R,,,,,0,1,1,1,0,55,55,60,,,,,,,,,,,,,,,,,,,,,,,,,,,,,,,,,,,,,,,,,,,,400.30385300004855,None,left,0,2.086998400045559,400.80480249994434,402.05664510000497,400.80480249994434,401.5557254999876,400.80480249994434,401.5557254999876,400.80480249994434,401.5557254999876,400.80480249994434,401.5557254999876,400.80480249994434,401.5557254999876,401.53923669992946,402.04042740003206,401.53923669992946,402.04042740003206,401.53923669992946,402.04042740003206,401.53923669992946,402.04042740003206,401.53923669992946,402.04042740003206,401.53923669992946,402.04042740003206,401.53923669992946,402.04042740003206,401.53923669992946,402.04042740003206,400.80480249994434,None,402.04042740003206,403.72578669991344,0.7500000000000004,403.74240730004385,None,404.49335579993203,None,,,,,,,[1.68589286],3.0200000000000022,0.7142857142857143,11033,002,2024_Jan_12_1042,MFTM_A_new1021,2021.2.3,60.0282252208682,
,,,,,,,,stim/Instruction_adaptive.png,conditions/adaptive.xlsx,test,-0.6,-0.6,-0.6,0.6,0.6,left,L,,,,,0,1,1,1,0,56,56,53,,,,,,,,,,,,,,,,,,,,,,,,,,,,,,,,,,,,,,,,,,,,404.994338999968,None,right,0,1.3569620000198483,405.4950468998868,406.81366589991376,405.4950468998868,406.3129743000027,405.4950468998868,406.3129743000027,405.4950468998868,406.3129743000027,405.4950468998868,406.3129743000027,405.4950468998868,406.3129743000027,406.29630769998766,406.796707799891,406.29630769998766,406.796707799891,406.29630769998766,406.796707799891,406.29630769998766,406.796707799891,406.29630769998766,406.796707799891,406.29630769998766,406.796707799891,406.29630769998766,406.796707799891,406.29630769998766,406.796707799891,405.4950468998868,None,406.796707799891,408.4828202999197,0.8100000000000005,408.4995442000218,None,409.250661799917,None,,,,,,,[1.68596491],2.900000000000002,0.7017543859649122,11033,002,2024_Jan_12_1042,MFTM_A_new1021,2021.2.3,60.0282252208682,
,,,,,,,,stim/Instruction_adaptive.png,conditions/adaptive.xlsx,test,-0.6,-0.6,-0.6,0.6,0.6,left,L,,,,,0,1,1,1,0,57,57,69,,,,,,,,,,,,,,,,,,,,,,,,,,,,,,,,,,,,,,,,,,,,409.75136359990574,None,left,1,0.9763170999940485,410.2515553999692,411.63766029989347,410.2515553999692,411.1365980999544,410.2515553999692,411.1365980999544,410.2515553999692,411.1365980999544,410.2515553999692,411.1365980999544,410.2515553999692,411.1365980999544,411.1198724999558,411.6212504999712,411.1198724999558,411.6212504999712,411.1198724999558,411.6212504999712,411.1198724999558,411.6212504999712,411.1198724999558,411.6212504999712,411.1198724999558,411.6212504999712,411.1198724999558,411.6212504999712,411.1198724999558,411.6212504999712,410.2515553999692,None,411.6212504999712,None,0.8800000000000006,413.2565774999093,None,414.0077329999767,None,,,,,,,[[1.62]],2.940000000000002,0.7068965517241379,11033,002,2024_Jan_12_1042,MFTM_A_new1021,2021.2.3,60.0282252208682,
,,,,,,,,stim/Instruction_adaptive.png,conditions/adaptive.xlsx,test,-0.6,-0.6,-0.6,0.6,0.6,left,L,,,,,0,1,1,1,0,58,58,71,,,,,,,,,,,,,,,,,,,,,,,,,,,,,,,,,,,,,,,,,,,,414.50816209986806,None,left,1,1.882663399912417,415.0091059000697,416.37758089997806,415.0091059000697,415.87702909996733,415.0091059000697,415.87702909996733,415.0091059000697,415.87702909996733,415.0091059000697,415.87702909996733,415.0091059000697,415.87702909996733,415.84370409999974,416.34446709998883,415.84370409999974,416.34446709998883,415.84370409999974,416.34446709998883,415.84370409999974,416.34446709998883,415.84370409999974,416.34446709998883,415.84370409999974,416.34446709998883,415.84370409999974,416.34446709998883,415.84370409999974,416.34446709998883,415.0091059000697,None,416.34446709998883,417.99687190004624,0.8600000000000005,418.0135969000403,None,418.7646530000493,None,,,,,,,[[1.64]],2.980000000000002,0.711864406779661,11033,002,2024_Jan_12_1042,MFTM_A_new1021,2021.2.3,60.0282252208682,
,,,,,,,,stim/Instruction_adaptive.png,conditions/adaptive.xlsx,test,0.6,0.6,0.6,-0.6,-0.6,right,R,,,,,0,1,1,1,0,59,59,28,,,,,,,,,,,,,,,,,,,,,,,,,,,,,,,,,,,,,,,,,,,,419.2654641000554,None,right,1,1.1498733998741955,419.7660842000041,421.10149620007724,419.7660842000041,420.60083670006134,419.7660842000041,420.60083670006134,419.7660842000041,420.60083670006134,419.7660842000041,420.60083670006134,419.7660842000041,420.60083670006134,420.5842060998548,421.0846336998511,420.5842060998548,421.0846336998511,420.5842060998548,421.0846336998511,420.5842060998548,421.0846336998511,420.5842060998548,421.0846336998511,420.5842060998548,421.0846336998511,420.5842060998548,421.0846336998511,420.5842060998548,421.0846336998511,419.7660842000041,None,421.0846336998511,422.75392469996586,0.8300000000000005,422.7707098000683,None,423.52186189987697,None,,,,,,,[[1.67]],3.0200000000000022,0.7166666666666667,11033,002,2024_Jan_12_1042,MFTM_A_new1021,2021.2.3,60.0282252208682,
,,,,,,,,stim/Instruction_adaptive.png,conditions/adaptive.xlsx,test,-0.6,-0.6,-0.6,0.6,0.6,left,L,,,,,0,1,1,1,0,60,60,15,,,,,,,,,,,,,,,,,,,,,,,,,,,,,,,,,,,,,,,,,,,,424.0224884999916,None,left,1,1.3608657999429852,424.52301230002195,425.8417916998733,424.52301230002195,425.3410682999529,424.52301230002195,425.3410682999529,424.52301230002195,425.3410682999529,424.52301230002195,425.3410682999529,424.52301230002195,425.3410682999529,425.32443080004305,425.8250436000526,425.32443080004305,425.8250436000526,425.32443080004305,425.8250436000526,425.32443080004305,425.8250436000526,425.32443080004305,425.8250436000526,425.32443080004305,425.8250436000526,425.32443080004305,425.8250436000526,425.32443080004305,425.8250436000526,424.52301230002195,None,425.8250436000526,427.5109574000817,0.8100000000000005,427.52768719987944,None,428.2788543999195,None,,,,,,,[1.68393443],3.0500000000000025,0.7213114754098361,11033,002,2024_Jan_12_1042,MFTM_A_new1021,2021.2.3,60.0282252208682,
,,,,,,,,stim/Instruction_adaptive.png,conditions/adaptive.xlsx,test,0.6,0.6,0.6,-0.6,-0.6,right,R,,,,,0,1,1,1,0,61,61,54,,,,,,,,,,,,,,,,,,,,,,,,,,,,,,,,,,,,,,,,,,,,428.7793280000333,None,right,1,1.0918674999848008,429.2801524999086,430.5821819000412,429.2801524999086,430.0814610000234,429.2801524999086,430.0814610000234,429.2801524999086,430.0814610000234,429.2801524999086,430.0814610000234,429.2801524999086,430.0814610000234,430.0480134000536,430.54905979987234,430.0480134000536,430.54905979987234,430.0480134000536,430.54905979987234,430.0480134000536,430.54905979987234,430.0480134000536,430.54905979987234,430.0480134000536,430.54905979987234,430.0480134000536,430.54905979987234,430.0480134000536,430.54905979987234,429.2801524999086,None,430.54905979987234,432.2345328000374,0.7900000000000005,432.2679474998731,None,433.018969199853,None,,,,,,,[1.68435484],3.0900000000000025,0.7258064516129032,11033,002,2024_Jan_12_1042,MFTM_A_new1021,2021.2.3,60.0282252208682,
,,,,,,,,stim/Instruction_adaptive.png,conditions/adaptive.xlsx,test,0.6,0.6,0.6,-0.6,-0.6,right,R,,,,,0,1,1,1,0,62,62,84,,,,,,,,,,,,,,,,,,,,,,,,,,,,,,,,,,,,,,,,,,,,433.5197763000615,None,right,1,1.8391344000119716,434.0207012000028,435.3057088998612,434.0207012000028,434.8050333999563,434.0207012000028,434.8050333999563,434.0207012000028,434.8050333999563,434.0207012000028,434.8050333999563,434.0207012000028,434.8050333999563,434.77160139987245,435.27257089992054,434.77160139987245,435.27257089992054,434.77160139987245,435.27257089992054,434.77160139987245,435.27257089992054,434.77160139987245,435.27257089992054,434.77160139987245,435.27257089992054,434.77160139987245,435.27257089992054,434.77160139987245,435.27257089992054,434.0207012000028,None,435.27257089992054,436.9581134999171,0.7700000000000005,436.99162589991465,None,437.74273579986766,None,,,,,,,[1.68507937],3.1200000000000023,0.7301587301587301,11033,002,2024_Jan_12_1042,MFTM_A_new1021,2021.2.3,60.0282252208682,
,,,,,,,,stim/Instruction_adaptive.png,conditions/adaptive.xlsx,test,-0.6,-0.6,-0.6,0.6,0.6,left,L,,,,,0,1,1,1,0,63,63,19,,,,,,,,,,,,,,,,,,,,,,,,,,,,,,,,,,,,,,,,,,,,438.2436323000584,None,left,1,1.3874371000565588,438.7444130999502,440.0128492999356,438.7444130999502,439.5121462000534,438.7444130999502,439.5121462000534,438.7444130999502,439.5121462000534,438.7444130999502,439.5121462000534,438.7444130999502,439.5121462000534,439.49541369988583,439.99595310003497,439.49541369988583,439.99595310003497,439.49541369988583,439.99595310003497,439.49541369988583,439.99595310003497,439.49541369988583,439.99595310003497,439.49541369988583,439.99595310003497,439.49541369988583,439.99595310003497,439.49541369988583,439.99595310003497,438.7444130999502,None,439.97946959990077,441.6652673999779,0.7600000000000005,441.69867009995505,None,442.4497865999583,None,,,,,,,[1.6859375],3.150000000000002,0.734375,11033,002,2024_Jan_12_1042,MFTM_A_new1021,2021.2.3,60.0282252208682,
,,,,,,,,stim/Instruction_adaptive.png,conditions/adaptive.xlsx,test,0.6,0.6,0.6,-0.6,-0.6,right,R,,,,,0,1,1,1,0,64,64,68,,,,,,,,,,,,,,,,,,,,,,,,,,,,,,,,,,,,,,,,,,,,442.95053879986517,None,right,1,1.321177100064233,443.4506826000288,444.7030962998979,443.4506826000288,444.20233369991183,443.4506826000288,444.20233369991183,443.4506826000288,444.20233369991183,443.4506826000288,444.20233369991183,443.4506826000288,444.20233369991183,444.17017040005885,444.6695983998943,444.17017040005885,444.6695983998943,444.17017040005885,444.6695983998943,444.17017040005885,444.6695983998943,444.17017040005885,444.6695983998943,444.17017040005885,444.6695983998943,444.17017040005885,444.6695983998943,444.17017040005885,444.6695983998943,443.4506826000288,None,444.6695983998943,446.37225580005907,0.7400000000000004,446.3889816000592,None,447.14006179990247,None,,,,,,,[1.68707692],3.1800000000000024,0.7384615384615385,11033,002,2024_Jan_12_1042,MFTM_A_new1021,2021.2.3,60.0282252208682,
,,,,,,,,stim/Instruction_adaptive.png,conditions/adaptive.xlsx,test,0.6,0.6,0.6,-0.6,-0.6,right,R,,,,,0,1,1,1,0,65,65,18,,,,,,,,,,,,,,,,,,,,,,,,,,,,,,,,,,,,,,,,,,,,447.64076319988817,None,right,1,1.2066508999560028,448.1413918999024,449.3767156000249,448.1413918999024,448.87533509987406,448.1413918999024,448.87533509987406,448.1413918999024,448.87533509987406,448.1413918999024,448.87533509987406,448.1413918999024,448.87533509987406,448.8590683999937,449.3601108000148,448.8590683999937,449.3601108000148,448.8590683999937,449.3601108000148,448.8590683999937,449.3601108000148,448.8590683999937,449.3601108000148,448.8590683999937,449.3601108000148,448.8590683999937,449.3601108000148,448.8590683999937,449.3601108000148,448.1413918999024,None,449.3601108000148,None,0.7300000000000004,451.0626532000024,None,451.8135386998765,None,,,,,,,[1.68833333],3.2100000000000026,0.7424242424242424,11033,002,2024_Jan_12_1042,MFTM_A_new1021,2021.2.3,60.0282252208682,
,,,,,,,,stim/Instruction_adaptive.png,conditions/adaptive.xlsx,test,0.6,0.6,0.6,-0.6,-0.6,right,R,,,,,0,1,1,1,0,66,66,58,,,,,,,,,,,,,,,,,,,,,,,,,,,,,,,,,,,,,,,,,,,,452.3141264000442,None,right,1,1.964721400057897,452.81511219986714,454.0334183999803,452.81511219986714,453.53279389999807,452.81511219986714,453.53279389999807,452.81511219986714,453.53279389999807,452.81511219986714,453.53279389999807,452.81511219986714,453.53279389999807,453.5160068999976,454.0167050000746,453.5160068999976,454.0167050000746,453.5160068999976,454.0167050000746,453.5160068999976,454.0167050000746,453.5160068999976,454.0167050000746,453.5160068999976,454.0167050000746,453.5160068999976,454.0167050000746,453.5160068999976,454.0167050000746,452.81511219986714,None,454.0167050000746,None,0.7100000000000004,455.71935190004297,None,456.47045999998227,None,,,,,,,[1.68985075],3.2400000000000024,0.746268656716418,11033,002,2024_Jan_12_1042,MFTM_A_new1021,2021.2.3,60.0282252208682,
,,,,,,,,stim/Instruction_adaptive.png,conditions/adaptive.xlsx,test,0.6,0.6,0.6,-0.6,-0.6,right,R,,,,,0,1,1,1,0,67,67,24,,,,,,,,,,,,,,,,,,,,,,,,,,,,,,,,,,,,,,,,,,,,456.97104709991254,None,right,1,1.5158043999690562,457.47202509990893,458.6738074000459,457.47202509990893,458.172868499998,457.47202509990893,458.172868499998,457.47202509990893,458.172868499998,457.47202509990893,458.172868499998,457.47202509990893,458.172868499998,458.15616160002537,458.6570071999449,458.15616160002537,458.6570071999449,458.15616160002537,458.6570071999449,458.15616160002537,458.6570071999449,458.15616160002537,458.6570071999449,458.15616160002537,458.6570071999449,458.15616160002537,458.6570071999449,458.15616160002537,458.6570071999449,457.47202509990893,None,458.6570071999449,460.35964319994673,0.7000000000000004,460.3763840000611,None,461.1275313999504,None,,,,,,,[1.69147059],3.2700000000000022,0.75,11033,002,2024_Jan_12_1042,MFTM_A_new1021,2021.2.3,60.0282252208682,
,,,,,,,,stim/Instruction_adaptive.png,conditions/adaptive.xlsx,test,0.6,0.6,0.6,-0.6,-0.6,right,R,,,,,0,1,1,1,0,68,68,78,,,,,,,,,,,,,,,,,,,,,,,,,,,,,,,,,,,,,,,,,,,,461.6279609000776,None,right,1,1.4749696000944823,462.12892269995064,463.3146937000565,462.12892269995064,462.813145800028,462.12892269995064,462.813145800028,462.12892269995064,462.813145800028,462.12892269995064,462.813145800028,462.12892269995064,462.813145800028,462.796519999858,463.2974467999302,462.796519999858,463.2974467999302,462.796519999858,463.2974467999302,462.796519999858,463.2974467999302,462.796519999858,463.2974467999302,462.796519999858,463.2974467999302,462.796519999858,463.2974467999302,462.796519999858,463.2974467999302,462.12892269995064,None,463.2974467999302,464.9998951999005,0.6800000000000004,465.0164337998722,None,465.7674841999542,None,,,,,,,[1.69333333],3.3000000000000025,0.7536231884057971,11033,002,2024_Jan_12_1042,MFTM_A_new1021,2021.2.3,60.0282252208682,
,,,,,,,,stim/Instruction_adaptive.png,conditions/adaptive.xlsx,test,-0.6,-0.6,-0.6,0.6,0.6,left,L,,,,,0,1,1,1,0,69,69,51,,,,,,,,,,,,,,,,,,,,,,,,,,,,,,,,,,,,,,,,,,,,466.2684130000416,None,left,1,1.9547470000106841,466.76911560003646,467.9543850000482,466.76911560003646,467.4533508999739,466.76911560003646,467.4533508999739,466.76911560003646,467.4533508999739,466.76911560003646,467.4533508999739,466.76911560003646,467.4533508999739,467.4199150998611,467.9208887000568,467.4199150998611,467.9208887000568,467.4199150998611,467.9208887000568,467.4199150998611,467.9208887000568,467.4199150998611,467.9208887000568,467.4199150998611,467.9208887000568,467.4199150998611,467.9208887000568,467.4199150998611,467.9208887000568,466.76911560003646,None,467.9208887000568,469.6243328000419,0.6700000000000004,469.63994949986227,None,470.39104939997196,None,,,,,,,[1.69528571],3.3200000000000025,0.7571428571428571,11033,002,2024_Jan_12_1042,MFTM_A_new1021,2021.2.3,60.0282252208682,
,,,,,,,,stim/Instruction_adaptive.png,conditions/adaptive.xlsx,test,-0.6,-0.6,-0.6,0.6,0.6,left,L,,,,,0,1,1,1,0,70,70,89,,,,,,,,,,,,,,,,,,,,,,,,,,,,,,,,,,,,,,,,,,,,470.8918278000783,None,right,0,2.587224300019443,471.39274169993587,472.56092519988306,471.39274169993587,472.06010379991494,471.39274169993587,472.06010379991494,471.39274169993587,472.06010379991494,471.39274169993587,472.06010379991494,471.39274169993587,472.06010379991494,472.0267467000522,472.5277759998571,472.0267467000522,472.5277759998571,472.0267467000522,472.5277759998571,472.0267467000522,472.5277759998571,472.0267467000522,472.5277759998571,472.0267467000522,472.5277759998571,472.0267467000522,472.5277759998571,472.0267467000522,472.5277759998571,471.39274169993587,None,472.5277759998571,474.2300676999148,0.6600000000000004,474.2635224999394,None,475.0146671999246,None,,,,,,,[1.69732394],3.2400000000000024,0.7464788732394366,11033,002,2024_Jan_12_1042,MFTM_A_new1021,2021.2.3,60.0282252208682,
,,,,,,,,stim/Instruction_adaptive.png,conditions/adaptive.xlsx,test,-0.6,-0.6,-0.6,0.6,0.6,left,L,,,,,0,1,1,1,0,71,71,87,,,,,,,,,,,,,,,,,,,,,,,,,,,,,,,,,,,,,,,,,,,,475.51524069998413,None,left,1,1.3957716000732034,476.01618699985556,477.21797159989364,476.01618699985556,476.7171670999378,476.01618699985556,476.7171670999378,476.01618699985556,476.7171670999378,476.01618699985556,476.7171670999378,476.01618699985556,476.7171670999378,476.7005006999243,477.2012634000275,476.7005006999243,477.2012634000275,476.7005006999243,477.2012634000275,476.7005006999243,477.2012634000275,476.7005006999243,477.2012634000275,476.7005006999243,477.2012634000275,476.7005006999243,477.2012634000275,476.7005006999243,477.2012634000275,476.01618699985556,None,477.2012634000275,478.9038424999453,0.7000000000000004,478.9205694999546,None,479.671711999923,None,,,,,,,[1.69875],3.2700000000000022,0.75,11033,002,2024_Jan_12_1042,MFTM_A_new1021,2021.2.3,60.0282252208682,
,,,,,,,,stim/Instruction_adaptive.png,conditions/adaptive.xlsx,test,0.6,0.6,0.6,-0.6,-0.6,right,R,,,,,0,1,1,1,0,72,72,4,,,,,,,,,,,,,,,,,,,,,,,,,,,,,,,,,,,,,,,,,,,,480.1721888000611,None,right,1,1.6749507999047637,480.67295949999243,481.85820879996754,480.67295949999243,481.35735499998555,480.67295949999243,481.35735499998555,480.67295949999243,481.35735499998555,480.67295949999243,481.35735499998555,480.67295949999243,481.35735499998555,481.3406915999949,481.84148940001614,481.3406915999949,481.84148940001614,481.3406915999949,481.84148940001614,481.3406915999949,481.84148940001614,481.3406915999949,481.84148940001614,481.3406915999949,481.84148940001614,481.3406915999949,481.84148940001614,481.3406915999949,481.84148940001614,480.67295949999243,None,481.84148940001614,483.5438454998657,0.6800000000000004,483.5605750998948,None,484.3116524000652,None,,,,,,,[1.70041096],3.3000000000000025,0.7534246575342466,11033,002,2024_Jan_12_1042,MFTM_A_new1021,2021.2.3,60.0282252208682,
,,,,,,,,stim/Instruction_adaptive.png,conditions/adaptive.xlsx,test,-0.6,-0.6,-0.6,0.6,0.6,left,L,,,,,0,1,1,1,0,73,73,35,,,,,,,,,,,,,,,,,,,,,,,,,,,,,,,,,,,,,,,,,,,,484.8121605999768,None,left,1,0.9626118000596762,485.31334739993326,486.4982871999964,485.31334739993326,485.9975349998567,485.31334739993326,485.9975349998567,485.31334739993326,485.9975349998567,485.31334739993326,485.9975349998567,485.31334739993326,485.9975349998567,485.9640092998743,486.4650220000185,485.9640092998743,486.4650220000185,485.9640092998743,486.4650220000185,485.9640092998743,486.4650220000185,485.9640092998743,486.4650220000185,485.9640092998743,486.4650220000185,485.9640092998743,486.4650220000185,485.9640092998743,486.4650220000185,485.31334739993326,None,486.4650220000185,488.16752030001953,0.6700000000000004,488.20080620003864,None,488.95195929985493,None,,,,,,,[1.70216216],3.3200000000000025,0.7567567567567568,11033,002,2024_Jan_12_1042,MFTM_A_new1021,2021.2.3,60.0282252208682,
,,,,,,,,stim/Instruction_adaptive.png,conditions/adaptive.xlsx,test,0.6,0.6,0.6,-0.6,-0.6,right,R,,,,,0,1,1,1,0,74,74,50,,,,,,,,,,,,,,,,,,,,,,,,,,,,,,,,,,,,,,,,,,,,489.45255249994807,None,right,1,0.7623064999934286,489.95356799988076,491.12178179994226,489.95356799988076,490.62114539998583,489.95356799988076,490.62114539998583,489.95356799988076,490.62114539998583,489.95356799988076,490.62114539998583,489.95356799988076,490.62114539998583,490.60424589994363,491.10506400000304,490.60424589994363,491.10506400000304,490.60424589994363,491.10506400000304,490.60424589994363,491.10506400000304,490.60424589994363,491.10506400000304,490.60424589994363,491.10506400000304,490.60424589994363,491.10506400000304,490.60424589994363,491.10506400000304,489.95356799988076,None,491.10506400000304,None,0.6600000000000004,492.8244183000643,None,493.57559369993396,None,,,,,,,[1.704],3.3500000000000023,0.76,11033,002,2024_Jan_12_1042,MFTM_A_new1021,2021.2.3,60.0282252208682,
,,,,,,,,stim/Instruction_adaptive.png,conditions/adaptive.xlsx,test,-0.6,-0.6,-0.6,0.6,0.6,left,L,,,,,0,1,1,1,0,75,75,37,,,,,,,,,,,,,,,,,,,,,,,,,,,,,,,,,,,,,,,,,,,,494.07611360005103,None,right,0,1.3790555999148637,494.57689099991694,495.7287890999578,494.57689099991694,495.22785630007274,494.57689099991694,495.22785630007274,494.57689099991694,495.22785630007274,494.57689099991694,495.22785630007274,494.57689099991694,495.22785630007274,495.2110913998913,495.7120224998798,495.2110913998913,495.7120224998798,495.2110913998913,495.7120224998798,495.2110913998913,495.7120224998798,495.2110913998913,495.7120224998798,495.2110913998913,495.7120224998798,495.2110913998913,495.7120224998798,495.2110913998913,495.7120224998798,494.57689099991694,None,495.7120224998798,497.43127910001203,0.6500000000000004,497.4480489999987,None,498.19911150005646,None,,,,,,,[1.70592105],3.2700000000000022,0.75,11033,002,2024_Jan_12_1042,MFTM_A_new1021,2021.2.3,60.0282252208682,
,,,,,,,,stim/Instruction_adaptive.png,conditions/adaptive.xlsx,test,0.6,0.6,0.6,-0.6,-0.6,right,R,,,,,0,1,1,1,0,76,76,64,,,,,,,,,,,,,,,,,,,,,,,,,,,,,,,,,,,,,,,,,,,,498.69957439997233,None,right,1,0.8754527000710368,499.20048059988767,500.385683799861,499.20048059988767,499.8846493999008,499.20048059988767,499.8846493999008,499.20048059988767,499.8846493999008,499.20048059988767,499.8846493999008,499.20048059988767,499.8846493999008,499.8679726999253,500.3689754998777,499.8679726999253,500.3689754998777,499.8679726999253,500.3689754998777,499.8679726999253,500.3689754998777,499.8679726999253,500.3689754998777,499.8679726999253,500.3689754998777,499.8679726999253,500.3689754998777,499.8679726999253,500.3689754998777,499.20048059988767,None,500.3689754998777,None,0.6800000000000004,502.0880162999965,None,502.83912770007737,None,,,,,,,[1.7074026],3.3000000000000025,0.7532467532467533,11033,002,2024_Jan_12_1042,MFTM_A_new1021,2021.2.3,60.0282252208682,
,,,,,,,,stim/Instruction_adaptive.png,conditions/adaptive.xlsx,test,-0.6,-0.6,-0.6,0.6,0.6,left,L,,,,,0,1,1,1,0,77,77,1,,,,,,,,,,,,,,,,,,,,,,,,,,,,,,,,,,,,,,,,,,,,503.33982959995046,None,right,0,1.2591293000150472,503.8407584000379,505.02567350002937,503.8407584000379,504.5251178999897,503.8407584000379,504.5251178999897,503.8407584000379,504.5251178999897,503.8407584000379,504.5251178999897,503.8407584000379,504.5251178999897,504.49159780004993,504.99252289999276,504.49159780004993,504.99252289999276,504.49159780004993,504.99252289999276,504.49159780004993,504.99252289999276,504.49159780004993,504.99252289999276,504.49159780004993,504.99252289999276,504.49159780004993,504.99252289999276,504.49159780004993,504.99252289999276,503.8407584000379,None,504.99252289999276,506.7115849000402,0.6700000000000004,506.728305199882,None,507.4795706998557,None,,,,,,,[1.70897436],3.230000000000002,0.7435897435897436,11033,002,2024_Jan_12_1042,MFTM_A_new1021,2021.2.3,60.0282252208682,
,,,,,,,,stim/Instruction_adaptive.png,conditions/adaptive.xlsx,test,0.6,0.6,0.6,-0.6,-0.6,right,R,,,,,0,1,1,1,0,78,78,32,,,,,,,,,,,,,,,,,,,,,,,,,,,,,,,,,,,,,,,,,,,,507.98004709999077,None,right,1,1.179253299953416,508.4807078000158,509.68269350007176,508.4807078000158,509.18202079995535,508.4807078000158,509.18202079995535,508.4807078000158,509.18202079995535,508.4807078000158,509.18202079995535,508.4807078000158,509.18202079995535,509.1653156999964,509.66601160005666,509.1653156999964,509.66601160005666,509.1653156999964,509.66601160005666,509.1653156999964,509.66601160005666,509.1653156999964,509.66601160005666,509.1653156999964,509.66601160005666,509.1653156999964,509.66601160005666,509.1653156999964,509.66601160005666,508.4807078000158,None,509.66601160005666,511.3852828000672,0.7000000000000004,511.4016863000579,None,512.1532121000346,None,,,,,,,[1.71012658],3.2500000000000027,0.7468354430379747,11033,002,2024_Jan_12_1042,MFTM_A_new1021,2021.2.3,60.0282252208682,
,,,,,,,,stim/Instruction_adaptive.png,conditions/adaptive.xlsx,test,-0.6,-0.6,-0.6,0.6,0.6,left,L,,,,,0,1,1,1,0,79,79,83,,,,,,,,,,,,,,,,,,,,,,,,,,,,,,,,,,,,,,,,,,,,512.6538511000108,None,right,0,1.4414331999141723,513.1544818000402,514.3561273000669,513.1544818000402,513.8554358999245,513.1544818000402,513.8554358999245,513.1544818000402,513.8554358999245,513.1544818000402,513.8554358999245,513.1544818000402,513.8554358999245,513.8219939998817,514.3231037999503,513.8219939998817,514.3231037999503,513.8219939998817,514.3231037999503,513.8219939998817,514.3231037999503,513.8219939998817,514.3231037999503,513.8219939998817,514.3231037999503,513.8219939998817,514.3231037999503,513.8219939998817,514.3231037999503,513.1544818000402,None,514.3231037999503,516.041970100021,0.6900000000000004,516.058611500077,None,516.8099328000098,None,,,,,,,[1.711375],3.1800000000000024,0.7375,11033,002,2024_Jan_12_1042,MFTM_A_new1021,2021.2.3,60.0282252208682,
,,,,,,,,stim/Instruction_adaptive.png,conditions/adaptive.xlsx,test,-0.6,-0.6,-0.6,0.6,0.6,left,L,,,,,0,1,1,1,0,80,80,79,,,,,,,,,,,,,,,,,,,,,,,,,,,,,,,,,,,,,,,,,,,,517.3106037999969,None,left,1,1.8723519002087414,517.8115530998912,519.0465989999939,517.8115530998912,518.5459163999185,517.8115530998912,518.5459163999185,517.8115530998912,518.5459163999185,517.8115530998912,518.5459163999185,517.8115530998912,518.5459163999185,518.529267200036,519.0298723999877,518.529267200036,519.0298723999877,518.529267200036,519.0298723999877,518.529267200036,519.0298723999877,518.529267200036,519.0298723999877,518.529267200036,519.0298723999877,518.529267200036,519.0298723999877,518.529267200036,519.0298723999877,517.8115530998912,None,519.0298723999877,520.7491394998506,0.7300000000000004,520.7657635000069,None,521.5169223998673,None,,,,,,,[1.71209877],3.2000000000000024,0.7407407407407407,11033,002,2024_Jan_12_1042,MFTM_A_new1021,2021.2.3,60.0282252208682,
,,,,,,,,stim/Instruction_adaptive.png,conditions/adaptive.xlsx,test,-0.6,-0.6,-0.6,0.6,0.6,left,L,,,,,0,1,1,1,0,81,81,25,,,,,,,,,,,,,,,,,,,,,,,,,,,,,,,,,,,,,,,,,,,,522.0177412999328,None,left,1,0.9414754000026733,522.5184410999063,523.7536059999838,522.5184410999063,523.2528512000572,522.5184410999063,523.2528512000572,522.5184410999063,523.2528512000572,522.5184410999063,523.2528512000572,522.5184410999063,523.2528512000572,523.2193849000614,523.7200612998568,523.2193849000614,523.7200612998568,523.2193849000614,523.7200612998568,523.2193849000614,523.7200612998568,523.2193849000614,523.7200612998568,523.2193849000614,523.7200612998568,523.2193849000614,523.7200612998568,523.2193849000614,523.7200612998568,522.5184410999063,None,523.7200612998568,525.4393932998646,0.7200000000000004,525.4561143999454,None,526.2072101999074,None,,,,,,,[1.71292683],3.230000000000002,0.7439024390243902,11033,002,2024_Jan_12_1042,MFTM_A_new1021,2021.2.3,60.0282252208682,
,,,,,,,,stim/Instruction_adaptive.png,conditions/adaptive.xlsx,test,-0.6,-0.6,-0.6,0.6,0.6,left,L,,,,,0,1,1,1,0,82,82,13,,,,,,,,,,,,,,,,,,,,,,,,,,,,,,,,,,,,,,,,,,,,526.7078633999918,None,left,1,1.4995569000020623,527.2085670998786,528.4102995998692,527.2085670998786,527.9098988000769,527.2085670998786,527.9098988000769,527.2085670998786,527.9098988000769,527.2085670998786,527.9098988000769,527.2085670998786,527.9098988000769,527.8932002999354,528.3938869999256,527.8932002999354,528.3938869999256,527.8932002999354,528.3938869999256,527.8932002999354,528.3938869999256,527.8932002999354,528.3938869999256,527.8932002999354,528.3938869999256,527.8932002999354,528.3938869999256,527.8932002999354,528.3938869999256,527.2085670998786,None,528.3938869999256,530.1131144999526,0.7000000000000004,530.1295538998675,None,530.8807091999333,None,,,,,,,[1.7139759],3.2500000000000027,0.7469879518072289,11033,002,2024_Jan_12_1042,MFTM_A_new1021,2021.2.3,60.0282252208682,
,,,,,,,,stim/Instruction_adaptive.png,conditions/adaptive.xlsx,test,0.6,0.6,0.6,-0.6,-0.6,right,R,,,,,0,1,1,1,0,83,83,8,,,,,,,,,,,,,,,,,,,,,,,,,,,,,,,,,,,,,,,,,,,,531.3816247999202,None,right,1,1.577846199972555,531.8821280999109,533.0834850000683,531.8821280999109,532.5832525000442,531.8821280999109,532.5832525000442,531.8821280999109,532.5832525000442,531.8821280999109,532.5832525000442,531.8821280999109,532.5832525000442,532.5498202000745,533.0505218000617,532.5498202000745,533.0505218000617,532.5498202000745,533.0505218000617,532.5498202000745,533.0505218000617,532.5498202000745,533.0505218000617,532.5498202000745,533.0505218000617,532.5498202000745,533.0505218000617,532.5498202000745,533.0505218000617,531.8821280999109,None,533.0505218000617,534.7698788999114,0.6900000000000004,534.7865397999994,None,535.5377261999529,None,,,,,,,[1.71511905],3.2700000000000022,0.75,11033,002,2024_Jan_12_1042,MFTM_A_new1021,2021.2.3,60.0282252208682,
,,,,,,,,stim/Instruction_adaptive.png,conditions/adaptive.xlsx,test,-0.6,-0.6,-0.6,0.6,0.6,left,L,,,,,0,1,1,1,0,84,84,95,,,,,,,,,,,,,,,,,,,,,,,,,,,,,,,,,,,,,,,,,,,,536.0383393000811,None,left,1,1.2090957001782954,536.5390010999981,537.7241781998891,536.5390010999981,537.2236214999575,536.5390010999981,537.2236214999575,536.5390010999981,537.2236214999575,536.5390010999981,537.2236214999575,536.5390010999981,537.2236214999575,537.2069308999926,537.7069856000599,537.2069308999926,537.7069856000599,537.2069308999926,537.7069856000599,537.2069308999926,537.7069856000599,537.2069308999926,537.7069856000599,537.2069308999926,537.7069856000599,537.2069308999926,537.7069856000599,537.2069308999926,537.7069856000599,536.5390010999981,None,537.7069856000599,539.4268730999902,0.6800000000000004,539.4435920999385,None,540.1946862998884,None,,,,,,,[1.71635294],3.3000000000000025,0.7529411764705882,11033,002,2024_Jan_12_1042,MFTM_A_new1021,2021.2.3,60.0282252208682,
,,,,,,,,stim/Instruction_adaptive.png,conditions/adaptive.xlsx,test,-0.6,-0.6,-0.6,0.6,0.6,left,L,,,,,0,1,1,1,0,85,85,9,,,,,,,,,,,,,,,,,,,,,,,,,,,,,,,,,,,,,,,,,,,,540.6953787000384,None,left,1,1.80012740008533,541.1959130999167,542.3812780999579,541.1959130999167,541.880371700041,541.1959130999167,541.880371700041,541.1959130999167,541.880371700041,541.1959130999167,541.880371700041,541.1959130999167,541.880371700041,541.8471160999034,542.3476249999367,541.8471160999034,542.3476249999367,541.8471160999034,542.3476249999367,541.8471160999034,542.3476249999367,541.8471160999034,542.3476249999367,541.8471160999034,542.3476249999367,541.8471160999034,542.3476249999367,541.8471160999034,542.3476249999367,541.1959130999167,None,542.3476249999367,544.067083099857,0.6700000000000004,544.0835579000413,None,544.8347167000175,None,,,,,,,[1.71767442],3.3200000000000025,0.7558139534883721,11033,002,2024_Jan_12_1042,MFTM_A_new1021,2021.2.3,60.0282252208682,
,,,,,,,,stim/Instruction_adaptive.png,conditions/adaptive.xlsx,test,-0.6,-0.6,-0.6,0.6,0.6,left,L,,,,,0,1,1,1,0,86,86,77,,,,,,,,,,,,,,,,,,,,,,,,,,,,,,,,,,,,,,,,,,,,545.3357698000036,None,right,0,1.0399138999637216,545.8362085998524,547.0046272000764,545.8362085998524,546.5038912999444,545.8362085998524,546.5038912999444,545.8362085998524,546.5038912999444,545.8362085998524,546.5038912999444,545.8362085998524,546.5038912999444,546.4871616999153,546.9878499999177,546.4871616999153,546.9878499999177,546.4871616999153,546.9878499999177,546.4871616999153,546.9878499999177,546.4871616999153,546.9878499999177,546.4871616999153,546.9878499999177,546.4871616999153,546.9878499999177,546.4871616999153,546.9878499999177,545.8362085998524,None,546.9711374999024,548.6904161998536,0.6600000000000004,548.7238702999894,None,549.4750794998836,None,,,,,,,[1.71908046],3.2500000000000027,0.7471264367816092,11033,002,2024_Jan_12_1042,MFTM_A_new1021,2021.2.3,60.0282252208682,
,,,,,,,,stim/Instruction_adaptive.png,conditions/adaptive.xlsx,test,0.6,0.6,0.6,-0.6,-0.6,right,R,,,,,0,1,1,1,0,87,87,14,,,,,,,,,,,,,,,,,,,,,,,,,,,,,,,,,,,,,,,,,,,,549.9757046999875,None,right,1,1.4636514000594616,550.4764999998733,551.6782911999617,550.4764999998733,551.1774371999782,550.4764999998733,551.1774371999782,550.4764999998733,551.1774371999782,550.4764999998733,551.1774371999782,550.4764999998733,551.1774371999782,551.1442203999031,551.6447479999624,551.1442203999031,551.6447479999624,551.1442203999031,551.6447479999624,551.1442203999031,551.6447479999624,551.1442203999031,551.6447479999624,551.1442203999031,551.6447479999624,551.1442203999031,551.6447479999624,551.1442203999031,551.6447479999624,550.4764999998733,None,551.6447479999624,553.3641806000378,0.6900000000000004,553.3976338000502,None,554.1486768000759,None,,,,,,,[1.72011364],3.2800000000000025,0.75,11033,002,2024_Jan_12_1042,MFTM_A_new1021,2021.2.3,60.0282252208682,
,,,,,,,,stim/Instruction_adaptive.png,conditions/adaptive.xlsx,test,0.6,0.6,0.6,-0.6,-0.6,right,R,,,,,0,1,1,1,0,88,88,66,,,,,,,,,,,,,,,,,,,,,,,,,,,,,,,,,,,,,,,,,,,,554.649442399852,None,right,1,0.9500893999356776,555.1500639999285,556.3353041999508,555.1500639999285,555.8343628998846,555.1500639999285,555.8343628998846,555.1500639999285,555.8343628998846,555.1500639999285,555.8343628998846,555.1500639999285,555.8343628998846,555.8176915000658,556.318590000039,555.8176915000658,556.318590000039,555.8176915000658,556.318590000039,555.8176915000658,556.318590000039,555.8176915000658,556.318590000039,555.8176915000658,556.318590000039,555.8176915000658,556.318590000039,555.8176915000658,556.318590000039,555.1500639999285,None,556.318590000039,None,0.6800000000000004,558.054341299925,None,558.8054905000608,None,,,,,,,[1.72123596],3.3000000000000025,0.7528089887640449,11033,002,2024_Jan_12_1042,MFTM_A_new1021,2021.2.3,60.0282252208682,
,,,,,,,,stim/Instruction_adaptive.png,conditions/adaptive.xlsx,test,0.6,0.6,0.6,-0.6,-0.6,right,R,,,,,0,1,1,1,0,89,89,72,,,,,,,,,,,,,,,,,,,,,,,,,,,,,,,,,,,,,,,,,,,,559.306101199938,None,left,0,1.5330628999508917,559.8070525000803,560.9919550998602,559.8070525000803,560.4911241000518,559.8070525000803,560.4911241000518,559.8070525000803,560.4911241000518,559.8070525000803,560.4911241000518,559.8070525000803,560.4911241000518,560.4578990999144,560.9585078000091,560.4578990999144,560.9585078000091,560.4578990999144,560.9585078000091,560.4578990999144,560.9585078000091,560.4578990999144,560.9585078000091,560.4578990999144,560.9585078000091,560.4578990999144,560.9585078000091,560.4578990999144,560.9585078000091,559.8070525000803,None,560.9585078000091,562.694670900004,0.6700000000000004,562.7113617998548,None,563.4625117999967,None,,,,,,,[1.72244444],3.2400000000000024,0.7444444444444445,11033,002,2024_Jan_12_1042,MFTM_A_new1021,2021.2.3,60.0282252208682,
,,,,,,,,stim/Instruction_adaptive.png,conditions/adaptive.xlsx,test,-0.6,-0.6,-0.6,0.6,0.6,left,L,,,,,0,1,1,1,0,90,90,65,,,,,,,,,,,,,,,,,,,,,,,,,,,,,,,,,,,,,,,,,,,,563.9632174000144,None,right,0,2.0843162999954075,564.4638356000651,565.6658334999811,564.4638356000651,565.1648556999862,564.4638356000651,565.1648556999862,564.4638356000651,565.1648556999862,564.4638356000651,565.1648556999862,564.4638356000651,565.1648556999862,565.1480507000815,565.6490575999487,565.1480507000815,565.6490575999487,565.1480507000815,565.6490575999487,565.1480507000815,565.6490575999487,565.1480507000815,565.6490575999487,565.1480507000815,565.6490575999487,565.1480507000815,565.6490575999487,565.1480507000815,565.6490575999487,564.4638356000651,None,565.6490575999487,567.3847969998606,0.7000000000000004,567.401553099975,None,568.1526617999189,None,,,,,,,[1.7232967],3.1700000000000026,0.7362637362637363,11033,002,2024_Jan_12_1042,MFTM_A_new1021,2021.2.3,60.0282252208682,
,,,,,,,,stim/Instruction_adaptive.png,conditions/adaptive.xlsx,test,-0.6,-0.6,-0.6,0.6,0.6,left,L,,,,,0,1,1,1,0,91,91,5,,,,,,,,,,,,,,,,,,,,,,,,,,,,,,,,,,,,,,,,,,,,568.6532650999725,None,right,0,1.3297186999116093,569.1543304999359,570.3893697999883,569.1543304999359,569.8886939000804,569.1543304999359,569.8886939000804,569.1543304999359,569.8886939000804,569.1543304999359,569.8886939000804,569.1543304999359,569.8886939000804,569.8719667000696,570.3726399999578,569.8719667000696,570.3726399999578,569.8719667000696,570.3726399999578,569.8719667000696,570.3726399999578,569.8719667000696,570.3726399999578,569.8719667000696,570.3726399999578,569.8719667000696,570.3726399999578,569.8719667000696,570.3726399999578,569.1543304999359,None,570.3726399999578,None,0.7300000000000004,572.1085568000562,None,572.859514300013,None,,,,,,,[1.72380435],3.1000000000000023,0.7282608695652174,11033,002,2024_Jan_12_1042,MFTM_A_new1021,2021.2.3,60.0282252208682,
,,,,,,,,stim/Instruction_adaptive.png,conditions/adaptive.xlsx,test,-0.6,-0.6,-0.6,0.6,0.6,left,L,,,,,0,1,1,1,0,92,92,63,,,,,,,,,,,,,,,,,,,,,,,,,,,,,,,,,,,,,,,,,,,,573.3604921000078,None,left,1,1.1510919998399913,573.8611339000054,575.1464203000069,573.8611339000054,574.6457165998872,573.8611339000054,574.6457165998872,573.8611339000054,574.6457165998872,573.8611339000054,574.6457165998872,573.8611339000054,574.6457165998872,574.612216199981,575.1129679998849,574.612216199981,575.1129679998849,574.612216199981,575.1129679998849,574.612216199981,575.1129679998849,574.612216199981,575.1129679998849,574.612216199981,575.1129679998849,574.612216199981,575.1129679998849,574.612216199981,575.1129679998849,573.8611339000054,None,575.1129679998849,576.8489713000599,0.7700000000000005,576.8657394000329,None,577.616832899861,None,,,,,,,[1.72387097],3.1300000000000026,0.7311827956989247,11033,002,2024_Jan_12_1042,MFTM_A_new1021,2021.2.3,60.0282252208682,
,,,,,,,,stim/Instruction_adaptive.png,conditions/adaptive.xlsx,test,-0.6,-0.6,-0.6,0.6,0.6,left,L,,,,,0,1,1,1,0,93,93,93,,,,,,,,,,,,,,,,,,,,,,,,,,,,,,,,,,,,,,,,,,,,578.117501199944,None,right,0,1.6101603000424802,578.6179982000031,579.8699572000187,578.6179982000031,579.3693140998948,578.6179982000031,579.3693140998948,578.6179982000031,579.3693140998948,578.6179982000031,579.3693140998948,578.6179982000031,579.3693140998948,579.3525924000423,579.8532004000153,579.3525924000423,579.8532004000153,579.3525924000423,579.8532004000153,579.3525924000423,579.8532004000153,579.3525924000423,579.8532004000153,579.3525924000423,579.8532004000153,579.3525924000423,579.8532004000153,579.3525924000423,579.8532004000153,578.6179982000031,None,579.8532004000153,581.5893113000784,0.7500000000000004,581.6060796000529,None,582.3572263000533,None,,,,,,,[1.72414894],3.0600000000000023,0.723404255319149,11033,002,2024_Jan_12_1042,MFTM_A_new1021,2021.2.3,60.0282252208682,
