arrwidth1,arrwidth2,arrwidth3,arrwidth4,arrwidth5,keyb,type,orientation,instruction_image,block_filename,block_type,arrow11,arrow22,arrow33,arrow44,arrow55,keyb_3,orientation3,trials.thisRepN,trials.thisTrialN,trials.thisN,trials.thisIndex,trials_3.thisRepN,trials_3.thisTrialN,trials_3.thisN,trials_3.thisIndex,trials_2.thisRepN,trials_2.thisTrialN,trials_2.thisN,trials_2.thisIndex,welcome.started,welcome.stopped,key_resp.keys,key_resp.rt,key_resp.started,key_resp.stopped,instruction_example.started,instruction_example.stopped,key_resp_3.keys,key_resp_3.rt,key_resp_3.started,key_resp_3.stopped,instruction_task.started,instruction_task.stopped,key_resp_2.keys,key_resp_2.rt,key_resp_2.started,key_resp_2.stopped,text_2.started,text_2.stopped,A1.started,A1.stopped,A2.started,A2.stopped,A3.started,A3.stopped,A4.started,A4.stopped,A5.started,A5.stopped,key_resp_4.keys,key_resp_4.corr,key_resp_4.rt,key_resp_4.started,key_resp_4.stopped,fb.started,fb.stopped,instruction_block.started,instruction_block.stopped,key_resp_8.keys,key_resp_8.rt,key_resp_8.started,key_resp_8.stopped,text_8.started,text_8.stopped,key_resp_9.keys,key_resp_9.corr,key_resp_9.rt,text_5.started,text_5.stopped,A11_3.started,A11_3.stopped,A22_2.started,A22_2.stopped,A33_2.started,A33_2.stopped,A44_2.started,A44_2.stopped,A55_2.started,A55_2.stopped,M1_3.started,M1_3.stopped,M2_2.started,M2_2.stopped,M3_2.started,M3_2.stopped,M4_2.started,M4_2.stopped,M5_2.started,M5_2.stopped,M6_2.started,M6_2.stopped,M7_2.started,M7_2.stopped,M8_2.started,M8_2.stopped,key_resp_9.started,key_resp_9.stopped,fixation.started,fixation.stopped,ET,fb_3.started,fb_3.stopped,text_9.started,text_9.stopped,fb_4.started,fb_4.stopped,text_7.started,text_7.stopped,endtext.started,endtext.stopped,fixation_ITI,CCC,Acc,participant,session,date,expName,psychopyVersion,frameRate,
,,,,,,,,,,,,,,,,,,,,,,,,,,,,,,11.955306799849495,None,space,2.9202654999680817,11.955306799849495,None,,,,,,,,,,,,,,,,,,,,,,,,,,,,,,,,,,,,,,,,,,,,,,,,,,,,,,,,,,,,,,,,,,,,,,,,,,,,,,,,,,,,,,,,,11045,001,2024_Apr_13_1057,MFTM_A_new1021,2021.2.3,59.73651420746242,
,,,,,,,,,,,,,,,,,,,,,,,,,,,,,,,,,,,,14.892706899903715,None,space,5.958681900054216,14.892706899903715,None,,,,,,,,,,,,,,,,,,,,,,,,,,,,,,,,,,,,,,,,,,,,,,,,,,,,,,,,,,,,,,,,,,,,,,,,,,,,,,,,,,,11045,001,2024_Apr_13_1057,MFTM_A_new1021,2021.2.3,59.73651420746242,
,,,,,,,,,,,,,,,,,,,,,,,,,,,,,,,,,,,,,,,,,,20.86828069994226,None,left,6.72737199999392,20.86828069994226,None,,,,,,,,,,,,,,,,,,,,,,,,,,,,,,,,,,,,,,,,,,,,,,,,,,,,,,,,,,,,,,,,,,,,,,,,,,,,,11045,001,2024_Apr_13_1057,MFTM_A_new1021,2021.2.3,59.73651420746242,
0.6,0.6,0.6,-0.6,-0.6,right,3:2,R,,,,,,,,,,,0,0,0,0,,,,,,,,,,,,,,,,,,,,,,,,,,,27.62890510004945,None,27.62890510004945,None,27.62890510004945,None,27.62890510004945,None,27.62890510004945,None,27.62890510004945,None,right,1,3.062851099995896,27.62890510004945,None,30.734241700032726,None,,,,,,,,,,,,,,,,,,,,,,,,,,,,,,,,,,,,,,,,,,,,,,,,,,,,,,,,,,11045,001,2024_Apr_13_1057,MFTM_A_new1021,2021.2.3,59.73651420746242,
-0.6,-0.6,-0.6,0.6,0.6,left,3:2,L,,,,,,,,,,,0,1,1,1,,,,,,,,,,,,,,,,,,,,,,,,,,,31.484492199961096,None,31.484492199961096,None,31.484492199961096,None,31.484492199961096,None,31.484492199961096,None,31.484492199961096,None,left,1,1.503586000064388,31.484492199961096,None,33.0034184998367,None,,,,,,,,,,,,,,,,,,,,,,,,,,,,,,,,,,,,,,,,,,,,,,,,,,,,,,,,,,11045,001,2024_Apr_13_1057,MFTM_A_new1021,2021.2.3,59.73651420746242,
0.6,0.6,0.6,-0.6,-0.6,right,3:2,R,,,,,,,,,,,1,0,2,0,,,,,,,,,,,,,,,,,,,,,,,,,,,33.755270399851725,None,33.755270399851725,None,33.755270399851725,None,33.755270399851725,None,33.755270399851725,None,33.755270399851725,None,right,1,2.344663599971682,33.755270399851725,None,36.12480859993957,None,,,,,,,,,,,,,,,,,,,,,,,,,,,,,,,,,,,,,,,,,,,,,,,,,,,,,,,,,,11045,001,2024_Apr_13_1057,MFTM_A_new1021,2021.2.3,59.73651420746242,
-0.6,-0.6,-0.6,0.6,0.6,left,3:2,L,,,,,,,,,,,1,1,3,1,,,,,,,,,,,,,,,,,,,,,,,,,,,36.87623219983652,None,36.87623219983652,None,36.87623219983652,None,36.87623219983652,None,36.87623219983652,None,36.87623219983652,None,left,1,1.2638071000110358,36.87623219983652,None,38.16158179985359,None,,,,,,,,,,,,,,,,,,,,,,,,,,,,,,,,,,,,,,,,,,,,,,,,,,,,,,,,,,11045,001,2024_Apr_13_1057,MFTM_A_new1021,2021.2.3,59.73651420746242,
,,,,,,,,stim/Instruction_mask.png,conditions/adaptive.xlsx,practice,0.6,0.6,0.6,-0.6,-0.6,right,R,,,,,0,0,0,0,0,0,0,12,,,,,,,,,,,,,,,,,,,,,,,,,,,,,,,,,,,,,,39.19603440002538,None,left,11.640567499911413,39.19603440002538,None,50.94767490006052,None,right,1,1.5752450998406857,51.38112679985352,None,51.38112679985352,54.385301399976015,51.38112679985352,54.385301399976015,51.38112679985352,54.385301399976015,51.38112679985352,54.385301399976015,51.38112679985352,54.385301399976015,54.36897349986248,54.86982679995708,54.36897349986248,54.86982679995708,54.36897349986248,54.86982679995708,54.36897349986248,54.86982679995708,54.36897349986248,54.86982679995708,54.36897349986248,54.86982679995708,54.36897349986248,54.86982679995708,54.36897349986248,54.86982679995708,51.38112679985352,None,54.86982679995708,54.86982679995708,3,54.88615279993974,None,55.63731399993412,None,,,,,,,,,,11045,001,2024_Apr_13_1057,MFTM_A_new1021,2021.2.3,59.73651420746242,
,,,,,,,,stim/Instruction_mask.png,conditions/adaptive.xlsx,practice,-0.6,-0.6,-0.6,0.6,0.6,left,L,,,,,0,0,0,0,0,1,1,23,,,,,,,,,,,,,,,,,,,,,,,,,,,,,,,,,,,,,,,,,,,,56.138370600063354,None,left,1,1.3014599001035094,56.63904000003822,58.643784099956974,56.63904000003822,58.14190039993264,56.63904000003822,58.14190039993264,56.63904000003822,58.14190039993264,56.63904000003822,58.14190039993264,56.63904000003822,58.14190039993264,58.12462319992483,58.62567469989881,58.12462319992483,58.62567469989881,58.12462319992483,58.62567469989881,58.12462319992483,58.62567469989881,58.12462319992483,58.62567469989881,58.12462319992483,58.62567469989881,58.12462319992483,58.62567469989881,58.12462319992483,58.62567469989881,56.63904000003822,None,58.62567469989881,60.12778880004771,1.5,60.14466889994219,None,60.89563989988528,None,,,,,,,,,,11045,001,2024_Apr_13_1057,MFTM_A_new1021,2021.2.3,59.73651420746242,
,,,,,,,,stim/Instruction_mask.png,conditions/adaptive.xlsx,practice,-0.6,-0.6,-0.6,0.6,0.6,left,L,,,,,0,0,0,0,0,2,2,53,,,,,,,,,,,,,,,,,,,,,,,,,,,,,,,,,,,,,,,,,,,,61.39653619984165,None,right,0,1.8430182000156492,61.89733459986746,63.198981299996376,61.89733459986746,62.69821619987488,61.89733459986746,62.69821619987488,61.89733459986746,62.69821619987488,61.89733459986746,62.69821619987488,61.89733459986746,62.69821619987488,62.68151309993118,63.18234509998001,62.68151309993118,63.18234509998001,62.68151309993118,63.18234509998001,62.68151309993118,63.18234509998001,62.68151309993118,63.18234509998001,62.68151309993118,63.18234509998001,62.68151309993118,63.18234509998001,62.68151309993118,63.18234509998001,61.89733459986746,None,63.18234509998001,65.38544690003619,0.8,65.40226290002465,None,66.15335140004754,None,,,,,,,,,,11045,001,2024_Apr_13_1057,MFTM_A_new1021,2021.2.3,59.73651420746242,
,,,,,,,,stim/Instruction_mask.png,conditions/adaptive.xlsx,practice,0.6,0.6,0.6,-0.6,-0.6,right,R,,,,,0,0,0,0,0,3,3,94,,,,,,,,,,,,,,,,,,,,,,,,,,,,,,,,,,,,,,,,,,,,66.65437759994529,None,left,0,1.0415768001694232,67.15491759986617,67.90649849991314,67.15491759986617,67.40551249985583,67.15491759986617,67.40551249985583,67.15491759986617,67.40551249985583,67.15491759986617,67.40551249985583,67.15491759986617,67.40551249985583,67.38897840003483,67.88948699994944,67.38897840003483,67.88948699994944,67.38897840003483,67.88948699994944,67.38897840003483,67.88948699994944,67.38897840003483,67.88948699994944,67.38897840003483,67.88948699994944,67.38897840003483,67.88948699994944,67.38897840003483,67.88948699994944,67.15491759986617,None,67.88948699994944,70.6435803999193,3,70.66020029992796,None,71.41234229994006,None,,,,,,,,,,11045,001,2024_Apr_13_1057,MFTM_A_new1021,2021.2.3,59.73651420746242,
,,,,,,,,stim/Instruction_mask.png,conditions/adaptive.xlsx,practice,,,,,,,,,,,,0,0,0,0,,,,,,,,,,,,,,,,,,,,,,,,,,,,,,,,,,,,,,,,,,,,,,,,,,,,,,,,,,,,,,,,,,,,,,,,,,,,,,,,,,,,,,,,,,71.92828279989772,72.93068469990976,72.913469000021,72.913469000021,72.913469000021,None,,,,11045,001,2024_Apr_13_1057,MFTM_A_new1021,2021.2.3,59.73651420746242,
,,,,,,,,stim/Instruction_adaptive.png,conditions/adaptive.xlsx,test,0.6,0.6,0.6,-0.6,-0.6,right,R,,,,,0,1,1,1,0,0,0,74,,,,,,,,,,,,,,,,,,,,,,,,,,,,,,,,,,,,,,76.11859679990448,None,space,8.247161500155926,76.11859679990448,None,84.39772180002183,None,right,1,1.370761000085622,84.8984916000627,None,84.8984916000627,87.9030269999057,84.8984916000627,87.9030269999057,84.8984916000627,87.9030269999057,84.8984916000627,87.9030269999057,84.8984916000627,87.9030269999057,87.87027369998395,88.37052359990776,87.87027369998395,88.37052359990776,87.87027369998395,88.37052359990776,87.87027369998395,88.37052359990776,87.87027369998395,88.37052359990776,87.87027369998395,88.37052359990776,87.87027369998395,88.37052359990776,87.87027369998395,88.37052359990776,84.8984916000627,None,88.37052359990776,88.37052359990776,3,88.40447359997779,None,89.15490309987217,None,,,,,,,0,6.000000000000005,1.0,11045,001,2024_Apr_13_1057,MFTM_A_new1021,2021.2.3,59.73651420746242,
,,,,,,,,stim/Instruction_adaptive.png,conditions/adaptive.xlsx,test,0.6,0.6,0.6,-0.6,-0.6,right,R,,,,,0,1,1,1,0,1,1,42,,,,,,,,,,,,,,,,,,,,,,,,,,,,,,,,,,,,,,,,,,,,89.65555060002953,None,left,0,1.4574773001950234,90.15654930006713,90.9075201000087,90.15654930006713,90.40671560005285,90.15654930006713,90.40671560005285,90.15654930006713,90.40671560005285,90.15654930006713,90.40671560005285,90.15654930006713,90.40671560005285,90.39047109987587,90.89098410005681,90.39047109987587,90.89098410005681,90.39047109987587,90.89098410005681,90.39047109987587,90.89098410005681,90.39047109987587,90.89098410005681,90.39047109987587,90.89098410005681,90.39047109987587,90.89098410005681,90.39047109987587,90.89098410005681,90.15654930006713,None,90.89098410005681,91.77596080000512,0.25,91.79209190001711,None,92.54322890006006,None,,,,,,,[0.875],2.570000000000002,0.5,11045,001,2024_Apr_13_1057,MFTM_A_new1021,2021.2.3,59.73651420746242,
,,,,,,,,stim/Instruction_adaptive.png,conditions/adaptive.xlsx,test,0.6,0.6,0.6,-0.6,-0.6,right,R,,,,,0,1,1,1,0,2,2,68,,,,,,,,,,,,,,,,,,,,,,,,,,,,,,,,,,,,,,,,,,,,93.0439408000093,None,right,1,1.6698168001603335,93.54485059995204,95.1639906000346,93.54485059995204,94.66326529998332,93.54485059995204,94.66326529998332,93.54485059995204,94.66326529998332,93.54485059995204,94.66326529998332,93.54485059995204,94.66326529998332,94.62981099984609,95.13062589988112,94.62981099984609,95.13062589988112,94.62981099984609,95.13062589988112,94.62981099984609,95.13062589988112,94.62981099984609,95.13062589988112,94.62981099984609,95.13062589988112,94.62981099984609,95.13062589988112,94.62981099984609,95.13062589988112,93.54485059995204,None,95.13062589988112,96.1819481998682,1.1100000000000008,96.21539009991102,None,96.96661829994991,None,,,,,,,[1.04666667],3.3800000000000026,0.6666666666666666,11045,001,2024_Apr_13_1057,MFTM_A_new1021,2021.2.3,59.73651420746242,
,,,,,,,,stim/Instruction_adaptive.png,conditions/adaptive.xlsx,test,0.6,0.6,0.6,-0.6,-0.6,right,R,,,,,0,1,1,1,0,3,3,2,,,,,,,,,,,,,,,,,,,,,,,,,,,,,,,,,,,,,,,,,,,,97.46721030003391,None,left,0,1.2055480999406427,97.96820629993454,99.10307649988681,97.96820629993454,98.60244100005366,97.96820629993454,98.60244100005366,97.96820629993454,98.60244100005366,97.96820629993454,98.60244100005366,97.96820629993454,98.60244100005366,98.58609959995374,99.08677210006863,98.58609959995374,99.08677210006863,98.58609959995374,99.08677210006863,98.58609959995374,99.08677210006863,98.58609959995374,99.08677210006863,98.58609959995374,99.08677210006863,98.58609959995374,99.08677210006863,98.58609959995374,99.08677210006863,97.96820629993454,None,99.08677210006863,100.33839299995452,0.6300000000000003,100.35516689997166,None,101.10620759986341,None,,,,,,,[1.2525],2.1700000000000017,0.5,11045,001,2024_Apr_13_1057,MFTM_A_new1021,2021.2.3,59.73651420746242,
,,,,,,,,stim/Instruction_adaptive.png,conditions/adaptive.xlsx,test,-0.6,-0.6,-0.6,0.6,0.6,left,L,,,,,0,1,1,1,0,4,4,39,,,,,,,,,,,,,,,,,,,,,,,,,,,,,,,,,,,,,,,,,,,,101.60750039992854,None,right,0,1.8982524999883026,102.10781749989837,104.0784271999728,102.10781749989837,103.57675200002268,102.10781749989837,103.57675200002268,102.10781749989837,103.57675200002268,102.10781749989837,103.57675200002268,102.10781749989837,103.57675200002268,103.54329820000567,104.04395279986784,103.54329820000567,104.04395279986784,103.54329820000567,104.04395279986784,103.54329820000567,104.04395279986784,103.54329820000567,104.04395279986784,103.54329820000567,104.04395279986784,103.54329820000567,104.04395279986784,103.54329820000567,104.04395279986784,102.10781749989837,None,104.04395279986784,105.09553229995072,1.460000000000001,105.11235129996203,None,105.86352010001428,None,,,,,,,[[1.04]],0.5,0.4,11045,001,2024_Apr_13_1057,MFTM_A_new1021,2021.2.3,59.73651420746242,
,,,,,,,,stim/Instruction_adaptive.png,conditions/adaptive.xlsx,test,0.6,0.6,0.6,-0.6,-0.6,right,R,,,,,0,1,1,1,0,5,5,16,,,,,,,,,,,,,,,,,,,,,,,,,,,,,,,,,,,,,,,,,,,,106.36406439985149,None,left,0,1.7329445001669228,106.86478840000927,None,106.86478840000927,109.8694269999396,106.86478840000927,109.8694269999396,106.86478840000927,109.8694269999396,106.86478840000927,109.8694269999396,106.86478840000927,109.8694269999396,109.85273829987273,110.3536151999142,109.85273829987273,110.3536151999142,109.85273829987273,110.3536151999142,109.85273829987273,110.3536151999142,109.85273829987273,110.3536151999142,109.85273829987273,110.3536151999142,109.85273829987273,110.3536151999142,109.85273829987273,110.3536151999142,106.86478840000927,None,110.3536151999142,110.3536151999142,3.0000000000000027,110.3701847998891,None,111.1213525000494,None,,,,,,,0,0.5,0.3333333333333333,11045,001,2024_Apr_13_1057,MFTM_A_new1021,2021.2.3,59.73651420746242,
,,,,,,,,stim/Instruction_adaptive.png,conditions/adaptive.xlsx,test,-0.6,-0.6,-0.6,0.6,0.6,left,L,,,,,0,1,1,1,0,6,6,85,,,,,,,,,,,,,,,,,,,,,,,,,,,,,,,,,,,,,,,,,,,,111.62218329985626,None,left,1,2.7883924001362175,112.1228134999983,None,112.1228134999983,115.12762729986571,112.1228134999983,115.12762729986571,112.1228134999983,115.12762729986571,112.1228134999983,115.12762729986571,112.1228134999983,115.12762729986571,115.11089030001312,115.61152499984019,115.11089030001312,115.61152499984019,115.11089030001312,115.61152499984019,115.11089030001312,115.61152499984019,115.11089030001312,115.61152499984019,115.11089030001312,115.61152499984019,115.11089030001312,115.61152499984019,115.11089030001312,115.61152499984019,112.1228134999983,None,115.61152499984019,115.61152499984019,3.0000000000000027,115.62796419998631,None,116.37950479984283,None,,,,,,,0,0.5,0.42857142857142855,11045,001,2024_Apr_13_1057,MFTM_A_new1021,2021.2.3,59.73651420746242,
,,,,,,,,stim/Instruction_adaptive.png,conditions/adaptive.xlsx,test,0.6,0.6,0.6,-0.6,-0.6,right,R,,,,,0,1,1,1,0,7,7,98,,,,,,,,,,,,,,,,,,,,,,,,,,,,,,,,,,,,,,,,,,,,116.87999429996125,None,right,1,3.2334570998791605,117.38078709994443,None,117.38078709994443,120.38515180000104,117.38078709994443,120.38515180000104,117.38078709994443,120.38515180000104,117.38078709994443,120.38515180000104,117.38078709994443,120.38515180000104,120.36875499994494,120.86950809997506,120.36875499994494,120.86950809997506,120.36875499994494,120.86950809997506,120.36875499994494,120.86950809997506,120.36875499994494,120.86950809997506,120.36875499994494,120.86950809997506,120.36875499994494,120.86950809997506,120.36875499994494,120.86950809997506,117.38078709994443,None,120.86950809997506,120.86950809997506,3.0000000000000027,120.88673719996586,None,121.63717780006118,None,,,,,,,0,0.5,0.5,11045,001,2024_Apr_13_1057,MFTM_A_new1021,2021.2.3,59.73651420746242,
,,,,,,,,stim/Instruction_adaptive.png,conditions/adaptive.xlsx,test,0.6,0.6,0.6,-0.6,-0.6,right,R,,,,,0,1,1,1,0,8,8,50,,,,,,,,,,,,,,,,,,,,,,,,,,,,,,,,,,,,,,,,,,,,122.13797429995611,None,right,1,2.0634519001469016,122.63876500003971,None,122.63876500003971,125.64411969995126,122.63876500003971,125.64411969995126,122.63876500003971,125.64411969995126,122.63876500003971,125.64411969995126,122.63876500003971,125.64411969995126,125.62657419987954,126.12753319996409,125.62657419987954,126.12753319996409,125.62657419987954,126.12753319996409,125.62657419987954,126.12753319996409,125.62657419987954,126.12753319996409,125.62657419987954,126.12753319996409,125.62657419987954,126.12753319996409,125.62657419987954,126.12753319996409,122.63876500003971,None,126.12753319996409,126.12753319996409,3.0000000000000027,126.14404139993712,None,126.89526130002923,None,,,,,,,0,0.9000000000000004,0.5555555555555556,11045,001,2024_Apr_13_1057,MFTM_A_new1021,2021.2.3,59.73651420746242,
,,,,,,,,stim/Instruction_adaptive.png,conditions/adaptive.xlsx,test,-0.6,-0.6,-0.6,0.6,0.6,left,L,,,,,0,1,1,1,0,9,9,31,,,,,,,,,,,,,,,,,,,,,,,,,,,,,,,,,,,,,,,,,,,,127.39585969992913,None,left,1,1.8694044000003487,127.89713119994849,None,127.89713119994849,130.90134470001794,127.89713119994849,130.90134470001794,127.89713119994849,130.90134470001794,127.89713119994849,130.90134470001794,127.89713119994849,130.90134470001794,130.88473060005344,131.38510099984705,130.88473060005344,131.38510099984705,130.88473060005344,131.38510099984705,130.88473060005344,131.38510099984705,130.88473060005344,131.38510099984705,130.88473060005344,131.38510099984705,130.88473060005344,131.38510099984705,130.88473060005344,131.38510099984705,127.89713119994849,None,131.38510099984705,131.38510099984705,3.0000000000000027,131.40185120003298,None,132.15321809984744,None,,,,,,,0,1.2400000000000007,0.6,11045,001,2024_Apr_13_1057,MFTM_A_new1021,2021.2.3,59.73651420746242,
,,,,,,,,stim/Instruction_adaptive.png,conditions/adaptive.xlsx,test,0.6,0.6,0.6,-0.6,-0.6,right,R,,,,,0,1,1,1,0,10,10,46,,,,,,,,,,,,,,,,,,,,,,,,,,,,,,,,,,,,,,,,,,,,132.6539229999762,None,right,1,2.7082917999941856,133.15454089990817,None,133.15454089990817,135.95857489993796,133.15454089990817,135.95857489993796,133.15454089990817,135.95857489993796,133.15454089990817,135.95857489993796,133.15454089990817,135.95857489993796,135.9253815000411,136.4261819999665,135.9253815000411,136.4261819999665,135.9253815000411,136.4261819999665,135.9253815000411,136.4261819999665,135.9253815000411,136.4261819999665,135.9253815000411,136.4261819999665,135.9253815000411,136.4261819999665,135.9253815000411,136.4261819999665,133.15454089990817,None,136.4261819999665,136.4261819999665,2.7900000000000023,136.45957599999383,None,137.21069269999862,None,,,,,,,0,1.4800000000000009,0.6363636363636364,11045,001,2024_Apr_13_1057,MFTM_A_new1021,2021.2.3,59.73651420746242,
,,,,,,,,stim/Instruction_adaptive.png,conditions/adaptive.xlsx,test,-0.6,-0.6,-0.6,0.6,0.6,left,L,,,,,0,1,1,1,0,11,11,7,,,,,,,,,,,,,,,,,,,,,,,,,,,,,,,,,,,,,,,,,,,,137.71213879995048,None,left,1,3.08253480005078,138.21207530004904,141.08322230004705,138.21207530004904,140.58242049999535,138.21207530004904,140.58242049999535,138.21207530004904,140.58242049999535,138.21207530004904,140.58242049999535,138.21207530004904,140.58242049999535,140.54900810006075,141.04983829986304,140.54900810006075,141.04983829986304,140.54900810006075,141.04983829986304,140.54900810006075,141.04983829986304,140.54900810006075,141.04983829986304,140.54900810006075,141.04983829986304,140.54900810006075,141.04983829986304,140.54900810006075,141.04983829986304,138.21207530004904,None,141.04983829986304,141.31686969986185,2.360000000000002,141.33367139985785,None,142.0848921998404,None,,,,,,,[[0.14]],1.660000000000001,0.6666666666666666,11045,001,2024_Apr_13_1057,MFTM_A_new1021,2021.2.3,59.73651420746242,
,,,,,,,,stim/Instruction_adaptive.png,conditions/adaptive.xlsx,test,-0.6,-0.6,-0.6,0.6,0.6,left,L,,,,,0,1,1,1,0,12,12,99,,,,,,,,,,,,,,,,,,,,,,,,,,,,,,,,,,,,,,,,,,,,142.58535489998758,None,left,1,2.2890820000320673,143.08626720006578,145.67382019991055,143.08626720006578,145.17267529992387,143.08626720006578,145.17267529992387,143.08626720006578,145.17267529992387,143.08626720006578,145.17267529992387,143.08626720006578,145.17267529992387,145.13945459993556,145.64081020001322,145.13945459993556,145.64081020001322,145.13945459993556,145.64081020001322,145.13945459993556,145.64081020001322,145.13945459993556,145.64081020001322,145.13945459993556,145.64081020001322,145.13945459993556,145.64081020001322,145.13945459993556,145.64081020001322,143.08626720006578,None,145.64081020001322,145.94054739992134,2.080000000000002,145.97419119998813,None,146.72505369991995,None,,,,,,,[0.29384615],1.8200000000000012,0.6923076923076923,11045,001,2024_Apr_13_1057,MFTM_A_new1021,2021.2.3,59.73651420746242,
,,,,,,,,stim/Instruction_adaptive.png,conditions/adaptive.xlsx,test,-0.6,-0.6,-0.6,0.6,0.6,left,L,,,,,0,1,1,1,0,13,13,3,,,,,,,,,,,,,,,,,,,,,,,,,,,,,,,,,,,,,,,,,,,,147.22597949998453,None,right,0,2.3125841000583023,147.72672459995374,150.09683880000375,147.72672459995374,149.59624579991214,147.72672459995374,149.59624579991214,147.72672459995374,149.59624579991214,147.72672459995374,149.59624579991214,147.72672459995374,149.59624579991214,149.57941689994186,150.08018559985794,149.57941689994186,150.08018559985794,149.57941689994186,150.08018559985794,149.57941689994186,150.08018559985794,149.57941689994186,150.08018559985794,149.57941689994186,150.08018559985794,149.57941689994186,150.08018559985794,149.57941689994186,150.08018559985794,147.72672459995374,None,150.06378369987942,150.3975414999295,1.8600000000000014,150.41425479995087,None,151.16526459995657,None,,,,,,,[0.31857143],1.4200000000000008,0.6428571428571429,11045,001,2024_Apr_13_1057,MFTM_A_new1021,2021.2.3,59.73651420746242,
,,,,,,,,stim/Instruction_adaptive.png,conditions/adaptive.xlsx,test,0.6,0.6,0.6,-0.6,-0.6,right,R,,,,,0,1,1,1,0,14,14,84,,,,,,,,,,,,,,,,,,,,,,,,,,,,,,,,,,,,,,,,,,,,151.66596119990572,None,right,1,2.104722199961543,152.16649239999242,155.13784400001168,152.16649239999242,154.63733289996162,152.16649239999242,154.63733289996162,152.16649239999242,154.63733289996162,152.16649239999242,154.63733289996162,152.16649239999242,154.63733289996162,154.6043322000187,155.10464349994436,154.6043322000187,155.10464349994436,154.6043322000187,155.10464349994436,154.6043322000187,155.10464349994436,154.6043322000187,155.10464349994436,154.6043322000187,155.10464349994436,154.6043322000187,155.10464349994436,154.6043322000187,155.10464349994436,152.16649239999242,None,155.10464349994436,155.1551834999118,2.4600000000000017,155.1712433998473,None,155.9223457998596,None,,,,,,,[[0.04]],1.570000000000001,0.6666666666666666,11045,001,2024_Apr_13_1057,MFTM_A_new1021,2021.2.3,59.73651420746242,
,,,,,,,,stim/Instruction_adaptive.png,conditions/adaptive.xlsx,test,-0.6,-0.6,-0.6,0.6,0.6,left,L,,,,,0,1,1,1,0,15,15,1,,,,,,,,,,,,,,,,,,,,,,,,,,,,,,,,,,,,,,,,,,,,156.42294239997864,None,left,1,1.587240400025621,156.9238100000657,159.64442649995908,156.9238100000657,159.14405120001175,156.9238100000657,159.14405120001175,156.9238100000657,159.14405120001175,156.9238100000657,159.14405120001175,156.9238100000657,159.14405120001175,159.12719589984044,159.62830549990758,159.12719589984044,159.62830549990758,159.12719589984044,159.62830549990758,159.12719589984044,159.62830549990758,159.12719589984044,159.62830549990758,159.12719589984044,159.62830549990758,159.12719589984044,159.62830549990758,159.12719589984044,159.62830549990758,156.9238100000657,None,159.62830549990758,159.91183029999956,2.2200000000000015,159.92829869990237,None,160.67956429999322,None,,,,,,,[[0.28]],1.700000000000001,0.6875,11045,001,2024_Apr_13_1057,MFTM_A_new1021,2021.2.3,59.73651420746242,
,,,,,,,,stim/Instruction_adaptive.png,conditions/adaptive.xlsx,test,0.6,0.6,0.6,-0.6,-0.6,right,R,,,,,0,1,1,1,0,16,16,56,,,,,,,,,,,,,,,,,,,,,,,,,,,,,,,,,,,,,,,,,,,,161.18057990004309,None,right,1,1.6945030000060797,161.68105640006252,164.2015078999102,161.68105640006252,163.70096579985693,161.68105640006252,163.70096579985693,161.68105640006252,163.70096579985693,161.68105640006252,163.70096579985693,161.68105640006252,163.70096579985693,163.68407519999892,164.18483519996516,163.68407519999892,164.18483519996516,163.68407519999892,164.18483519996516,163.68407519999892,164.18483519996516,163.68407519999892,164.18483519996516,163.68407519999892,164.18483519996516,163.68407519999892,164.18483519996516,163.68407519999892,164.18483519996516,161.68105640006252,None,164.18483519996516,164.50226809992455,2.0200000000000014,164.5186675998848,None,165.2699122999329,None,,,,,,,[0.30941176],1.8200000000000012,0.7058823529411765,11045,001,2024_Apr_13_1057,MFTM_A_new1021,2021.2.3,59.73651420746242,
,,,,,,,,stim/Instruction_adaptive.png,conditions/adaptive.xlsx,test,-0.6,-0.6,-0.6,0.6,0.6,left,L,,,,,0,1,1,1,0,17,17,65,,,,,,,,,,,,,,,,,,,,,,,,,,,,,,,,,,,,,,,,,,,,165.77052460005507,None,left,1,2.425212000031024,166.2711890998762,168.64148780005053,166.2711890998762,168.14148600003682,166.2711890998762,168.14148600003682,166.2711890998762,168.14148600003682,166.2711890998762,168.14148600003682,166.2711890998762,168.14148600003682,168.1075925999321,168.609265799867,168.1075925999321,168.609265799867,168.1075925999321,168.609265799867,168.1075925999321,168.609265799867,168.1075925999321,168.609265799867,168.1075925999321,168.609265799867,168.1075925999321,168.609265799867,168.1075925999321,168.609265799867,166.2711890998762,None,168.609265799867,168.94243870000355,1.8600000000000014,168.9587310999632,None,169.7096647999715,None,,,,,,,[0.32777778],1.9200000000000013,0.7222222222222222,11045,001,2024_Apr_13_1057,MFTM_A_new1021,2021.2.3,59.73651420746242,
,,,,,,,,stim/Instruction_adaptive.png,conditions/adaptive.xlsx,test,-0.6,-0.6,-0.6,0.6,0.6,left,L,,,,,0,1,1,1,0,18,18,9,,,,,,,,,,,,,,,,,,,,,,,,,,,,,,,,,,,,,,,,,,,,170.21056320006028,None,left,1,1.8244258998893201,170.71140699996613,172.9647214000579,170.71140699996613,172.46396579989232,170.71140699996613,172.46396579989232,170.71140699996613,172.46396579989232,170.71140699996613,172.46396579989232,170.71140699996613,172.46396579989232,172.43058960000053,172.9312452999875,172.43058960000053,172.9312452999875,172.43058960000053,172.9312452999875,172.43058960000053,172.9312452999875,172.43058960000053,172.9312452999875,172.43058960000053,172.9312452999875,172.43058960000053,172.9312452999875,172.43058960000053,172.9312452999875,170.71140699996613,None,172.9312452999875,173.281895800028,1.7400000000000013,173.3157112998888,None,174.06652430002578,None,,,,,,,[0.35052632],2.0100000000000016,0.7368421052631579,11045,001,2024_Apr_13_1057,MFTM_A_new1021,2021.2.3,59.73651420746242,
,,,,,,,,stim/Instruction_adaptive.png,conditions/adaptive.xlsx,test,-0.6,-0.6,-0.6,0.6,0.6,left,L,,,,,0,1,1,1,0,19,19,57,,,,,,,,,,,,,,,,,,,,,,,,,,,,,,,,,,,,,,,,,,,,174.56718080001883,None,left,1,2.1481856000609696,175.0678635998629,177.20437119994313,175.0678635998629,176.70356180006638,175.0678635998629,176.70356180006638,175.0678635998629,176.70356180006638,175.0678635998629,176.70356180006638,175.0678635998629,176.70356180006638,176.67020789999515,177.17100139986724,176.67020789999515,177.17100139986724,176.67020789999515,177.17100139986724,176.67020789999515,177.17100139986724,176.67020789999515,177.17100139986724,176.67020789999515,177.17100139986724,176.67020789999515,177.17100139986724,176.67020789999515,177.17100139986724,175.0678635998629,None,177.17100139986724,177.5550522999838,1.6300000000000012,177.5883937999606,None,178.33921590005048,None,,,,,,,[0.3765],2.1000000000000014,0.75,11045,001,2024_Apr_13_1057,MFTM_A_new1021,2021.2.3,59.73651420746242,
,,,,,,,,stim/Instruction_adaptive.png,conditions/adaptive.xlsx,test,0.6,0.6,0.6,-0.6,-0.6,right,R,,,,,0,1,1,1,0,20,20,28,,,,,,,,,,,,,,,,,,,,,,,,,,,,,,,,,,,,,,,,,,,,178.84018489997834,None,right,1,2.090472999960184,179.34127969993278,181.37792499992065,179.34127969993278,180.87664719996974,179.34127969993278,180.87664719996974,179.34127969993278,180.87664719996974,179.34127969993278,180.87664719996974,179.34127969993278,180.87664719996974,180.86004110006616,181.36063460004516,180.86004110006616,181.36063460004516,180.86004110006616,181.36063460004516,180.86004110006616,181.36063460004516,180.86004110006616,181.36063460004516,180.86004110006616,181.36063460004516,180.86004110006616,181.36063460004516,180.86004110006616,181.36063460004516,179.34127969993278,None,181.34416639991105,181.76137829991058,1.5300000000000011,181.7780611999333,None,182.52967369998805,None,,,,,,,[0.4047619],2.1800000000000015,0.7619047619047619,11045,001,2024_Apr_13_1057,MFTM_A_new1021,2021.2.3,59.73651420746242,
,,,,,,,,stim/Instruction_adaptive.png,conditions/adaptive.xlsx,test,-0.6,-0.6,-0.6,0.6,0.6,left,L,,,,,0,1,1,1,0,21,21,81,,,,,,,,,,,,,,,,,,,,,,,,,,,,,,,,,,,,,,,,,,,,183.02983510005288,None,left,1,1.4531474001705647,183.53071159985848,185.48372490005568,183.53071159985848,184.9828846999444,183.53071159985848,184.9828846999444,183.53071159985848,184.9828846999444,183.53071159985848,184.9828846999444,183.53071159985848,184.9828846999444,184.9660097998567,185.4672811999917,184.9660097998567,185.4672811999917,184.9660097998567,185.4672811999917,184.9660097998567,185.4672811999917,184.9660097998567,185.4672811999917,184.9660097998567,185.4672811999917,184.9660097998567,185.4672811999917,184.9660097998567,185.4672811999917,183.53071159985848,None,185.4672811999917,185.90085719991475,1.450000000000001,185.91754339984618,None,186.66897640004754,None,,,,,,,[0.43409091],2.2500000000000018,0.7727272727272727,11045,001,2024_Apr_13_1057,MFTM_A_new1021,2021.2.3,59.73651420746242,
,,,,,,,,stim/Instruction_adaptive.png,conditions/adaptive.xlsx,test,0.6,0.6,0.6,-0.6,-0.6,right,R,,,,,0,1,1,1,0,22,22,34,,,,,,,,,,,,,,,,,,,,,,,,,,,,,,,,,,,,,,,,,,,,187.16939679998904,None,right,1,1.7142450001556426,187.67024210002273,189.55643399991095,187.67024210002273,189.05561739997938,187.67024210002273,189.05561739997938,187.67024210002273,189.05561739997938,187.67024210002273,189.05561739997938,187.67024210002273,189.05561739997938,189.03880669991486,189.53945040004328,189.03880669991486,189.53945040004328,189.03880669991486,189.53945040004328,189.03880669991486,189.53945040004328,189.03880669991486,189.53945040004328,189.03880669991486,189.53945040004328,189.03880669991486,189.53945040004328,189.03880669991486,189.53945040004328,187.67024210002273,None,189.53945040004328,190.0071308000479,1.380000000000001,190.02384879998863,None,190.7749860000331,None,,,,,,,[0.46391304],2.3200000000000016,0.782608695652174,11045,001,2024_Apr_13_1057,MFTM_A_new1021,2021.2.3,59.73651420746242,
,,,,,,,,stim/Instruction_adaptive.png,conditions/adaptive.xlsx,test,0.6,0.6,0.6,-0.6,-0.6,right,R,,,,,0,1,1,1,0,23,23,88,,,,,,,,,,,,,,,,,,,,,,,,,,,,,,,,,,,,,,,,,,,,191.275732900016,None,right,1,2.0641157999634743,191.77642340003513,193.59570659999736,191.77642340003513,193.11180369998328,191.77642340003513,193.11180369998328,191.77642340003513,193.11180369998328,191.77642340003513,193.11180369998328,191.77642340003513,193.11180369998328,193.07824469986372,193.57936819992028,193.07824469986372,193.57936819992028,193.07824469986372,193.57936819992028,193.07824469986372,193.57936819992028,193.07824469986372,193.57936819992028,193.07824469986372,193.57936819992028,193.07824469986372,193.57936819992028,193.07824469986372,193.57936819992028,191.77642340003513,None,193.57936819992028,194.07995399995707,1.320000000000001,194.09664090001024,None,194.84765719994903,None,,,,,,,[0.49375],2.3800000000000017,0.7916666666666666,11045,001,2024_Apr_13_1057,MFTM_A_new1021,2021.2.3,59.73651420746242,
,,,,,,,,stim/Instruction_adaptive.png,conditions/adaptive.xlsx,test,-0.6,-0.6,-0.6,0.6,0.6,left,L,,,,,0,1,1,1,0,24,24,45,,,,,,,,,,,,,,,,,,,,,,,,,,,,,,,,,,,,,,,,,,,,195.3485262999311,None,left,1,1.351224800106138,195.8492033998482,197.6183930998668,195.8492033998482,197.1177729999181,195.8492033998482,197.1177729999181,195.8492033998482,197.1177729999181,195.8492033998482,197.1177729999181,195.8492033998482,197.1177729999181,197.0844713000115,197.5860434998758,197.0844713000115,197.5860434998758,197.0844713000115,197.5860434998758,197.0844713000115,197.5860434998758,197.0844713000115,197.5860434998758,197.0844713000115,197.5860434998758,197.0844713000115,197.5860434998758,197.0844713000115,197.5860434998758,195.8492033998482,None,197.5860434998758,198.11945650004782,1.260000000000001,198.13609739998356,None,198.88733379985206,None,,,,,,,[0.5236],2.4400000000000017,0.8,11045,001,2024_Apr_13_1057,MFTM_A_new1021,2021.2.3,59.73651420746242,
,,,,,,,,stim/Instruction_adaptive.png,conditions/adaptive.xlsx,test,-0.6,-0.6,-0.6,0.6,0.6,left,L,,,,,0,1,1,1,0,25,25,97,,,,,,,,,,,,,,,,,,,,,,,,,,,,,,,,,,,,,,,,,,,,199.38839829992503,None,right,0,1.17548569990322,199.8890616998542,201.60802499996498,199.8890616998542,201.10718289995566,199.8890616998542,201.10718289995566,199.8890616998542,201.10718289995566,199.8890616998542,201.10718289995566,199.8890616998542,201.10718289995566,201.0736088999547,201.5749586999882,201.0736088999547,201.5749586999882,201.0736088999547,201.5749586999882,201.0736088999547,201.5749586999882,201.0736088999547,201.5749586999882,201.0736088999547,201.5749586999882,201.0736088999547,201.5749586999882,201.0736088999547,201.5749586999882,199.8890616998542,None,201.5749586999882,202.1420903999824,1.2100000000000009,202.15879959985614,None,202.90979499998502,None,,,,,,,[0.55307692],2.2700000000000014,0.7692307692307693,11045,001,2024_Apr_13_1057,MFTM_A_new1021,2021.2.3,59.73651420746242,
,,,,,,,,stim/Instruction_adaptive.png,conditions/adaptive.xlsx,test,0.6,0.6,0.6,-0.6,-0.6,right,R,,,,,0,1,1,1,0,26,26,8,,,,,,,,,,,,,,,,,,,,,,,,,,,,,,,,,,,,,,,,,,,,203.41121489997022,None,left,0,1.9277475997805595,203.91305119986646,205.78086489997804,203.91305119986646,205.28023030003533,203.91305119986646,205.28023030003533,203.91305119986646,205.28023030003533,203.91305119986646,205.28023030003533,203.91305119986646,205.28023030003533,205.24688240000978,205.74742270004936,205.24688240000978,205.74742270004936,205.24688240000978,205.74742270004936,205.24688240000978,205.74742270004936,205.24688240000978,205.74742270004936,205.24688240000978,205.74742270004936,205.24688240000978,205.74742270004936,205.24688240000978,205.74742270004936,203.91305119986646,None,205.74742270004936,206.33231689990498,1.360000000000001,206.34914690000005,None,207.0995720999781,None,,,,,,,[0.57481481],2.0900000000000016,0.7407407407407407,11045,001,2024_Apr_13_1057,MFTM_A_new1021,2021.2.3,59.73651420746242,
,,,,,,,,stim/Instruction_adaptive.png,conditions/adaptive.xlsx,test,0.6,0.6,0.6,-0.6,-0.6,right,R,,,,,0,1,1,1,0,27,27,82,,,,,,,,,,,,,,,,,,,,,,,,,,,,,,,,,,,,,,,,,,,,207.60064619989134,None,right,1,1.7802871000021696,208.10101599991322,210.15421419986524,208.10101599991322,209.65344659984112,208.10101599991322,209.65344659984112,208.10101599991322,209.65344659984112,208.10101599991322,209.65344659984112,208.10101599991322,209.65344659984112,209.63676899997517,210.13733769999817,209.63676899997517,210.13733769999817,209.63676899997517,210.13733769999817,209.63676899997517,210.13733769999817,209.63676899997517,210.13733769999817,209.63676899997517,210.13733769999817,209.63676899997517,210.13733769999817,209.63676899997517,210.13733769999817,208.10101599991322,None,210.13733769999817,None,1.5500000000000012,210.738406999968,None,211.4902407999616,None,,,,,,,[0.58821429],2.1600000000000015,0.75,11045,001,2024_Apr_13_1057,MFTM_A_new1021,2021.2.3,59.73651420746242,
,,,,,,,,stim/Instruction_adaptive.png,conditions/adaptive.xlsx,test,0.6,0.6,0.6,-0.6,-0.6,right,R,,,,,0,1,1,1,0,28,28,80,,,,,,,,,,,,,,,,,,,,,,,,,,,,,,,,,,,,,,,,,,,,211.99046649993397,None,right,1,2.3102225000038743,212.49090379988775,214.46056939987466,212.49090379988775,213.9600474999752,212.49090379988775,213.9600474999752,212.49090379988775,213.9600474999752,212.49090379988775,213.9600474999752,212.49090379988775,213.9600474999752,213.94342139991932,214.44372770003974,213.94342139991932,214.44372770003974,213.94342139991932,214.44372770003974,213.94342139991932,214.44372770003974,213.94342139991932,214.44372770003974,213.94342139991932,214.44372770003974,213.94342139991932,214.44372770003974,213.94342139991932,214.44372770003974,212.49090379988775,None,214.44372770003974,215.06336280005053,1.470000000000001,215.07808790006675,None,215.8298869000282,None,,,,,,,[0.60344828],2.2200000000000015,0.7586206896551724,11045,001,2024_Apr_13_1057,MFTM_A_new1021,2021.2.3,59.73651420746242,
,,,,,,,,stim/Instruction_adaptive.png,conditions/adaptive.xlsx,test,-0.6,-0.6,-0.6,0.6,0.6,left,L,,,,,0,1,1,1,0,29,29,69,,,,,,,,,,,,,,,,,,,,,,,,,,,,,,,,,,,,,,,,,,,,216.32991009997204,None,right,0,1.9462943999096751,216.83104670001194,218.75034939986654,216.83104670001194,218.24974419991486,216.83104670001194,218.24974419991486,216.83104670001194,218.24974419991486,216.83104670001194,218.24974419991486,216.83104670001194,218.24974419991486,218.23311669984832,218.73411870002747,218.23311669984832,218.73411870002747,218.23311669984832,218.73411870002747,218.23311669984832,218.73411870002747,218.23311669984832,218.73411870002747,218.23311669984832,218.73411870002747,218.23311669984832,218.73411870002747,218.23311669984832,218.73411870002747,216.83104670001194,None,218.7170235000085,219.35128599987365,1.410000000000001,219.36861820006743,None,220.1192505999934,None,,,,,,,[0.61966667],2.0500000000000016,0.7333333333333333,11045,001,2024_Apr_13_1057,MFTM_A_new1021,2021.2.3,59.73651420746242,
,,,,,,,,stim/Instruction_adaptive.png,conditions/adaptive.xlsx,test,0.6,0.6,0.6,-0.6,-0.6,right,R,,,,,0,1,1,1,0,30,30,94,,,,,,,,,,,,,,,,,,,,,,,,,,,,,,,,,,,,,,,,,,,,220.6201332998462,None,right,1,1.3923227998893708,221.12098619993776,223.2246425000485,221.12098619993776,222.72320919996127,221.12098619993776,222.72320919996127,221.12098619993776,222.72320919996127,221.12098619993776,222.72320919996127,221.12098619993776,222.72320919996127,222.68979760003276,223.1906183999963,222.68979760003276,223.1906183999963,222.68979760003276,223.1906183999963,222.68979760003276,223.1906183999963,222.68979760003276,223.1906183999963,222.68979760003276,223.1906183999963,222.68979760003276,223.1906183999963,222.68979760003276,223.1906183999963,221.12098619993776,None,223.1906183999963,223.82476969994605,1.5900000000000012,223.841277099913,None,224.59263890003785,None,,,,,,,[0.62903226],2.110000000000001,0.7419354838709677,11045,001,2024_Apr_13_1057,MFTM_A_new1021,2021.2.3,59.73651420746242,
,,,,,,,,stim/Instruction_adaptive.png,conditions/adaptive.xlsx,test,0.6,0.6,0.6,-0.6,-0.6,right,R,,,,,0,1,1,1,0,31,31,44,,,,,,,,,,,,,,,,,,,,,,,,,,,,,,,,,,,,,,,,,,,,225.09340339992195,None,right,1,1.663403799990192,225.59416350000538,227.613933699904,225.59416350000538,227.11323640006594,225.59416350000538,227.11323640006594,225.59416350000538,227.11323640006594,225.59416350000538,227.11323640006594,225.59416350000538,227.11323640006594,227.09688750002533,227.59713430004194,227.09688750002533,227.59713430004194,227.09688750002533,227.59713430004194,227.09688750002533,227.59713430004194,227.09688750002533,227.59713430004194,227.09688750002533,227.59713430004194,227.09688750002533,227.59713430004194,227.09688750002533,227.59713430004194,225.59416350000538,None,227.59713430004194,228.24810989992693,1.5200000000000011,228.2651368000079,None,229.0159163000062,None,,,,,,,[0.64],2.1600000000000015,0.75,11045,001,2024_Apr_13_1057,MFTM_A_new1021,2021.2.3,59.73651420746242,
,,,,,,,,stim/Instruction_adaptive.png,conditions/adaptive.xlsx,test,-0.6,-0.6,-0.6,0.6,0.6,left,L,,,,,0,1,1,1,0,32,32,41,,,,,,,,,,,,,,,,,,,,,,,,,,,,,,,,,,,,,,,,,,,,229.51659619994462,None,left,1,1.4800325001124293,230.01752749993466,231.9869039999321,230.01752749993466,231.4868325998541,230.01752749993466,231.4868325998541,230.01752749993466,231.4868325998541,230.01752749993466,231.4868325998541,230.01752749993466,231.4868325998541,231.46998769999482,231.9705053998623,231.46998769999482,231.9705053998623,231.46998769999482,231.9705053998623,231.46998769999482,231.9705053998623,231.46998769999482,231.9705053998623,231.46998769999482,231.9705053998623,231.46998769999482,231.9705053998623,231.46998769999482,231.9705053998623,230.01752749993466,None,231.9705053998623,232.62142199999653,1.470000000000001,232.65487729990855,None,233.40619959984906,None,,,,,,,[0.65181818],2.2200000000000015,0.7575757575757576,11045,001,2024_Apr_13_1057,MFTM_A_new1021,2021.2.3,59.73651420746242,
,,,,,,,,stim/Instruction_adaptive.png,conditions/adaptive.xlsx,test,0.6,0.6,0.6,-0.6,-0.6,right,R,,,,,0,1,1,1,0,33,33,92,,,,,,,,,,,,,,,,,,,,,,,,,,,,,,,,,,,,,,,,,,,,233.90692960005254,None,right,1,1.5625940000172704,234.4074530999642,236.32686219993047,234.4074530999642,235.82618019985966,234.4074530999642,235.82618019985966,234.4074530999642,235.82618019985966,234.4074530999642,235.82618019985966,234.4074530999642,235.82618019985966,235.79287979984656,236.293752099853,235.79287979984656,236.293752099853,235.79287979984656,236.293752099853,235.79287979984656,236.293752099853,235.79287979984656,236.293752099853,235.79287979984656,236.293752099853,235.79287979984656,236.293752099853,235.79287979984656,236.293752099853,234.4074530999642,None,236.293752099853,236.96129180002026,1.410000000000001,236.99474999983795,None,237.74596199998632,None,,,,,,,[0.66470588],2.2700000000000014,0.7647058823529411,11045,001,2024_Apr_13_1057,MFTM_A_new1021,2021.2.3,59.73651420746242,
,,,,,,,,stim/Instruction_adaptive.png,conditions/adaptive.xlsx,test,0.6,0.6,0.6,-0.6,-0.6,right,R,,,,,0,1,1,1,0,34,34,90,,,,,,,,,,,,,,,,,,,,,,,,,,,,,,,,,,,,,,,,,,,,238.24670229991898,None,right,1,1.5499062000308186,238.7477267999202,240.61697339988314,238.7477267999202,240.11651119985618,238.7477267999202,240.11651119985618,238.7477267999202,240.11651119985618,238.7477267999202,240.11651119985618,238.7477267999202,240.11651119985618,240.08266979991458,240.58360819984227,240.08266979991458,240.58360819984227,240.08266979991458,240.58360819984227,240.08266979991458,240.58360819984227,240.08266979991458,240.58360819984227,240.08266979991458,240.58360819984227,240.08266979991458,240.58360819984227,240.08266979991458,240.58360819984227,238.7477267999202,None,240.58360819984227,241.26836550002918,1.360000000000001,241.2844410999678,None,242.035460999934,None,,,,,,,[0.67828571],2.3200000000000016,0.7714285714285715,11045,001,2024_Apr_13_1057,MFTM_A_new1021,2021.2.3,59.73651420746242,
,,,,,,,,stim/Instruction_adaptive.png,conditions/adaptive.xlsx,test,-0.6,-0.6,-0.6,0.6,0.6,left,L,,,,,0,1,1,1,0,35,35,55,,,,,,,,,,,,,,,,,,,,,,,,,,,,,,,,,,,,,,,,,,,,242.53624689998105,None,left,1,1.6049994002096355,243.03717059991322,244.85654670000076,243.03717059991322,244.37226910004392,243.03717059991322,244.37226910004392,243.03717059991322,244.37226910004392,243.03717059991322,244.37226910004392,243.03717059991322,244.37226910004392,244.33920970000327,244.84032529988326,244.33920970000327,244.84032529988326,244.33920970000327,244.84032529988326,244.33920970000327,244.84032529988326,244.33920970000327,244.84032529988326,244.33920970000327,244.84032529988326,244.33920970000327,244.84032529988326,244.33920970000327,244.84032529988326,243.03717059991322,None,244.84032529988326,245.54091820004396,1.320000000000001,245.5576750000473,None,246.30907880002633,None,,,,,,,[0.69222222],2.3600000000000017,0.7777777777777778,11045,001,2024_Apr_13_1057,MFTM_A_new1021,2021.2.3,59.73651420746242,
,,,,,,,,stim/Instruction_adaptive.png,conditions/adaptive.xlsx,test,0.6,0.6,0.6,-0.6,-0.6,right,R,,,,,0,1,1,1,0,36,36,38,,,,,,,,,,,,,,,,,,,,,,,,,,,,,,,,,,,,,,,,,,,,246.80962079996243,None,right,1,1.4120457000099123,247.3100103000179,249.09629620006308,247.3100103000179,248.59595840005204,247.3100103000179,248.59595840005204,247.3100103000179,248.59595840005204,247.3100103000179,248.59595840005204,247.3100103000179,248.59595840005204,248.578946699854,249.07993360003456,248.578946699854,249.07993360003456,248.578946699854,249.07993360003456,248.578946699854,249.07993360003456,248.578946699854,249.07993360003456,248.578946699854,249.07993360003456,248.578946699854,249.07993360003456,248.578946699854,249.07993360003456,247.3100103000179,None,249.07993360003456,None,1.280000000000001,249.79736229986884,None,250.5484962000046,None,,,,,,,[0.70648649],2.410000000000002,0.7837837837837838,11045,001,2024_Apr_13_1057,MFTM_A_new1021,2021.2.3,59.73651420746242,
,,,,,,,,stim/Instruction_adaptive.png,conditions/adaptive.xlsx,test,-0.6,-0.6,-0.6,0.6,0.6,left,L,,,,,0,1,1,1,0,37,37,71,,,,,,,,,,,,,,,,,,,,,,,,,,,,,,,,,,,,,,,,,,,,251.04912950005382,None,left,1,1.6191698999609798,251.55095659988,253.30261130002327,251.55095659988,252.80226469994523,251.55095659988,252.80226469994523,251.55095659988,252.80226469994523,251.55095659988,252.80226469994523,251.55095659988,252.80226469994523,252.76855010003783,253.26962399994954,252.76855010003783,253.26962399994954,252.76855010003783,253.26962399994954,252.76855010003783,253.26962399994954,252.76855010003783,253.26962399994954,252.76855010003783,253.26962399994954,252.76855010003783,253.26962399994954,252.76855010003783,253.26962399994954,251.55095659988,None,253.26962399994954,254.00415210006759,1.2400000000000009,254.02034889999777,None,254.77160049998201,None,,,,,,,[0.72105263],2.450000000000002,0.7894736842105263,11045,001,2024_Apr_13_1057,MFTM_A_new1021,2021.2.3,59.73651420746242,
,,,,,,,,stim/Instruction_adaptive.png,conditions/adaptive.xlsx,test,0.6,0.6,0.6,-0.6,-0.6,right,R,,,,,0,1,1,1,0,38,38,86,,,,,,,,,,,,,,,,,,,,,,,,,,,,,,,,,,,,,,,,,,,,255.2723101999145,None,right,1,1.3972212001681328,255.7731087000575,257.47562239994295,255.7731087000575,256.9750995999202,255.7731087000575,256.9750995999202,255.7731087000575,256.9750995999202,255.7731087000575,256.9750995999202,255.7731087000575,256.9750995999202,256.95856279996224,257.4588770000264,256.95856279996224,257.4588770000264,256.95856279996224,257.4588770000264,256.95856279996224,257.4588770000264,256.95856279996224,257.4588770000264,256.95856279996224,257.4588770000264,256.95856279996224,257.4588770000264,256.95856279996224,257.4588770000264,255.7731087000575,None,257.4588770000264,None,1.2000000000000008,258.21016280003823,None,258.96142239985056,None,,,,,,,[0.73589744],2.490000000000002,0.7948717948717948,11045,001,2024_Apr_13_1057,MFTM_A_new1021,2021.2.3,59.73651420746242,
,,,,,,,,stim/Instruction_adaptive.png,conditions/adaptive.xlsx,test,-0.6,-0.6,-0.6,0.6,0.6,left,L,,,,,0,1,1,1,0,39,39,37,,,,,,,,,,,,,,,,,,,,,,,,,,,,,,,,,,,,,,,,,,,,259.4620934999548,None,left,1,2.3197314999997616,259.962675599847,261.63166949991137,259.962675599847,261.1477993999142,259.962675599847,261.1477993999142,259.962675599847,261.1477993999142,259.962675599847,261.1477993999142,259.962675599847,261.1477993999142,261.1146722000558,261.6155923998449,261.1146722000558,261.6155923998449,261.1146722000558,261.6155923998449,261.1146722000558,261.6155923998449,261.1146722000558,261.6155923998449,261.1146722000558,261.6155923998449,261.1146722000558,261.6155923998449,261.1146722000558,261.6155923998449,259.962675599847,None,261.6155923998449,262.36607969994657,1.1700000000000008,262.3828318999149,None,263.1368523000274,None,,,,,,,[0.75075],2.530000000000002,0.8,11045,001,2024_Apr_13_1057,MFTM_A_new1021,2021.2.3,59.73651420746242,
,,,,,,,,stim/Instruction_adaptive.png,conditions/adaptive.xlsx,test,-0.6,-0.6,-0.6,0.6,0.6,left,L,,,,,0,1,1,1,0,40,40,53,,,,,,,,,,,,,,,,,,,,,,,,,,,,,,,,,,,,,,,,,,,,263.6521584999282,None,left,1,1.7780844999942929,264.1361320000142,265.7881352000404,264.1361320000142,265.2874823999591,264.1361320000142,265.2874823999591,264.1361320000142,265.2874823999591,264.1361320000142,265.2874823999591,264.1361320000142,265.2874823999591,265.25443909992464,265.7546383999288,265.25443909992464,265.7546383999288,265.25443909992464,265.7546383999288,265.25443909992464,265.7546383999288,265.25443909992464,265.7546383999288,265.25443909992464,265.7546383999288,265.25443909992464,265.7546383999288,265.25443909992464,265.7546383999288,264.1361320000142,None,265.7546383999288,266.5225676000118,1.1400000000000008,266.55596240004525,None,267.30754680000246,None,,,,,,,[0.76560976],2.560000000000002,0.8048780487804879,11045,001,2024_Apr_13_1057,MFTM_A_new1021,2021.2.3,59.73651420746242,
,,,,,,,,stim/Instruction_adaptive.png,conditions/adaptive.xlsx,test,0.6,0.6,0.6,-0.6,-0.6,right,R,,,,,0,1,1,1,0,41,41,24,,,,,,,,,,,,,,,,,,,,,,,,,,,,,,,,,,,,,,,,,,,,267.80823630001396,None,right,1,1.3254372999072075,268.30914779985324,269.94423400005326,268.30914779985324,269.443552599987,268.30914779985324,269.443552599987,268.30914779985324,269.443552599987,268.30914779985324,269.443552599987,268.30914779985324,269.443552599987,269.41014910000376,269.9107816000469,269.41014910000376,269.9107816000469,269.41014910000376,269.9107816000469,269.41014910000376,269.9107816000469,269.41014910000376,269.9107816000469,269.41014910000376,269.9107816000469,269.41014910000376,269.9107816000469,269.41014910000376,269.9107816000469,268.30914779985324,None,269.9107816000469,270.6956962000113,1.1200000000000008,270.7124425000511,None,271.4633563000243,None,,,,,,,[0.7802381],2.600000000000002,0.8095238095238095,11045,001,2024_Apr_13_1057,MFTM_A_new1021,2021.2.3,59.73651420746242,
,,,,,,,,stim/Instruction_adaptive.png,conditions/adaptive.xlsx,test,0.6,0.6,0.6,-0.6,-0.6,right,R,,,,,0,1,1,1,0,42,42,18,,,,,,,,,,,,,,,,,,,,,,,,,,,,,,,,,,,,,,,,,,,,271.96443889988586,None,right,1,2.2897074001375586,272.4648149998393,274.0673817000352,272.4648149998393,273.5671816000249,272.4648149998393,273.5671816000249,272.4648149998393,273.5671816000249,272.4648149998393,273.5671816000249,272.4648149998393,273.5671816000249,273.5335864999797,274.0344918000046,273.5335864999797,274.0344918000046,273.5335864999797,274.0344918000046,273.5335864999797,274.0344918000046,273.5335864999797,274.0344918000046,273.5335864999797,274.0344918000046,273.5335864999797,274.0344918000046,273.5335864999797,274.0344918000046,272.4648149998393,None,274.0344918000046,274.83503049984574,1.0900000000000007,274.85164489992894,None,275.6027613999322,None,,,,,,,[0.79488372],2.640000000000002,0.813953488372093,11045,001,2024_Apr_13_1057,MFTM_A_new1021,2021.2.3,59.73651420746242,
,,,,,,,,stim/Instruction_adaptive.png,conditions/adaptive.xlsx,test,0.6,0.6,0.6,-0.6,-0.6,right,R,,,,,0,1,1,1,0,43,43,70,,,,,,,,,,,,,,,,,,,,,,,,,,,,,,,,,,,,,,,,,,,,276.1040550000034,None,right,1,1.6702896000351757,276.604475799948,278.1738112999592,276.604475799948,277.67297729989514,276.604475799948,277.67297729989514,276.604475799948,277.67297729989514,276.604475799948,277.67297729989514,276.604475799948,277.67297729989514,277.6560110000428,278.15662469994277,277.6560110000428,278.15662469994277,277.6560110000428,278.15662469994277,277.6560110000428,278.15662469994277,277.6560110000428,278.15662469994277,277.6560110000428,278.15662469994277,277.6560110000428,278.15662469994277,277.6560110000428,278.15662469994277,276.604475799948,None,278.1400637999177,278.9579369998537,1.0600000000000007,278.97468189988285,None,279.7258428998757,None,,,,,,,[0.80954545],2.6700000000000017,0.8181818181818182,11045,001,2024_Apr_13_1057,MFTM_A_new1021,2021.2.3,59.73651420746242,
,,,,,,,,stim/Instruction_adaptive.png,conditions/adaptive.xlsx,test,0.6,0.6,0.6,-0.6,-0.6,right,R,,,,,0,1,1,1,0,44,44,32,,,,,,,,,,,,,,,,,,,,,,,,,,,,,,,,,,,,,,,,,,,,280.2267815999221,None,left,0,2.003534800140187,280.7276422998402,282.26322830002755,280.7276422998402,281.7622841000557,280.7276422998402,281.7622841000557,280.7276422998402,281.7622841000557,280.7276422998402,281.7622841000557,280.7276422998402,281.7622841000557,281.7456670999527,282.24645429989323,281.7456670999527,282.24645429989323,281.7456670999527,282.24645429989323,281.7456670999527,282.24645429989323,281.7456670999527,282.24645429989323,281.7456670999527,282.24645429989323,281.7456670999527,282.24645429989323,281.7456670999527,282.24645429989323,280.7276422998402,None,282.24645429989323,None,1.0300000000000007,283.0809193998575,None,283.8319679000415,None,,,,,,,[0.82422222],2.570000000000002,0.8,11045,001,2024_Apr_13_1057,MFTM_A_new1021,2021.2.3,59.73651420746242,
,,,,,,,,stim/Instruction_adaptive.png,conditions/adaptive.xlsx,test,-0.6,-0.6,-0.6,0.6,0.6,left,L,,,,,0,1,1,1,0,45,45,35,,,,,,,,,,,,,,,,,,,,,,,,,,,,,,,,,,,,,,,,,,,,284.33351440005936,None,right,0,2.0018249000422657,284.8340223999694,286.45258409995586,284.8340223999694,285.95191870001145,284.8340223999694,285.95191870001145,284.8340223999694,285.95191870001145,284.8340223999694,285.95191870001145,284.8340223999694,285.95191870001145,285.91840770002455,286.419723500032,285.91840770002455,286.419723500032,285.91840770002455,286.419723500032,285.91840770002455,286.419723500032,285.91840770002455,286.419723500032,285.91840770002455,286.419723500032,285.91840770002455,286.419723500032,285.91840770002455,286.419723500032,284.8340223999694,None,286.419723500032,287.2709270999767,1.1100000000000008,287.28711359994486,None,288.0385934000369,None,,,,,,,[0.83652174],2.4700000000000015,0.782608695652174,11045,001,2024_Apr_13_1057,MFTM_A_new1021,2021.2.3,59.73651420746242,
,,,,,,,,stim/Instruction_adaptive.png,conditions/adaptive.xlsx,test,-0.6,-0.6,-0.6,0.6,0.6,left,L,,,,,0,1,1,1,0,46,46,21,,,,,,,,,,,,,,,,,,,,,,,,,,,,,,,,,,,,,,,,,,,,288.5391653999686,None,left,1,1.8434158000163734,289.03985930001363,290.7424995000474,289.03985930001363,290.24166859989055,289.03985930001363,290.24166859989055,289.03985930001363,290.24166859989055,289.03985930001363,290.24166859989055,289.03985930001363,290.24166859989055,290.20808999985456,290.7091546000447,290.20808999985456,290.7091546000447,290.20808999985456,290.7091546000447,290.20808999985456,290.7091546000447,290.20808999985456,290.7091546000447,290.20808999985456,290.7091546000447,290.20808999985456,290.7091546000447,290.20808999985456,290.7091546000447,289.03985930001363,None,290.7091546000447,291.56059719994664,1.1900000000000008,291.5775063999463,None,292.32840920006856,None,,,,,,,[0.84659574],2.5100000000000016,0.7872340425531915,11045,001,2024_Apr_13_1057,MFTM_A_new1021,2021.2.3,59.73651420746242,
,,,,,,,,stim/Instruction_adaptive.png,conditions/adaptive.xlsx,test,0.6,0.6,0.6,-0.6,-0.6,right,R,,,,,0,1,1,1,0,47,47,10,,,,,,,,,,,,,,,,,,,,,,,,,,,,,,,,,,,,,,,,,,,,292.8291745998431,None,left,0,2.0018418999388814,293.32969200005755,294.9826185000129,293.32969200005755,294.4814489998389,293.32969200005755,294.4814489998389,293.32969200005755,294.4814489998389,293.32969200005755,294.4814489998389,293.32969200005755,294.4814489998389,294.4646007998381,294.96570559986867,294.4646007998381,294.96570559986867,294.4646007998381,294.96570559986867,294.4646007998381,294.96570559986867,294.4646007998381,294.96570559986867,294.4646007998381,294.96570559986867,294.4646007998381,294.96570559986867,294.4646007998381,294.96570559986867,293.32969200005755,None,294.96570559986867,295.8334759999998,1.1500000000000008,295.85014189989306,None,296.60168059985153,None,,,,,,,[0.85708333],2.410000000000002,0.7708333333333334,11045,001,2024_Apr_13_1057,MFTM_A_new1021,2021.2.3,59.73651420746242,
,,,,,,,,stim/Instruction_adaptive.png,conditions/adaptive.xlsx,test,-0.6,-0.6,-0.6,0.6,0.6,left,L,,,,,0,1,1,1,0,48,48,73,,,,,,,,,,,,,,,,,,,,,,,,,,,,,,,,,,,,,,,,,,,,297.1020982998889,None,right,0,2.360855899984017,297.6028352000285,299.3559594999533,297.6028352000285,298.8551077998709,297.6028352000285,298.8551077998709,297.6028352000285,298.8551077998709,297.6028352000285,298.8551077998709,297.6028352000285,298.8551077998709,298.8216784000397,299.322033100063,298.8216784000397,299.322033100063,298.8216784000397,299.322033100063,298.8216784000397,299.322033100063,298.8216784000397,299.322033100063,298.8216784000397,299.322033100063,298.8216784000397,299.322033100063,298.8216784000397,299.322033100063,297.6028352000285,None,299.322033100063,300.1900939999614,1.2400000000000009,300.2238286000211,None,300.97455489984713,None,,,,,,,[0.86530612],2.3000000000000016,0.7551020408163265,11045,001,2024_Apr_13_1057,MFTM_A_new1021,2021.2.3,59.73651420746242,
,,,,,,,,stim/Instruction_adaptive.png,conditions/adaptive.xlsx,test,0.6,0.6,0.6,-0.6,-0.6,right,R,,,,,0,1,1,1,0,49,49,30,,,,,,,,,,,,,,,,,,,,,,,,,,,,,,,,,,,,,,,,,,,,301.4757381998934,None,right,1,2.3878379000816494,301.9760596998967,303.82885369984433,301.9760596998967,303.32804930000566,301.9760596998967,303.32804930000566,301.9760596998967,303.32804930000566,301.9760596998967,303.32804930000566,301.9760596998967,303.32804930000566,303.29471529996954,303.79564310004935,303.29471529996954,303.79564310004935,303.29471529996954,303.79564310004935,303.29471529996954,303.79564310004935,303.29471529996954,303.79564310004935,303.29471529996954,303.79564310004935,303.29471529996954,303.79564310004935,303.29471529996954,303.79564310004935,301.9760596998967,None,303.79564310004935,304.6801890998613,1.340000000000001,304.69703499996103,None,305.44801389984787,None,,,,,,,[0.8712],2.3400000000000016,0.76,11045,001,2024_Apr_13_1057,MFTM_A_new1021,2021.2.3,59.73651420746242,
,,,,,,,,stim/Instruction_adaptive.png,conditions/adaptive.xlsx,test,-0.6,-0.6,-0.6,0.6,0.6,left,L,,,,,0,1,1,1,0,50,50,43,,,,,,,,,,,,,,,,,,,,,,,,,,,,,,,,,,,,,,,,,,,,305.9488331999164,None,left,1,2.0824051999952644,306.44946589996107,308.25230609998107,306.44946589996107,307.7514243000187,306.44946589996107,307.7514243000187,306.44946589996107,307.7514243000187,306.44946589996107,307.7514243000187,306.44946589996107,307.7514243000187,307.73477789992467,308.2355311999563,307.73477789992467,308.2355311999563,307.73477789992467,308.2355311999563,307.73477789992467,308.2355311999563,307.73477789992467,308.2355311999563,307.73477789992467,308.2355311999563,307.73477789992467,308.2355311999563,307.73477789992467,308.2355311999563,306.44946589996107,None,308.2355311999563,309.11995860002935,1.300000000000001,309.1368627999909,None,309.88805909990333,None,,,,,,,[0.87764706],2.370000000000002,0.7647058823529411,11045,001,2024_Apr_13_1057,MFTM_A_new1021,2021.2.3,59.73651420746242,
,,,,,,,,stim/Instruction_adaptive.png,conditions/adaptive.xlsx,test,0.6,0.6,0.6,-0.6,-0.6,right,R,,,,,0,1,1,1,0,51,51,58,,,,,,,,,,,,,,,,,,,,,,,,,,,,,,,,,,,,,,,,,,,,310.389608199941,None,right,1,1.9217952999752015,310.88982079993,312.65881639998406,310.88982079993,312.17535579996184,310.88982079993,312.17535579996184,310.88982079993,312.17535579996184,310.88982079993,312.17535579996184,310.88982079993,312.17535579996184,312.14159399992786,312.6421328999568,312.14159399992786,312.6421328999568,312.14159399992786,312.6421328999568,312.14159399992786,312.6421328999568,312.14159399992786,312.6421328999568,312.14159399992786,312.6421328999568,312.14159399992786,312.6421328999568,312.14159399992786,312.6421328999568,310.88982079993,None,312.6421328999568,313.52731999987736,1.270000000000001,313.5434147999622,None,314.29590669996105,None,,,,,,,[0.88442308],2.410000000000002,0.7692307692307693,11045,001,2024_Apr_13_1057,MFTM_A_new1021,2021.2.3,59.73651420746242,
,,,,,,,,stim/Instruction_adaptive.png,conditions/adaptive.xlsx,test,0.6,0.6,0.6,-0.6,-0.6,right,R,,,,,0,1,1,1,0,52,52,36,,,,,,,,,,,,,,,,,,,,,,,,,,,,,,,,,,,,,,,,,,,,314.7954392998945,None,right,1,2.3550975997932255,315.2969400999136,317.04912519990467,315.2969400999136,316.54812170006335,315.2969400999136,316.54812170006335,315.2969400999136,316.54812170006335,315.2969400999136,316.54812170006335,315.2969400999136,316.54812170006335,316.51474440004677,317.0154327999335,316.51474440004677,317.0154327999335,316.51474440004677,317.0154327999335,316.51474440004677,317.0154327999335,316.51474440004677,317.0154327999335,316.51474440004677,317.0154327999335,316.51474440004677,317.0154327999335,316.51474440004677,317.0154327999335,315.2969400999136,None,317.0154327999335,317.91688999999315,1.2400000000000009,317.93353559984826,None,318.6845486999955,None,,,,,,,[0.89150943],2.4400000000000017,0.7735849056603774,11045,001,2024_Apr_13_1057,MFTM_A_new1021,2021.2.3,59.73651420746242,
,,,,,,,,stim/Instruction_adaptive.png,conditions/adaptive.xlsx,test,-0.6,-0.6,-0.6,0.6,0.6,left,L,,,,,0,1,1,1,0,53,53,77,,,,,,,,,,,,,,,,,,,,,,,,,,,,,,,,,,,,,,,,,,,,319.1866313999053,None,right,0,2.4140438998583704,319.6861616000533,321.40581929986365,319.6861616000533,320.90463409991935,319.6861616000533,320.90463409991935,319.6861616000533,320.90463409991935,319.6861616000533,320.90463409991935,319.6861616000533,320.90463409991935,320.8712357999757,321.37206820002757,320.8712357999757,321.37206820002757,320.8712357999757,321.37206820002757,320.8712357999757,321.37206820002757,320.8712357999757,321.37206820002757,320.8712357999757,321.37206820002757,320.8712357999757,321.37206820002757,320.8712357999757,321.37206820002757,319.6861616000533,None,321.37206820002757,322.27379520004615,1.2100000000000009,322.3067331998609,None,323.0584221999161,None,,,,,,,[0.89888889],2.3400000000000016,0.7592592592592593,11045,001,2024_Apr_13_1057,MFTM_A_new1021,2021.2.3,59.73651420746242,
,,,,,,,,stim/Instruction_adaptive.png,conditions/adaptive.xlsx,test,-0.6,-0.6,-0.6,0.6,0.6,left,L,,,,,0,1,1,1,0,54,54,23,,,,,,,,,,,,,,,,,,,,,,,,,,,,,,,,,,,,,,,,,,,,323.55927249998786,None,left,1,2.296677100006491,324.0596115998924,325.8622136998456,324.0596115998924,325.3614751000423,324.0596115998924,325.3614751000423,324.0596115998924,325.3614751000423,324.0596115998924,325.3614751000423,324.0596115998924,325.3614751000423,325.3449667999521,325.84563179989345,325.3449667999521,325.84563179989345,325.3449667999521,325.84563179989345,325.3449667999521,325.84563179989345,325.3449667999521,325.84563179989345,325.3449667999521,325.84563179989345,325.3449667999521,325.84563179989345,325.3449667999521,325.84563179989345,324.0596115998924,None,325.84563179989345,None,1.300000000000001,326.7637219999451,None,327.5146206000354,None,,,,,,,[0.90436364],2.3800000000000017,0.7636363636363637,11045,001,2024_Apr_13_1057,MFTM_A_new1021,2021.2.3,59.73651420746242,
,,,,,,,,stim/Instruction_adaptive.png,conditions/adaptive.xlsx,test,-0.6,-0.6,-0.6,0.6,0.6,left,L,,,,,0,1,1,1,0,55,55,27,,,,,,,,,,,,,,,,,,,,,,,,,,,,,,,,,,,,,,,,,,,,328.01538580004126,None,right,0,2.0314411998260766,328.5167890000157,330.2859674000647,328.5167890000157,329.78477060003206,328.5167890000157,329.78477060003206,328.5167890000157,329.78477060003206,328.5167890000157,329.78477060003206,328.5167890000157,329.78477060003206,329.75141589995474,330.2521295999177,329.75141589995474,330.2521295999177,329.75141589995474,330.2521295999177,329.75141589995474,330.2521295999177,329.75141589995474,330.2521295999177,329.75141589995474,330.2521295999177,329.75141589995474,330.2521295999177,329.75141589995474,330.2521295999177,328.5167890000157,None,330.2521295999177,331.1706814998761,1.260000000000001,331.18668769998476,None,331.937968299957,None,,,,,,,[0.91035714],2.2800000000000016,0.75,11045,001,2024_Apr_13_1057,MFTM_A_new1021,2021.2.3,59.73651420746242,
,,,,,,,,stim/Instruction_adaptive.png,conditions/adaptive.xlsx,test,-0.6,-0.6,-0.6,0.6,0.6,left,L,,,,,0,1,1,1,0,56,56,11,,,,,,,,,,,,,,,,,,,,,,,,,,,,,,,,,,,,,,,,,,,,332.4393598998431,None,left,1,2.856560700107366,332.93978699995205,334.7922972999513,332.93978699995205,334.2917985999957,332.93978699995205,334.2917985999957,332.93978699995205,334.2917985999957,332.93978699995205,334.2917985999957,332.93978699995205,334.2917985999957,334.2747422999237,334.77568279998377,334.2747422999237,334.77568279998377,334.2747422999237,334.77568279998377,334.2747422999237,334.77568279998377,334.2747422999237,334.77568279998377,334.2747422999237,334.77568279998377,334.2747422999237,334.77568279998377,334.2747422999237,334.77568279998377,332.93978699995205,None,334.77568279998377,335.8272195998579,1.350000000000001,335.84397389995866,None,336.5951714999974,None,,,,,,,[0.9145614],2.3100000000000014,0.7543859649122807,11045,001,2024_Apr_13_1057,MFTM_A_new1021,2021.2.3,59.73651420746242,
,,,,,,,,stim/Instruction_adaptive.png,conditions/adaptive.xlsx,test,-0.6,-0.6,-0.6,0.6,0.6,left,L,,,,,0,1,1,1,0,57,57,59,,,,,,,,,,,,,,,,,,,,,,,,,,,,,,,,,,,,,,,,,,,,337.0958630000241,None,right,0,2.807588299969211,337.5972611999605,339.4325188000221,337.5972611999605,338.9319038998801,337.5972611999605,338.9319038998801,337.5972611999605,338.9319038998801,337.5972611999605,338.9319038998801,337.5972611999605,338.9319038998801,338.9153225000482,339.41594689991325,338.9153225000482,339.41594689991325,338.9153225000482,339.41594689991325,338.9153225000482,339.41594689991325,338.9153225000482,339.41594689991325,338.9153225000482,339.41594689991325,338.9153225000482,339.41594689991325,338.9153225000482,339.41594689991325,337.5972611999605,None,339.399305799976,340.43422279995866,1.330000000000001,340.4509014999494,None,341.20216179988347,None,,,,,,,[0.91896552],2.2200000000000015,0.7413793103448276,11045,001,2024_Apr_13_1057,MFTM_A_new1021,2021.2.3,59.73651420746242,
,,,,,,,,stim/Instruction_adaptive.png,conditions/adaptive.xlsx,test,-0.6,-0.6,-0.6,0.6,0.6,left,L,,,,,0,1,1,1,0,58,58,17,,,,,,,,,,,,,,,,,,,,,,,,,,,,,,,,,,,,,,,,,,,,341.70273369993083,None,left,1,2.4404763001948595,342.2040579000022,344.12353469990194,342.2040579000022,343.6225312000606,342.2040579000022,343.6225312000606,342.2040579000022,343.6225312000606,342.2040579000022,343.6225312000606,342.2040579000022,343.6225312000606,343.58907649992034,344.0896266999189,343.58907649992034,344.0896266999189,343.58907649992034,344.0896266999189,343.58907649992034,344.0896266999189,343.58907649992034,344.0896266999189,343.58907649992034,344.0896266999189,343.58907649992034,344.0896266999189,343.58907649992034,344.0896266999189,342.2040579000022,None,344.0896266999189,345.0247752000578,1.410000000000001,345.0411387998611,None,345.7926225999836,None,,,,,,,[0.92186441],2.2500000000000018,0.7457627118644068,11045,001,2024_Apr_13_1057,MFTM_A_new1021,2021.2.3,59.73651420746242,
,,,,,,,,stim/Instruction_adaptive.png,conditions/adaptive.xlsx,test,0.6,0.6,0.6,-0.6,-0.6,right,R,,,,,0,1,1,1,0,59,59,48,,,,,,,,,,,,,,,,,,,,,,,,,,,,,,,,,,,,,,,,,,,,346.29365090001374,None,right,1,1.6749006998725235,346.7938141999766,348.68004129990004,346.7938141999766,348.1792684998363,346.7938141999766,348.1792684998363,346.7938141999766,348.1792684998363,346.7938141999766,348.1792684998363,346.7938141999766,348.1792684998363,348.16258040000685,348.66329449997284,348.16258040000685,348.66329449997284,348.16258040000685,348.66329449997284,348.16258040000685,348.66329449997284,348.16258040000685,348.66329449997284,348.16258040000685,348.66329449997284,348.16258040000685,348.66329449997284,348.16258040000685,348.66329449997284,346.7938141999766,None,348.66329449997284,None,1.380000000000001,349.5980040000286,None,350.349550700048,None,,,,,,,[0.92516667],2.2800000000000016,0.75,11045,001,2024_Apr_13_1057,MFTM_A_new1021,2021.2.3,59.73651420746242,
,,,,,,,,stim/Instruction_adaptive.png,conditions/adaptive.xlsx,test,-0.6,-0.6,-0.6,0.6,0.6,left,L,,,,,0,1,1,1,0,60,60,29,,,,,,,,,,,,,,,,,,,,,,,,,,,,,,,,,,,,,,,,,,,,350.84986019995995,None,left,1,2.3343547000549734,351.3507437000517,353.203637199942,351.3507437000517,352.7027133000083,351.3507437000517,352.7027133000083,351.3507437000517,352.7027133000083,351.3507437000517,352.7027133000083,351.3507437000517,352.7027133000083,352.68602039990947,353.18662919988856,352.68602039990947,353.18662919988856,352.68602039990947,353.18662919988856,352.68602039990947,353.18662919988856,352.68602039990947,353.18662919988856,352.68602039990947,353.18662919988856,352.68602039990947,353.18662919988856,352.68602039990947,353.18662919988856,351.3507437000517,None,353.18662919988856,354.12308709998615,1.350000000000001,354.13809200003743,None,354.88929890003055,None,,,,,,,[0.92885246],2.3100000000000014,0.7540983606557377,11045,001,2024_Apr_13_1057,MFTM_A_new1021,2021.2.3,59.73651420746242,
,,,,,,,,stim/Instruction_adaptive.png,conditions/adaptive.xlsx,test,0.6,0.6,0.6,-0.6,-0.6,right,R,,,,,0,1,1,1,0,61,61,14,,,,,,,,,,,,,,,,,,,,,,,,,,,,,,,,,,,,,,,,,,,,355.39031290006824,None,right,1,2.4581548999994993,355.89081809995696,357.7268211999908,355.89081809995696,357.2262514999602,355.89081809995696,357.2262514999602,355.89081809995696,357.2262514999602,355.89081809995696,357.2262514999602,355.89081809995696,357.2262514999602,357.2097354000434,357.71028349990956,357.2097354000434,357.71028349990956,357.2097354000434,357.71028349990956,357.2097354000434,357.71028349990956,357.2097354000434,357.71028349990956,357.2097354000434,357.71028349990956,357.2097354000434,357.71028349990956,357.2097354000434,357.71028349990956,355.89081809995696,None,357.71028349990956,358.64549049991183,1.330000000000001,358.66184109984897,None,359.41279620002024,None,,,,,,,[0.93274194],2.3400000000000016,0.7580645161290323,11045,001,2024_Apr_13_1057,MFTM_A_new1021,2021.2.3,59.73651420746242,
,,,,,,,,stim/Instruction_adaptive.png,conditions/adaptive.xlsx,test,0.6,0.6,0.6,-0.6,-0.6,right,R,,,,,0,1,1,1,0,62,62,62,,,,,,,,,,,,,,,,,,,,,,,,,,,,,,,,,,,,,,,,,,,,359.9146964000538,None,left,0,2.8630492999218404,360.41432760003954,362.2172475999687,360.41432760003954,361.71628859988414,360.41432760003954,361.71628859988414,360.41432760003954,361.71628859988414,360.41432760003954,361.71628859988414,360.41432760003954,361.71628859988414,361.6996835998725,362.200247899862,361.6996835998725,362.200247899862,361.6996835998725,362.200247899862,361.6996835998725,362.200247899862,361.6996835998725,362.200247899862,361.6996835998725,362.200247899862,361.6996835998725,362.200247899862,361.6996835998725,362.200247899862,360.41432760003954,None,362.200247899862,363.30202819989063,1.300000000000001,363.31857399991713,None,364.06993869994767,None,,,,,,,[0.93698413],2.2600000000000016,0.746031746031746,11045,001,2024_Apr_13_1057,MFTM_A_new1021,2021.2.3,59.73651420746242,
,,,,,,,,stim/Instruction_adaptive.png,conditions/adaptive.xlsx,test,0.6,0.6,0.6,-0.6,-0.6,right,R,,,,,0,1,1,1,0,63,63,26,,,,,,,,,,,,,,,,,,,,,,,,,,,,,,,,,,,,,,,,,,,,364.57065719994716,None,right,1,1.9099175999872386,365.07123030000366,366.9409699998796,365.07123030000366,366.45691419998184,365.07123030000366,366.45691419998184,365.07123030000366,366.45691419998184,365.07123030000366,366.45691419998184,365.07123030000366,366.45691419998184,366.4233553998638,366.9255865998566,366.4233553998638,366.9255865998566,366.4233553998638,366.9255865998566,366.4233553998638,366.9255865998566,366.4233553998638,366.9255865998566,366.4233553998638,366.9255865998566,366.4233553998638,366.9255865998566,366.4233553998638,366.9255865998566,365.07123030000366,None,366.9255865998566,367.87668469990604,1.370000000000001,367.89268329995684,None,368.64333610003814,None,,,,,,,[0.94],2.290000000000002,0.75,11045,001,2024_Apr_13_1057,MFTM_A_new1021,2021.2.3,59.73651420746242,
,,,,,,,,stim/Instruction_adaptive.png,conditions/adaptive.xlsx,test,0.6,0.6,0.6,-0.6,-0.6,right,R,,,,,0,1,1,1,0,64,64,72,,,,,,,,,,,,,,,,,,,,,,,,,,,,,,,,,,,,,,,,,,,,369.14418779988773,None,right,1,2.2003098998684436,369.64537089993246,371.4976339000277,369.64537089993246,370.99683399987407,369.64537089993246,370.99683399987407,369.64537089993246,370.99683399987407,369.64537089993246,370.99683399987407,369.64537089993246,370.99683399987407,370.9805051998701,371.4814446999226,370.9805051998701,371.4814446999226,370.9805051998701,371.4814446999226,370.9805051998701,371.4814446999226,370.9805051998701,371.4814446999226,370.9805051998701,371.4814446999226,370.9805051998701,371.4814446999226,370.9805051998701,371.4814446999226,369.64537089993246,None,371.4814446999226,372.4323928998783,1.350000000000001,372.449174300069,None,373.2004855000414,None,,,,,,,[0.94323077],2.3200000000000016,0.7538461538461538,11045,001,2024_Apr_13_1057,MFTM_A_new1021,2021.2.3,59.73651420746242,
,,,,,,,,stim/Instruction_adaptive.png,conditions/adaptive.xlsx,test,0.6,0.6,0.6,-0.6,-0.6,right,R,,,,,0,1,1,1,0,65,65,60,,,,,,,,,,,,,,,,,,,,,,,,,,,,,,,,,,,,,,,,,,,,373.70091559994034,None,right,1,3.460665399907157,374.2018633999396,376.0216186000034,374.2018633999396,375.53730640001595,374.2018633999396,375.53730640001595,374.2018633999396,375.53730640001595,374.2018633999396,375.53730640001595,374.2018633999396,375.53730640001595,375.50410120002925,376.0051190999802,375.50410120002925,376.0051190999802,375.50410120002925,376.0051190999802,375.50410120002925,376.0051190999802,375.50410120002925,376.0051190999802,375.50410120002925,376.0051190999802,375.50410120002925,376.0051190999802,375.50410120002925,376.0051190999802,374.2018633999396,None,376.0051190999802,377.69050799985416,1.320000000000001,377.707065399969,None,378.45837879995815,None,,,,,,,[0.94681818],2.3400000000000016,0.7575757575757576,11045,001,2024_Apr_13_1057,MFTM_A_new1021,2021.2.3,59.73651420746242,
,,,,,,,,stim/Instruction_adaptive.png,conditions/adaptive.xlsx,test,0.6,0.6,0.6,-0.6,-0.6,right,R,,,,,0,1,1,1,0,66,66,78,,,,,,,,,,,,,,,,,,,,,,,,,,,,,,,,,,,,,,,,,,,,378.95958060002886,None,right,1,2.938101600157097,379.4597930999007,381.26244439999573,379.4597930999007,380.76174920005724,379.4597930999007,380.76174920005724,379.4597930999007,380.76174920005724,379.4597930999007,380.76174920005724,379.4597930999007,380.76174920005724,380.74514489993453,381.2460018999409,380.74514489993453,381.2460018999409,380.74514489993453,381.2460018999409,380.74514489993453,381.2460018999409,380.74514489993453,381.2460018999409,380.74514489993453,381.2460018999409,380.74514489993453,381.2460018999409,380.74514489993453,381.2460018999409,379.4597930999007,None,381.2460018999409,382.41441039997153,1.300000000000001,382.4309900999069,None,383.1822003000416,None,,,,,,,[0.95059701],2.370000000000002,0.7611940298507462,11045,001,2024_Apr_13_1057,MFTM_A_new1021,2021.2.3,59.73651420746242,
,,,,,,,,stim/Instruction_adaptive.png,conditions/adaptive.xlsx,test,-0.6,-0.6,-0.6,0.6,0.6,left,L,,,,,0,1,1,1,0,67,67,79,,,,,,,,,,,,,,,,,,,,,,,,,,,,,,,,,,,,,,,,,,,,383.6829585998785,None,left,1,2.4303376998286694,384.1834879000671,385.9529252999928,384.1834879000671,385.4688176999334,384.1834879000671,385.4688176999334,384.1834879000671,385.4688176999334,384.1834879000671,385.4688176999334,384.1834879000671,385.4688176999334,385.4352549999021,385.9363946998492,385.4352549999021,385.9363946998492,385.4352549999021,385.9363946998492,385.4352549999021,385.9363946998492,385.4352549999021,385.9363946998492,385.4352549999021,385.9363946998492,385.4352549999021,385.9363946998492,385.4352549999021,385.9363946998492,384.1834879000671,None,385.9363946998492,386.904090099968,1.270000000000001,386.9208006998524,None,387.67254409985617,None,,,,,,,[0.95470588],2.4000000000000017,0.7647058823529411,11045,001,2024_Apr_13_1057,MFTM_A_new1021,2021.2.3,59.73651420746242,
,,,,,,,,stim/Instruction_adaptive.png,conditions/adaptive.xlsx,test,0.6,0.6,0.6,-0.6,-0.6,right,R,,,,,0,1,1,1,0,68,68,20,,,,,,,,,,,,,,,,,,,,,,,,,,,,,,,,,,,,,,,,,,,,388.17296050000004,None,None,0,0,388.6736494998913,390.4267436999362,388.6736494998913,389.92566010006703,388.6736494998913,389.92566010006703,388.6736494998913,389.92566010006703,388.6736494998913,389.92566010006703,388.6736494998913,389.92566010006703,389.908780900063,390.40941229998134,389.908780900063,390.40941229998134,389.908780900063,390.40941229998134,389.908780900063,390.40941229998134,389.908780900063,390.40941229998134,389.908780900063,390.40941229998134,389.908780900063,390.40941229998134,389.908780900063,390.40941229998134,388.6736494998913,None,390.40941229998134,392.16232010000385,1.2500000000000009,392.17871590005234,None,392.929930599872,None,,,,,,,[[1.75]],2.3200000000000016,0.7536231884057971,11045,001,2024_Apr_13_1057,MFTM_A_new1021,2021.2.3,59.73651420746242,
,,,,,,,,stim/Instruction_adaptive.png,conditions/adaptive.xlsx,test,-0.6,-0.6,-0.6,0.6,0.6,left,L,,,,,0,1,1,1,0,69,69,87,,,,,,,,,,,,,,,,,,,,,,,,,,,,,,,,,,,,,,,,,,,,393.4313533999957,None,left,1,1.1702219999860972,393.93171010003425,395.75114959990606,393.93171010003425,395.26695679989643,393.93171010003425,395.26695679989643,393.93171010003425,395.26695679989643,393.93171010003425,395.26695679989643,393.93171010003425,395.26695679989643,395.23358660005033,395.73445299989544,395.23358660005033,395.73445299989544,395.23358660005033,395.73445299989544,395.23358660005033,395.73445299989544,395.23358660005033,395.73445299989544,395.23358660005033,395.73445299989544,395.23358660005033,395.73445299989544,395.23358660005033,395.73445299989544,393.93171010003425,None,395.73445299989544,396.7027811000589,1.320000000000001,396.7191520000342,None,397.47023019986227,None,,,,,,,[0.96214286],2.3500000000000014,0.7571428571428571,11045,001,2024_Apr_13_1057,MFTM_A_new1021,2021.2.3,59.73651420746242,
,,,,,,,,stim/Instruction_adaptive.png,conditions/adaptive.xlsx,test,-0.6,-0.6,-0.6,0.6,0.6,left,L,,,,,0,1,1,1,0,70,70,61,,,,,,,,,,,,,,,,,,,,,,,,,,,,,,,,,,,,,,,,,,,,397.9709693000186,None,right,0,1.5265576001256704,398.4716057998594,400.2755537000485,398.4716057998594,399.7738508998882,398.4716057998594,399.7738508998882,398.4716057998594,399.7738508998882,398.4716057998594,399.7738508998882,398.4716057998594,399.7738508998882,399.74056409997866,400.24181939987466,399.74056409997866,400.24181939987466,399.74056409997866,400.24181939987466,399.74056409997866,400.24181939987466,399.74056409997866,400.24181939987466,399.74056409997866,400.24181939987466,399.74056409997866,400.24181939987466,399.74056409997866,400.24181939987466,398.4716057998594,None,400.24181939987466,401.20915420004167,1.290000000000001,401.2426207999233,None,401.9937984999269,None,,,,,,,[0.9656338],2.2700000000000014,0.7464788732394366,11045,001,2024_Apr_13_1057,MFTM_A_new1021,2021.2.3,59.73651420746242,
,,,,,,,,stim/Instruction_adaptive.png,conditions/adaptive.xlsx,test,0.6,0.6,0.6,-0.6,-0.6,right,R,,,,,0,1,1,1,0,71,71,22,,,,,,,,,,,,,,,,,,,,,,,,,,,,,,,,,,,,,,,,,,,,402.49463099986315,None,right,1,2.1309307001065463,402.99536169995554,404.8647618999239,402.99536169995554,404.3639167000074,402.99536169995554,404.3639167000074,402.99536169995554,404.3639167000074,402.99536169995554,404.3639167000074,402.99536169995554,404.3639167000074,404.3304860999342,404.83210329990834,404.3304860999342,404.83210329990834,404.3304860999342,404.83210329990834,404.3304860999342,404.83210329990834,404.3304860999342,404.83210329990834,404.3304860999342,404.83210329990834,404.3304860999342,404.83210329990834,404.3304860999342,404.83210329990834,402.99536169995554,None,404.83210329990834,405.79928539996035,1.360000000000001,405.83293769997545,None,406.5838937999215,None,,,,,,,[0.96805556],2.3000000000000016,0.75,11045,001,2024_Apr_13_1057,MFTM_A_new1021,2021.2.3,59.73651420746242,
,,,,,,,,stim/Instruction_adaptive.png,conditions/adaptive.xlsx,test,0.6,0.6,0.6,-0.6,-0.6,right,R,,,,,0,1,1,1,0,72,72,52,,,,,,,,,,,,,,,,,,,,,,,,,,,,,,,,,,,,,,,,,,,,407.0846750999335,None,right,1,2.469620400108397,407.58547529997304,409.43832849990577,407.58547529997304,408.9375980999321,407.58547529997304,408.9375980999321,407.58547529997304,408.9375980999321,407.58547529997304,408.9375980999321,407.58547529997304,408.9375980999321,408.90435700002126,409.4049670000095,408.90435700002126,409.4049670000095,408.90435700002126,409.4049670000095,408.90435700002126,409.4049670000095,408.90435700002126,409.4049670000095,408.90435700002126,409.4049670000095,408.90435700002126,409.4049670000095,408.90435700002126,409.4049670000095,407.58547529997304,None,409.4049670000095,410.389694100013,1.340000000000001,410.40648919995874,None,411.15775620006025,None,,,,,,,[0.97068493],2.3200000000000016,0.7534246575342466,11045,001,2024_Apr_13_1057,MFTM_A_new1021,2021.2.3,59.73651420746242,
,,,,,,,,stim/Instruction_adaptive.png,conditions/adaptive.xlsx,test,-0.6,-0.6,-0.6,0.6,0.6,left,L,,,,,0,1,1,1,0,73,73,19,,,,,,,,,,,,,,,,,,,,,,,,,,,,,,,,,,,,,,,,,,,,411.65827739983797,None,left,1,1.9918349001090974,412.15917370002717,413.9784831998404,412.15917370002717,413.4947661999613,412.15917370002717,413.4947661999613,412.15917370002717,413.4947661999613,412.15917370002717,413.4947661999613,412.15917370002717,413.4947661999613,413.4611404000316,413.96213190001436,413.4611404000316,413.96213190001436,413.4611404000316,413.96213190001436,413.4611404000316,413.96213190001436,413.4611404000316,413.96213190001436,413.4611404000316,413.96213190001436,413.4611404000316,413.96213190001436,413.4611404000316,413.96213190001436,412.15917370002717,None,413.96213190001436,414.94702750002034,1.320000000000001,414.96313419984654,None,415.71469329996035,None,,,,,,,[0.97351351],2.3500000000000014,0.7567567567567568,11045,001,2024_Apr_13_1057,MFTM_A_new1021,2021.2.3,59.73651420746242,
,,,,,,,,stim/Instruction_adaptive.png,conditions/adaptive.xlsx,test,-0.6,-0.6,-0.6,0.6,0.6,left,L,,,,,0,1,1,1,0,74,74,83,,,,,,,,,,,,,,,,,,,,,,,,,,,,,,,,,,,,,,,,,,,,416.2153165000491,None,left,1,1.859187499852851,416.7160495000426,418.5190320999827,416.7160495000426,418.0186572999228,416.7160495000426,418.0186572999228,416.7160495000426,418.0186572999228,416.7160495000426,418.0186572999228,416.7160495000426,418.0186572999228,417.984481099993,418.4853808998596,417.984481099993,418.4853808998596,417.984481099993,418.4853808998596,417.984481099993,418.4853808998596,417.984481099993,418.4853808998596,417.984481099993,418.4853808998596,417.984481099993,418.4853808998596,417.984481099993,418.4853808998596,416.7160495000426,None,418.4853808998596,419.4700637999922,1.290000000000001,419.48691059998237,None,420.2384502000641,None,,,,,,,[0.97666667],2.370000000000002,0.76,11045,001,2024_Apr_13_1057,MFTM_A_new1021,2021.2.3,59.73651420746242,
,,,,,,,,stim/Instruction_adaptive.png,conditions/adaptive.xlsx,test,-0.6,-0.6,-0.6,0.6,0.6,left,L,,,,,0,1,1,1,0,75,75,67,,,,,,,,,,,,,,,,,,,,,,,,,,,,,,,,,,,,,,,,,,,,420.73880659998395,None,left,1,1.9117286999244243,421.2394180998672,423.0088758999482,421.2394180998672,422.5246204000432,421.2394180998672,422.5246204000432,421.2394180998672,422.5246204000432,421.2394180998672,422.5246204000432,421.2394180998672,422.5246204000432,422.4916021998506,422.9929738000501,422.4916021998506,422.9929738000501,422.4916021998506,422.9929738000501,422.4916021998506,422.9929738000501,422.4916021998506,422.9929738000501,422.4916021998506,422.9929738000501,422.4916021998506,422.9929738000501,422.4916021998506,422.9929738000501,421.2394180998672,None,422.9929738000501,423.97673929994926,1.270000000000001,423.9936778000556,None,424.7447130999062,None,,,,,,,[0.98],2.4000000000000017,0.7631578947368421,11045,001,2024_Apr_13_1057,MFTM_A_new1021,2021.2.3,59.73651420746242,
,,,,,,,,stim/Instruction_adaptive.png,conditions/adaptive.xlsx,test,-0.6,-0.6,-0.6,0.6,0.6,left,L,,,,,0,1,1,1,0,76,76,47,,,,,,,,,,,,,,,,,,,,,,,,,,,,,,,,,,,,,,,,,,,,425.2459541999269,None,left,1,2.2850823998451233,425.7463656999171,427.49927180004306,425.7463656999171,426.99828389985487,425.7463656999171,426.99828389985487,425.7463656999171,426.99828389985487,425.7463656999171,426.99828389985487,425.7463656999171,426.99828389985487,426.9820129999425,427.482505899854,426.9820129999425,427.482505899854,426.9820129999425,427.482505899854,426.9820129999425,427.482505899854,426.9820129999425,427.482505899854,426.9820129999425,427.482505899854,426.9820129999425,427.482505899854,426.9820129999425,427.482505899854,425.7463656999171,None,427.482505899854,428.46711259987205,1.2500000000000009,428.4838377998676,None,429.2349229999818,None,,,,,,,[0.98350649],2.4200000000000017,0.7662337662337663,11045,001,2024_Apr_13_1057,MFTM_A_new1021,2021.2.3,59.73651420746242,
,,,,,,,,stim/Instruction_adaptive.png,conditions/adaptive.xlsx,test,-0.6,-0.6,-0.6,0.6,0.6,left,L,,,,,0,1,1,1,0,77,77,95,,,,,,,,,,,,,,,,,,,,,,,,,,,,,,,,,,,,,,,,,,,,429.73583789984696,None,left,1,1.4751754000317305,430.2364407000132,431.9724189999979,430.2364407000132,431.4714526999742,430.2364407000132,431.4714526999742,430.2364407000132,431.4714526999742,430.2364407000132,431.4714526999742,430.2364407000132,431.4714526999742,431.4549747998826,431.9556927999947,431.4549747998826,431.9556927999947,431.4549747998826,431.9556927999947,431.4549747998826,431.9556927999947,431.4549747998826,431.9556927999947,431.4549747998826,431.9556927999947,431.4549747998826,431.9556927999947,431.4549747998826,431.9556927999947,430.2364407000132,None,431.9556927999947,None,1.2300000000000009,432.9570839998778,None,433.70812839991413,None,,,,,,,[0.98717949],2.4400000000000017,0.7692307692307693,11045,001,2024_Apr_13_1057,MFTM_A_new1021,2021.2.3,59.73651420746242,
,,,,,,,,stim/Instruction_adaptive.png,conditions/adaptive.xlsx,test,0.6,0.6,0.6,-0.6,-0.6,right,R,,,,,0,1,1,1,0,78,78,96,,,,,,,,,,,,,,,,,,,,,,,,,,,,,,,,,,,,,,,,,,,,434.20942800003104,None,right,1,1.3696010999847203,434.7098431000486,436.42909019999206,434.7098431000486,435.9282783998642,434.7098431000486,435.9282783998642,434.7098431000486,435.9282783998642,434.7098431000486,435.9282783998642,434.7098431000486,435.9282783998642,435.8947727000341,436.3956846999936,435.8947727000341,436.3956846999936,435.8947727000341,436.3956846999936,435.8947727000341,436.3956846999936,435.8947727000341,436.3956846999936,435.8947727000341,436.3956846999936,435.8947727000341,436.3956846999936,435.8947727000341,436.3956846999936,434.7098431000486,None,436.3956846999936,437.3974736998789,1.2100000000000009,437.41374780004844,None,438.16568659991026,None,,,,,,,[0.99101266],2.4600000000000017,0.7721518987341772,11045,001,2024_Apr_13_1057,MFTM_A_new1021,2021.2.3,59.73651420746242,
,,,,,,,,stim/Instruction_adaptive.png,conditions/adaptive.xlsx,test,0.6,0.6,0.6,-0.6,-0.6,right,R,,,,,0,1,1,1,0,79,79,54,,,,,,,,,,,,,,,,,,,,,,,,,,,,,,,,,,,,,,,,,,,,438.6657477999106,None,right,1,1.4407532999757677,439.166676199995,440.86930239992216,439.166676199995,440.3683457998559,439.166676199995,440.3683457998559,439.166676199995,440.3683457998559,439.166676199995,440.3683457998559,439.166676199995,440.3683457998559,440.35168369999155,440.8524118999485,440.35168369999155,440.8524118999485,440.35168369999155,440.8524118999485,440.35168369999155,440.8524118999485,440.35168369999155,440.8524118999485,440.35168369999155,440.8524118999485,440.35168369999155,440.8524118999485,440.35168369999155,440.8524118999485,439.166676199995,None,440.8524118999485,441.8545500000473,1.2000000000000008,441.8706509000622,None,442.6218403999228,None,,,,,,,[0.994875],2.490000000000002,0.775,11045,001,2024_Apr_13_1057,MFTM_A_new1021,2021.2.3,59.73651420746242,
,,,,,,,,stim/Instruction_adaptive.png,conditions/adaptive.xlsx,test,0.6,0.6,0.6,-0.6,-0.6,right,R,,,,,0,1,1,1,0,80,80,0,,,,,,,,,,,,,,,,,,,,,,,,,,,,,,,,,,,,,,,,,,,,443.12288679997437,None,right,1,1.6331654000096023,443.6232845999766,445.29237379995175,443.6232845999766,444.8087929999456,443.6232845999766,444.8087929999456,443.6232845999766,444.8087929999456,443.6232845999766,444.8087929999456,443.6232845999766,444.8087929999456,444.77500339993276,445.27566289994866,444.77500339993276,445.27566289994866,444.77500339993276,445.27566289994866,444.77500339993276,445.27566289994866,444.77500339993276,445.27566289994866,444.77500339993276,445.27566289994866,444.77500339993276,445.27566289994866,444.77500339993276,445.27566289994866,443.6232845999766,None,445.27566289994866,446.27759839990176,1.1700000000000008,446.2940022998955,None,447.0454259000253,None,,,,,,,[0.99901235],2.5100000000000016,0.7777777777777778,11045,001,2024_Apr_13_1057,MFTM_A_new1021,2021.2.3,59.73651420746242,
,,,,,,,,stim/Instruction_adaptive.png,conditions/adaptive.xlsx,test,0.6,0.6,0.6,-0.6,-0.6,right,R,,,,,0,1,1,1,0,81,81,6,,,,,,,,,,,,,,,,,,,,,,,,,,,,,,,,,,,,,,,,,,,,447.54588499991223,None,left,0,1.70518789999187,448.0467781999614,449.6989857999142,448.0467781999614,449.198370099999,448.0467781999614,449.198370099999,448.0467781999614,449.198370099999,448.0467781999614,449.198370099999,448.0467781999614,449.198370099999,449.18210879992694,449.68242829991505,449.18210879992694,449.68242829991505,449.18210879992694,449.68242829991505,449.18210879992694,449.68242829991505,449.18210879992694,449.68242829991505,449.18210879992694,449.68242829991505,449.18210879992694,449.68242829991505,449.18210879992694,449.68242829991505,448.0467781999614,None,449.68242829991505,None,1.1500000000000008,450.70058599999174,None,451.4518196999561,None,,,,,,,[1.00329268],2.450000000000002,0.7682926829268293,11045,001,2024_Apr_13_1057,MFTM_A_new1021,2021.2.3,59.73651420746242,
,,,,,,,,stim/Instruction_adaptive.png,conditions/adaptive.xlsx,test,-0.6,-0.6,-0.6,0.6,0.6,left,L,,,,,0,1,1,1,0,82,82,33,,,,,,,,,,,,,,,,,,,,,,,,,,,,,,,,,,,,,,,,,,,,451.9526605999563,None,right,0,1.6822904001455754,452.45382809988223,454.15585380000994,452.45382809988223,453.6553591999691,452.45382809988223,453.6553591999691,452.45382809988223,453.6553591999691,452.45382809988223,453.6553591999691,452.45382809988223,453.6553591999691,453.6384850998875,454.13908990006894,453.6384850998875,454.13908990006894,453.6384850998875,454.13908990006894,453.6384850998875,454.13908990006894,453.6384850998875,454.13908990006894,453.6384850998875,454.13908990006894,453.6384850998875,454.13908990006894,453.6384850998875,454.13908990006894,452.45382809988223,None,454.13908990006894,455.15729540004395,1.2000000000000008,455.1740298999939,None,455.9253558998462,None,,,,,,,[1.00686747],2.3800000000000017,0.7590361445783133,11045,001,2024_Apr_13_1057,MFTM_A_new1021,2021.2.3,59.73651420746242,
,,,,,,,,stim/Instruction_adaptive.png,conditions/adaptive.xlsx,test,-0.6,-0.6,-0.6,0.6,0.6,left,L,,,,,0,1,1,1,0,83,83,93,,,,,,,,,,,,,,,,,,,,,,,,,,,,,,,,,,,,,,,,,,,,456.4259231998585,None,left,1,1.6815207998733968,456.9268137998879,458.69592009996995,456.9268137998879,458.19522670004517,456.9268137998879,458.19522670004517,456.9268137998879,458.19522670004517,456.9268137998879,458.19522670004517,456.9268137998879,458.19522670004517,458.16215220000595,458.66254030005075,458.16215220000595,458.66254030005075,458.16215220000595,458.66254030005075,458.16215220000595,458.66254030005075,458.16215220000595,458.66254030005075,458.16215220000595,458.66254030005075,458.16215220000595,458.66254030005075,458.16215220000595,458.66254030005075,456.9268137998879,None,458.66254030005075,459.68129540001974,1.260000000000001,459.6976021998562,None,460.44910189998336,None,,,,,,,[1.00964286],2.4000000000000017,0.7619047619047619,11045,001,2024_Apr_13_1057,MFTM_A_new1021,2021.2.3,59.73651420746242,
,,,,,,,,stim/Instruction_adaptive.png,conditions/adaptive.xlsx,test,-0.6,-0.6,-0.6,0.6,0.6,left,L,,,,,0,1,1,1,0,84,84,91,,,,,,,,,,,,,,,,,,,,,,,,,,,,,,,,,,,,,,,,,,,,460.9501761998981,None,left,1,1.7104030000045896,461.45016120001674,463.20298000006005,461.45016120001674,462.7021351000294,461.45016120001674,462.7021351000294,461.45016120001674,462.7021351000294,461.45016120001674,462.7021351000294,461.45016120001674,462.7021351000294,462.6856696999166,463.1861530998722,462.6856696999166,463.1861530998722,462.6856696999166,463.1861530998722,462.6856696999166,463.1861530998722,462.6856696999166,463.1861530998722,462.6856696999166,463.1861530998722,462.6856696999166,463.1861530998722,462.6856696999166,463.1861530998722,461.45016120001674,None,463.1861530998722,464.204438699875,1.2500000000000009,464.22102249995805,None,464.97285889997147,None,,,,,,,[1.01247059],2.4300000000000015,0.7647058823529411,11045,001,2024_Apr_13_1057,MFTM_A_new1021,2021.2.3,59.73651420746242,
,,,,,,,,stim/Instruction_adaptive.png,conditions/adaptive.xlsx,test,0.6,0.6,0.6,-0.6,-0.6,right,R,,,,,0,1,1,1,0,85,85,76,,,,,,,,,,,,,,,,,,,,,,,,,,,,,,,,,,,,,,,,,,,,465.47292879992165,None,right,1,1.6906214999035,465.97391980001703,467.7100376000162,465.97391980001703,467.2087904000655,465.97391980001703,467.2087904000655,465.97391980001703,467.2087904000655,465.97391980001703,467.2087904000655,465.97391980001703,467.2087904000655,467.1756100000348,467.6762077000458,467.1756100000348,467.6762077000458,467.1756100000348,467.6762077000458,467.1756100000348,467.6762077000458,467.1756100000348,467.6762077000458,467.1756100000348,467.6762077000458,467.1756100000348,467.6762077000458,467.1756100000348,467.6762077000458,465.97391980001703,None,467.6762077000458,468.6945813000202,1.2200000000000009,468.7109612999484,None,469.4621836000588,None,,,,,,,[1.0155814],2.450000000000002,0.7674418604651163,11045,001,2024_Apr_13_1057,MFTM_A_new1021,2021.2.3,59.73651420746242,
,,,,,,,,stim/Instruction_adaptive.png,conditions/adaptive.xlsx,test,-0.6,-0.6,-0.6,0.6,0.6,left,L,,,,,0,1,1,1,0,86,86,15,,,,,,,,,,,,,,,,,,,,,,,,,,,,,,,,,,,,,,,,,,,,469.96348479995504,None,left,1,1.7366316001862288,470.46409039990976,472.1664179000072,470.46409039990976,471.66553239990026,470.46409039990976,471.66553239990026,470.46409039990976,471.66553239990026,470.46409039990976,471.66553239990026,470.46409039990976,471.66553239990026,471.6488840999082,472.1497299000621,471.6488840999082,472.1497299000621,471.6488840999082,472.1497299000621,471.6488840999082,472.1497299000621,471.6488840999082,472.1497299000621,471.6488840999082,472.1497299000621,471.6488840999082,472.1497299000621,471.6488840999082,472.1497299000621,470.46409039990976,None,472.1497299000621,473.16793140000664,1.2000000000000008,473.1849613999948,None,473.93598029995337,None,,,,,,,[1.01885057],2.4700000000000015,0.7701149425287356,11045,001,2024_Apr_13_1057,MFTM_A_new1021,2021.2.3,59.73651420746242,
,,,,,,,,stim/Instruction_adaptive.png,conditions/adaptive.xlsx,test,0.6,0.6,0.6,-0.6,-0.6,right,R,,,,,0,1,1,1,0,87,87,40,,,,,,,,,,,,,,,,,,,,,,,,,,,,,,,,,,,,,,,,,,,,474.43712879996747,None,right,1,1.4314699999522418,474.93763209995814,476.6397949999664,474.93763209995814,476.1389991999604,474.93763209995814,476.1389991999604,474.93763209995814,476.1389991999604,474.93763209995814,476.1389991999604,474.93763209995814,476.1389991999604,476.1056965999305,476.60715109994635,476.1056965999305,476.60715109994635,476.1056965999305,476.60715109994635,476.1056965999305,476.60715109994635,476.1056965999305,476.60715109994635,476.1056965999305,476.60715109994635,476.1056965999305,476.60715109994635,476.1056965999305,476.60715109994635,474.93763209995814,None,476.60715109994635,477.64129419997334,1.1900000000000008,477.65851109987125,None,478.409191200044,None,,,,,,,[1.02215909],2.490000000000002,0.7727272727272727,11045,001,2024_Apr_13_1057,MFTM_A_new1021,2021.2.3,59.73651420746242,
,,,,,,,,stim/Instruction_adaptive.png,conditions/adaptive.xlsx,test,-0.6,-0.6,-0.6,0.6,0.6,left,L,,,,,0,1,1,1,0,88,88,89,,,,,,,,,,,,,,,,,,,,,,,,,,,,,,,,,,,,,,,,,,,,478.9098976000678,None,left,1,1.5184359999839216,479.41070899995975,481.0800600000657,479.41070899995975,480.595862200018,479.41070899995975,480.595862200018,479.41070899995975,480.595862200018,479.41070899995975,480.595862200018,479.41070899995975,480.595862200018,480.56232829997316,481.06323780003004,480.56232829997316,481.06323780003004,480.56232829997316,481.06323780003004,480.56232829997316,481.06323780003004,480.56232829997316,481.06323780003004,480.56232829997316,481.06323780003004,480.56232829997316,481.06323780003004,480.56232829997316,481.06323780003004,479.41070899995975,None,481.06323780003004,482.09783850004897,1.1700000000000008,482.1146306998562,None,482.8658418999985,None,,,,,,,[1.02561798],2.5100000000000016,0.7752808988764045,11045,001,2024_Apr_13_1057,MFTM_A_new1021,2021.2.3,59.73651420746242,
,,,,,,,,stim/Instruction_adaptive.png,conditions/adaptive.xlsx,test,-0.6,-0.6,-0.6,0.6,0.6,left,L,,,,,0,1,1,1,0,89,89,25,,,,,,,,,,,,,,,,,,,,,,,,,,,,,,,,,,,,,,,,,,,,483.3667345000431,None,left,1,1.5334556000307202,483.86743519990705,485.5199364,483.86743519990705,485.0194244000595,483.86743519990705,485.0194244000595,483.86743519990705,485.0194244000595,483.86743519990705,485.0194244000595,483.86743519990705,485.0194244000595,485.00294959987514,485.5036575999111,485.00294959987514,485.5036575999111,485.00294959987514,485.5036575999111,485.00294959987514,485.5036575999111,485.00294959987514,485.5036575999111,485.00294959987514,485.5036575999111,485.00294959987514,485.5036575999111,485.00294959987514,485.5036575999111,483.86743519990705,None,485.5036575999111,486.53824729984626,1.1500000000000008,486.5560625998769,None,487.30581329995766,None,,,,,,,[1.02922222],2.530000000000002,0.7777777777777778,11045,001,2024_Apr_13_1057,MFTM_A_new1021,2021.2.3,59.73651420746242,
,,,,,,,,stim/Instruction_adaptive.png,conditions/adaptive.xlsx,test,-0.6,-0.6,-0.6,0.6,0.6,left,L,,,,,0,1,1,1,0,90,90,51,,,,,,,,,,,,,,,,,,,,,,,,,,,,,,,,,,,,,,,,,,,,487.8064494000282,None,left,1,1.4534875999670476,488.30747639993206,489.9599077999592,488.30747639993206,489.4591522999108,488.30747639993206,489.4591522999108,488.30747639993206,489.4591522999108,488.30747639993206,489.4591522999108,488.30747639993206,489.4591522999108,489.42585999984294,489.92656009993516,489.42585999984294,489.92656009993516,489.42585999984294,489.92656009993516,489.42585999984294,489.92656009993516,489.42585999984294,489.92656009993516,489.42585999984294,489.92656009993516,489.42585999984294,489.92656009993516,489.42585999984294,489.92656009993516,488.30747639993206,None,489.92656009993516,490.96127269999124,1.1400000000000008,490.99474280001596,None,491.7459541999269,None,,,,,,,[1.03285714],2.540000000000002,0.7802197802197802,11045,001,2024_Apr_13_1057,MFTM_A_new1021,2021.2.3,59.73651420746242,
,,,,,,,,stim/Instruction_adaptive.png,conditions/adaptive.xlsx,test,0.6,0.6,0.6,-0.6,-0.6,right,R,,,,,0,1,1,1,0,91,91,66,,,,,,,,,,,,,,,,,,,,,,,,,,,,,,,,,,,,,,,,,,,,492.2465560999699,None,left,0,1.3888716001529247,492.74798049987294,494.3833043000195,492.74798049987294,493.8824334999081,492.74798049987294,493.8824334999081,492.74798049987294,493.8824334999081,492.74798049987294,493.8824334999081,492.74798049987294,493.8824334999081,493.8657507998869,494.36668800003827,493.8657507998869,494.36668800003827,493.8657507998869,494.36668800003827,493.8657507998869,494.36668800003827,493.8657507998869,494.36668800003827,493.8657507998869,494.36668800003827,493.8657507998869,494.36668800003827,493.8657507998869,494.36668800003827,492.74798049987294,None,494.34989529987797,495.40137750003487,1.1300000000000008,495.418047899846,None,496.1692718998529,None,,,,,,,[1.03652174],2.490000000000002,0.7717391304347826,11045,001,2024_Apr_13_1057,MFTM_A_new1021,2021.2.3,59.73651420746242,
,,,,,,,,stim/Instruction_adaptive.png,conditions/adaptive.xlsx,test,0.6,0.6,0.6,-0.6,-0.6,right,R,,,,,0,1,1,1,0,92,92,64,,,,,,,,,,,,,,,,,,,,,,,,,,,,,,,,,,,,,,,,,,,,496.67000039992854,None,right,1,1.3023691999260336,497.1710425000638,498.85687380004674,497.1710425000638,498.3558873999864,497.1710425000638,498.3558873999864,497.1710425000638,498.3558873999864,497.1710425000638,498.3558873999864,497.1710425000638,498.3558873999864,498.32276139990427,498.8231329000555,498.32276139990427,498.8231329000555,498.32276139990427,498.8231329000555,498.32276139990427,498.8231329000555,498.32276139990427,498.8231329000555,498.32276139990427,498.8231329000555,498.32276139990427,498.8231329000555,498.32276139990427,498.8231329000555,497.1710425000638,None,498.8231329000555,499.87491289991885,1.1700000000000008,499.89164729998447,None,500.6425123999361,None,,,,,,,[1.03967742],2.5100000000000016,0.7741935483870968,11045,001,2024_Apr_13_1057,MFTM_A_new1021,2021.2.3,59.73651420746242,
