arrwidth1,arrwidth2,arrwidth3,arrwidth4,arrwidth5,keyb,type,orientation,instruction_image,block_filename,block_type,arrow11,arrow22,arrow33,arrow44,arrow55,keyb_3,orientation3,trials.thisRepN,trials.thisTrialN,trials.thisN,trials.thisIndex,trials_3.thisRepN,trials_3.thisTrialN,trials_3.thisN,trials_3.thisIndex,trials_2.thisRepN,trials_2.thisTrialN,trials_2.thisN,trials_2.thisIndex,welcome.started,welcome.stopped,key_resp.keys,key_resp.rt,key_resp.started,key_resp.stopped,instruction_example.started,instruction_example.stopped,key_resp_3.keys,key_resp_3.rt,key_resp_3.started,key_resp_3.stopped,instruction_task.started,instruction_task.stopped,key_resp_2.keys,key_resp_2.rt,key_resp_2.started,key_resp_2.stopped,text_2.started,text_2.stopped,A1.started,A1.stopped,A2.started,A2.stopped,A3.started,A3.stopped,A4.started,A4.stopped,A5.started,A5.stopped,key_resp_4.keys,key_resp_4.corr,key_resp_4.rt,key_resp_4.started,key_resp_4.stopped,fb.started,fb.stopped,instruction_block.started,instruction_block.stopped,key_resp_8.keys,key_resp_8.rt,key_resp_8.started,key_resp_8.stopped,text_8.started,text_8.stopped,key_resp_9.keys,key_resp_9.corr,key_resp_9.rt,text_5.started,text_5.stopped,A11_3.started,A11_3.stopped,A22_2.started,A22_2.stopped,A33_2.started,A33_2.stopped,A44_2.started,A44_2.stopped,A55_2.started,A55_2.stopped,M1_3.started,M1_3.stopped,M2_2.started,M2_2.stopped,M3_2.started,M3_2.stopped,M4_2.started,M4_2.stopped,M5_2.started,M5_2.stopped,M6_2.started,M6_2.stopped,M7_2.started,M7_2.stopped,M8_2.started,M8_2.stopped,key_resp_9.started,key_resp_9.stopped,fixation.started,fixation.stopped,ET,fb_3.started,fb_3.stopped,text_9.started,text_9.stopped,fb_4.started,fb_4.stopped,text_7.started,text_7.stopped,endtext.started,endtext.stopped,fixation_ITI,CCC,Acc,participant,session,date,expName,psychopyVersion,frameRate,
,,,,,,,,,,,,,,,,,,,,,,,,,,,,,,72.85856550000608,None,space,3.9673109999857843,72.85856550000608,None,,,,,,,,,,,,,,,,,,,,,,,,,,,,,,,,,,,,,,,,,,,,,,,,,,,,,,,,,,,,,,,,,,,,,,,,,,,,,,,,,,,,,,,,,11042,001,2024_Mar_15_1548,MFTM_A_new1021,2021.2.3,59.81551698438745,
,,,,,,,,,,,,,,,,,,,,,,,,,,,,,,,,,,,,76.84796320000896,None,space,1.5214983000187203,76.84796320000896,None,,,,,,,,,,,,,,,,,,,,,,,,,,,,,,,,,,,,,,,,,,,,,,,,,,,,,,,,,,,,,,,,,,,,,,,,,,,,,,,,,,,11042,001,2024_Mar_15_1548,MFTM_A_new1021,2021.2.3,59.81551698438745,
,,,,,,,,,,,,,,,,,,,,,,,,,,,,,,,,,,,,,,,,,,78.40005639998708,None,space,8.593859400018118,78.40005639998708,None,,,,,,,,,,,,,,,,,,,,,,,,,,,,,,,,,,,,,,,,,,,,,,,,,,,,,,,,,,,,,,,,,,,,,,,,,,,,,11042,001,2024_Mar_15_1548,MFTM_A_new1021,2021.2.3,59.81551698438745,
-0.6,-0.6,-0.6,0.6,0.6,left,3:2,L,,,,,,,,,,,0,0,0,1,,,,,,,,,,,,,,,,,,,,,,,,,,,87.03047910000896,None,87.03047910000896,None,87.03047910000896,None,87.03047910000896,None,87.03047910000896,None,87.03047910000896,None,left,1,3.2036724000354297,87.03047910000896,None,90.26839540002402,None,,,,,,,,,,,,,,,,,,,,,,,,,,,,,,,,,,,,,,,,,,,,,,,,,,,,,,,,,,11042,001,2024_Mar_15_1548,MFTM_A_new1021,2021.2.3,59.81551698438745,
0.6,0.6,0.6,-0.6,-0.6,right,3:2,R,,,,,,,,,,,0,1,1,0,,,,,,,,,,,,,,,,,,,,,,,,,,,91.01945339998929,None,91.01945339998929,None,91.01945339998929,None,91.01945339998929,None,91.01945339998929,None,91.01945339998929,None,right,1,1.3509802999906242,91.01945339998929,None,92.38808880001307,None,,,,,,,,,,,,,,,,,,,,,,,,,,,,,,,,,,,,,,,,,,,,,,,,,,,,,,,,,,11042,001,2024_Mar_15_1548,MFTM_A_new1021,2021.2.3,59.81551698438745,
-0.6,-0.6,-0.6,0.6,0.6,left,3:2,L,,,,,,,,,,,1,0,2,1,,,,,,,,,,,,,,,,,,,,,,,,,,,93.13945199997397,None,93.13945199997397,None,93.13945199997397,None,93.13945199997397,None,93.13945199997397,None,93.13945199997397,None,left,1,1.630568900029175,93.13945199997397,None,94.79154890001519,None,,,,,,,,,,,,,,,,,,,,,,,,,,,,,,,,,,,,,,,,,,,,,,,,,,,,,,,,,,11042,001,2024_Mar_15_1548,MFTM_A_new1021,2021.2.3,59.81551698438745,
0.6,0.6,0.6,-0.6,-0.6,right,3:2,R,,,,,,,,,,,1,1,3,0,,,,,,,,,,,,,,,,,,,,,,,,,,,95.54339110001456,None,95.54339110001456,None,95.54339110001456,None,95.54339110001456,None,95.54339110001456,None,95.54339110001456,None,right,1,2.4274565000087023,95.54339110001456,None,97.99675059999572,None,,,,,,,,,,,,,,,,,,,,,,,,,,,,,,,,,,,,,,,,,,,,,,,,,,,,,,,,,,11042,001,2024_Mar_15_1548,MFTM_A_new1021,2021.2.3,59.81551698438745,
,,,,,,,,stim/Instruction_mask.png,conditions/adaptive.xlsx,practice,0.6,0.6,0.6,-0.6,-0.6,right,R,,,,,0,0,0,0,0,0,0,12,,,,,,,,,,,,,,,,,,,,,,,,,,,,,,,,,,,,,,99.0647133999737,None,space,23.1942476000404,99.0647133999737,None,122.36761050001951,None,right,1,3.3946432000375353,122.80045669997344,None,122.80045669997344,125.80514650000259,122.80045669997344,125.80514650000259,122.80045669997344,125.80514650000259,122.80045669997344,125.80514650000259,122.80045669997344,125.80514650000259,125.78853259998141,126.28895939997165,125.78853259998141,126.28895939997165,125.78853259998141,126.28895939997165,125.78853259998141,126.28895939997165,125.78853259998141,126.28895939997165,125.78853259998141,126.28895939997165,125.78853259998141,126.28895939997165,125.78853259998141,126.28895939997165,122.80045669997344,None,126.28895939997165,126.28895939997165,3,126.30575980001595,None,127.05701689998386,None,,,,,,,,,,11042,001,2024_Mar_15_1548,MFTM_A_new1021,2021.2.3,59.81551698438745,
,,,,,,,,stim/Instruction_mask.png,conditions/adaptive.xlsx,practice,0.6,0.6,0.6,-0.6,-0.6,right,R,,,,,0,0,0,0,0,1,1,0,,,,,,,,,,,,,,,,,,,,,,,,,,,,,,,,,,,,,,,,,,,,127.55743360001361,None,right,1,2.224683699954767,128.05856849998236,130.06158209999558,128.05856849998236,129.56088860001182,128.05856849998236,129.56088860001182,128.05856849998236,129.56088860001182,128.05856849998236,129.56088860001182,128.05856849998236,129.56088860001182,129.54434600000968,130.0448598000221,129.54434600000968,130.0448598000221,129.54434600000968,130.0448598000221,129.54434600000968,130.0448598000221,129.54434600000968,130.0448598000221,129.54434600000968,130.0448598000221,129.54434600000968,130.0448598000221,129.54434600000968,130.0448598000221,128.05856849998236,None,130.0448598000221,131.54715990001569,1.5,131.56359739997424,None,132.31550749996677,None,,,,,,,,,,11042,001,2024_Mar_15_1548,MFTM_A_new1021,2021.2.3,59.81551698438745,
,,,,,,,,stim/Instruction_mask.png,conditions/adaptive.xlsx,practice,0.6,0.6,0.6,-0.6,-0.6,right,R,,,,,0,0,0,0,0,2,2,28,,,,,,,,,,,,,,,,,,,,,,,,,,,,,,,,,,,,,,,,,,,,132.81581270002062,None,left,0,1.3824528999975882,133.31662439997308,134.6183033999987,133.31662439997308,134.11766789999092,133.31662439997308,134.11766789999092,133.31662439997308,134.11766789999092,133.31662439997308,134.11766789999092,133.31662439997308,134.11766789999092,134.10142550000455,134.60232890001498,134.10142550000455,134.60232890001498,134.10142550000455,134.60232890001498,134.10142550000455,134.60232890001498,134.10142550000455,134.60232890001498,134.10142550000455,134.60232890001498,134.10142550000455,134.60232890001498,134.10142550000455,134.60232890001498,133.31662439997308,None,134.60232890001498,136.80499809997855,0.8,136.82198659999995,None,137.57315529999323,None,,,,,,,,,,11042,001,2024_Mar_15_1548,MFTM_A_new1021,2021.2.3,59.81551698438745,
,,,,,,,,stim/Instruction_mask.png,conditions/adaptive.xlsx,practice,-0.6,-0.6,-0.6,0.6,0.6,left,L,,,,,0,0,0,0,0,3,3,19,,,,,,,,,,,,,,,,,,,,,,,,,,,,,,,,,,,,,,,,,,,,138.0743144999724,None,right,0,1.0846856000134721,138.57492470002035,139.325896299968,138.57492470002035,138.82511979999254,138.57492470002035,138.82511979999254,138.57492470002035,138.82511979999254,138.57492470002035,138.82511979999254,138.57492470002035,138.82511979999254,138.8083543999819,139.30891189997783,138.8083543999819,139.30891189997783,138.8083543999819,139.30891189997783,138.8083543999819,139.30891189997783,138.8083543999819,139.30891189997783,138.8083543999819,139.30891189997783,138.8083543999819,139.30891189997783,138.8083543999819,139.30891189997783,138.57492470002035,None,139.30891189997783,142.06272099999478,3,142.0794106000103,None,142.83079749997705,None,,,,,,,,,,11042,001,2024_Mar_15_1548,MFTM_A_new1021,2021.2.3,59.81551698438745,
,,,,,,,,stim/Instruction_mask.png,conditions/adaptive.xlsx,practice,,,,,,,,,,,,0,0,0,0,,,,,,,,,,,,,,,,,,,,,,,,,,,,,,,,,,,,,,,,,,,,,,,,,,,,,,,,,,,,,,,,,,,,,,,,,,,,,,,,,,,,,,,,,,143.34954019996803,144.34979389997898,144.31637100002263,144.31637100002263,144.31637100002263,None,,,,11042,001,2024_Mar_15_1548,MFTM_A_new1021,2021.2.3,59.81551698438745,
,,,,,,,,stim/Instruction_adaptive.png,conditions/adaptive.xlsx,test,0.6,0.6,0.6,-0.6,-0.6,right,R,,,,,0,1,1,1,0,0,0,56,,,,,,,,,,,,,,,,,,,,,,,,,,,,,,,,,,,,,,147.48772219999228,None,space,9.107916800014209,147.48772219999228,None,156.63474730000598,None,right,1,2.3954501999542117,157.13612879998982,None,157.13612879998982,160.1403149999678,157.13612879998982,160.1403149999678,157.13612879998982,160.1403149999678,157.13612879998982,160.1403149999678,157.13612879998982,160.1403149999678,160.12349650001852,160.62420059996657,160.12349650001852,160.62420059996657,160.12349650001852,160.62420059996657,160.12349650001852,160.62420059996657,160.12349650001852,160.62420059996657,160.12349650001852,160.62420059996657,160.12349650001852,160.62420059996657,160.12349650001852,160.62420059996657,157.13612879998982,None,160.62420059996657,160.62420059996657,3,160.64080079999985,None,161.39204970002174,None,,,,,,,0,6.000000000000005,1.0,11042,001,2024_Mar_15_1548,MFTM_A_new1021,2021.2.3,59.81551698438745,
,,,,,,,,stim/Instruction_adaptive.png,conditions/adaptive.xlsx,test,-0.6,-0.6,-0.6,0.6,0.6,left,L,,,,,0,1,1,1,0,1,1,57,,,,,,,,,,,,,,,,,,,,,,,,,,,,,,,,,,,,,,,,,,,,161.8933771000011,None,left,1,1.354537800012622,162.39329699997324,163.1446121999761,162.39329699997324,162.64390239998465,162.39329699997324,162.64390239998465,162.39329699997324,162.64390239998465,162.39329699997324,162.64390239998465,162.39329699997324,162.64390239998465,162.62718840001617,163.12841120001394,162.62718840001617,163.12841120001394,162.62718840001617,163.12841120001394,162.62718840001617,163.12841120001394,162.62718840001617,163.12841120001394,162.62718840001617,163.12841120001394,162.62718840001617,163.12841120001394,162.62718840001617,163.12841120001394,162.39329699997324,None,163.12841120001394,164.01274440000998,0.25,164.02916400000686,None,164.78035289997933,None,,,,,,,[0.875],6.000000000000005,1.0,11042,001,2024_Mar_15_1548,MFTM_A_new1021,2021.2.3,59.81551698438745,
,,,,,,,,stim/Instruction_adaptive.png,conditions/adaptive.xlsx,test,0.6,0.6,0.6,-0.6,-0.6,right,R,,,,,0,1,1,1,0,2,2,74,,,,,,,,,,,,,,,,,,,,,,,,,,,,,,,,,,,,,,,,,,,,165.28199839999434,None,right,1,1.2220518999965861,165.78196120000212,166.53298830002313,165.78196120000212,166.0323704999755,165.78196120000212,166.0323704999755,165.78196120000212,166.0323704999755,165.78196120000212,166.0323704999755,165.78196120000212,166.0323704999755,166.01575129997218,166.51634989999002,166.01575129997218,166.51634989999002,166.01575129997218,166.51634989999002,166.01575129997218,166.51634989999002,166.01575129997218,166.51634989999002,166.01575129997218,166.51634989999002,166.01575129997218,166.51634989999002,166.01575129997218,166.51634989999002,165.78196120000212,None,166.51634989999002,167.85185619996628,0.25,167.86849829996936,None,168.61972149997018,None,,,,,,,[1.33333333],6.000000000000005,1.0,11042,001,2024_Mar_15_1548,MFTM_A_new1021,2021.2.3,59.81551698438745,
,,,,,,,,stim/Instruction_adaptive.png,conditions/adaptive.xlsx,test,-0.6,-0.6,-0.6,0.6,0.6,left,L,,,,,0,1,1,1,0,3,3,39,,,,,,,,,,,,,,,,,,,,,,,,,,,,,,,,,,,,,,,,,,,,169.1204347999883,None,left,1,0.9264462999999523,169.6216957999859,170.3726812999812,169.6216957999859,169.87152980000246,169.6216957999859,169.87152980000246,169.6216957999859,169.87152980000246,169.6216957999859,169.87152980000246,169.6216957999859,169.87152980000246,169.85514830000466,170.35560110001825,169.85514830000466,170.35560110001825,169.85514830000466,170.35560110001825,169.85514830000466,170.35560110001825,169.85514830000466,170.35560110001825,169.85514830000466,170.35560110001825,169.85514830000466,170.35560110001825,169.85514830000466,170.35560110001825,169.6216957999859,None,170.35560110001825,171.92484839999815,0.25,171.9417790999869,None,172.69261069997447,None,,,,,,,[1.5625],6.000000000000005,1.0,11042,001,2024_Mar_15_1548,MFTM_A_new1021,2021.2.3,59.81551698438745,
,,,,,,,,stim/Instruction_adaptive.png,conditions/adaptive.xlsx,test,-0.6,-0.6,-0.6,0.6,0.6,left,L,,,,,0,1,1,1,0,4,4,69,,,,,,,,,,,,,,,,,,,,,,,,,,,,,,,,,,,,,,,,,,,,173.1930951999966,None,right,0,1.2059366999892518,173.6943050000118,174.44508719997248,173.6943050000118,173.94427979999455,173.6943050000118,173.94427979999455,173.6943050000118,173.94427979999455,173.6943050000118,173.94427979999455,173.6943050000118,173.94427979999455,173.9277446999913,174.42840749997413,173.9277446999913,174.42840749997413,173.9277446999913,174.42840749997413,173.9277446999913,174.42840749997413,173.9277446999913,174.42840749997413,173.9277446999913,174.42840749997413,173.9277446999913,174.42840749997413,173.9277446999913,174.42840749997413,173.6943050000118,None,174.42840749997413,176.13097210001433,0.25,176.14732950000325,None,176.89863509999122,None,,,,,,,[1.7],4.720000000000004,0.8,11042,001,2024_Mar_15_1548,MFTM_A_new1021,2021.2.3,59.81551698438745,
,,,,,,,,stim/Instruction_adaptive.png,conditions/adaptive.xlsx,test,0.6,0.6,0.6,-0.6,-0.6,right,R,,,,,0,1,1,1,0,5,5,84,,,,,,,,,,,,,,,,,,,,,,,,,,,,,,,,,,,,,,,,,,,,177.39948099997127,None,right,1,0.8245285000302829,177.90031359996647,178.6515835999744,177.90031359996647,178.15062729996862,177.90031359996647,178.15062729996862,177.90031359996647,178.15062729996862,177.90031359996647,178.15062729996862,177.90031359996647,178.15062729996862,178.13408909999998,178.63466199999675,178.13408909999998,178.63466199999675,178.13408909999998,178.63466199999675,178.13408909999998,178.63466199999675,178.13408909999998,178.63466199999675,178.13408909999998,178.63466199999675,178.13408909999998,178.63466199999675,178.13408909999998,178.63466199999675,177.90031359996647,None,178.63466199999675,180.43824869999662,0.25,180.45410679996712,None,181.20537889999105,None,,,,,,,[1.79166667],5.1200000000000045,0.8333333333333334,11042,001,2024_Mar_15_1548,MFTM_A_new1021,2021.2.3,59.81551698438745,
,,,,,,,,stim/Instruction_adaptive.png,conditions/adaptive.xlsx,test,0.6,0.6,0.6,-0.6,-0.6,right,R,,,,,0,1,1,1,0,6,6,90,,,,,,,,,,,,,,,,,,,,,,,,,,,,,,,,,,,,,,,,,,,,181.70601690001786,None,left,0,1.2459017999935895,182.20668160001514,182.95775170001434,182.20668160001514,182.4572633000207,182.20668160001514,182.4572633000207,182.20668160001514,182.4572633000207,182.20668160001514,182.4572633000207,182.20668160001514,182.4572633000207,182.44053030002397,182.94116699998267,182.44053030002397,182.94116699998267,182.44053030002397,182.94116699998267,182.44053030002397,182.94116699998267,182.44053030002397,182.94116699998267,182.44053030002397,182.94116699998267,182.44053030002397,182.94116699998267,182.44053030002397,182.94116699998267,182.20668160001514,None,182.94116699998267,184.811967000016,0.25,184.82706149999285,None,185.578533300024,None,,,,,,,[1.85714286],3.990000000000003,0.7142857142857143,11042,001,2024_Mar_15_1548,MFTM_A_new1021,2021.2.3,59.81551698438745,
,,,,,,,,stim/Instruction_adaptive.png,conditions/adaptive.xlsx,test,-0.6,-0.6,-0.6,0.6,0.6,left,L,,,,,0,1,1,1,0,7,7,83,,,,,,,,,,,,,,,,,,,,,,,,,,,,,,,,,,,,,,,,,,,,186.0791586000123,None,right,0,0.9449536000029184,186.58006820001174,187.49859709996963,186.58006820001174,186.99727449996863,186.58006820001174,186.99727449996863,186.58006820001174,186.99727449996863,186.58006820001174,186.99727449996863,186.58006820001174,186.99727449996863,186.98058640002273,187.48183710000012,186.98058640002273,187.48183710000012,186.98058640002273,187.48183710000012,186.98058640002273,187.48183710000012,186.98058640002273,187.48183710000012,186.98058640002273,187.48183710000012,186.98058640002273,187.48183710000012,186.98058640002273,187.48183710000012,186.58006820001174,None,187.48183710000012,189.36765879997984,0.41000000000000014,189.3842778999824,None,190.13546740001766,None,,,,,,,[1.88625],2.7500000000000018,0.625,11042,001,2024_Mar_15_1548,MFTM_A_new1021,2021.2.3,59.81551698438745,
,,,,,,,,stim/Instruction_adaptive.png,conditions/adaptive.xlsx,test,0.6,0.6,0.6,-0.6,-0.6,right,R,,,,,0,1,1,1,0,8,8,78,,,,,,,,,,,,,,,,,,,,,,,,,,,,,,,,,,,,,,,,,,,,190.63608399999794,None,right,1,1.8759103000047617,191.13683819997823,192.62326269998448,191.13683819997823,192.12294530001236,191.13683819997823,192.12294530001236,191.13683819997823,192.12294530001236,191.13683819997823,192.12294530001236,191.13683819997823,192.12294530001236,192.10501920001116,192.60573090001708,192.10501920001116,192.60573090001708,192.10501920001116,192.60573090001708,192.10501920001116,192.60573090001708,192.10501920001116,192.60573090001708,192.10501920001116,192.60573090001708,192.10501920001116,192.60573090001708,192.10501920001116,192.60573090001708,191.13683819997823,None,192.60573090001708,194.12481469998602,0.9800000000000006,194.14127809996717,None,194.8922898999881,None,,,,,,,[[1.52]],3.3000000000000025,0.6666666666666666,11042,001,2024_Mar_15_1548,MFTM_A_new1021,2021.2.3,59.81551698438745,
,,,,,,,,stim/Instruction_adaptive.png,conditions/adaptive.xlsx,test,-0.6,-0.6,-0.6,0.6,0.6,left,L,,,,,0,1,1,1,0,9,9,5,,,,,,,,,,,,,,,,,,,,,,,,,,,,,,,,,,,,,,,,,,,,195.39588059997186,None,right,0,1.8873138999915682,195.9107561999699,197.09576280001784,195.9107561999699,196.59515740000643,195.9107561999699,196.59515740000643,195.9107561999699,196.59515740000643,195.9107561999699,196.59515740000643,195.9107561999699,196.59515740000643,196.56159619998652,197.06254349998198,196.56159619998652,197.06254349998198,196.56159619998652,197.06254349998198,196.56159619998652,197.06254349998198,196.56159619998652,197.06254349998198,196.56159619998652,197.06254349998198,196.56159619998652,197.06254349998198,196.56159619998652,197.06254349998198,195.9107561999699,None,197.06254349998198,198.89838670002064,0.6700000000000004,198.915228799975,None,199.6664978999761,None,,,,,,,[[1.83]],2.2700000000000014,0.6,11042,001,2024_Mar_15_1548,MFTM_A_new1021,2021.2.3,59.81551698438745,
,,,,,,,,stim/Instruction_adaptive.png,conditions/adaptive.xlsx,test,0.6,0.6,0.6,-0.6,-0.6,right,R,,,,,0,1,1,1,0,10,10,42,,,,,,,,,,,,,,,,,,,,,,,,,,,,,,,,,,,,,,,,,,,,200.16727679996984,None,right,1,1.8807481999974698,200.66800559998956,202.53747270000167,200.66800559998956,202.03681610000785,200.66800559998956,202.03681610000785,200.66800559998956,202.03681610000785,200.66800559998956,202.03681610000785,200.66800559998956,202.03681610000785,202.0036459999974,202.50404119997984,202.0036459999974,202.50404119997984,202.0036459999974,202.50404119997984,202.0036459999974,202.50404119997984,202.0036459999974,202.50404119997984,202.0036459999974,202.50404119997984,202.0036459999974,202.50404119997984,202.0036459999974,202.50404119997984,200.66800559998956,None,202.50404119997984,203.65578470000764,1.360000000000001,203.67231140000513,None,204.42364360002102,None,,,,,,,[[1.14]],2.730000000000002,0.6363636363636364,11042,001,2024_Mar_15_1548,MFTM_A_new1021,2021.2.3,59.81551698438745,
,,,,,,,,stim/Instruction_adaptive.png,conditions/adaptive.xlsx,test,-0.6,-0.6,-0.6,0.6,0.6,left,L,,,,,0,1,1,1,0,11,11,15,,,,,,,,,,,,,,,,,,,,,,,,,,,,,,,,,,,,,,,,,,,,204.92447019997053,None,left,1,1.4363212999887764,205.4250893999706,206.9275551000028,205.4250893999706,206.42715519998455,205.4250893999706,206.42715519998455,205.4250893999706,206.42715519998455,205.4250893999706,206.42715519998455,205.4250893999706,206.42715519998455,206.39349320001202,206.89401839999482,206.39349320001202,206.89401839999482,206.39349320001202,206.89401839999482,206.39349320001202,206.89401839999482,206.39349320001202,206.89401839999482,206.39349320001202,206.89401839999482,206.39349320001202,206.89401839999482,206.39349320001202,206.89401839999482,205.4250893999706,None,206.89401839999482,208.41296280000824,0.9900000000000007,208.42935019999277,None,209.18066979997093,None,,,,,,,[[1.51]],3.030000000000002,0.6666666666666666,11042,001,2024_Mar_15_1548,MFTM_A_new1021,2021.2.3,59.81551698438745,
,,,,,,,,stim/Instruction_adaptive.png,conditions/adaptive.xlsx,test,-0.6,-0.6,-0.6,0.6,0.6,left,L,,,,,0,1,1,1,0,12,12,99,,,,,,,,,,,,,,,,,,,,,,,,,,,,,,,,,,,,,,,,,,,,209.68143429997144,None,right,0,1.366978999983985,210.18232249998255,211.50161849998403,210.18232249998255,211.00011119997362,210.18232249998255,211.00011119997362,210.18232249998255,211.00011119997362,210.18232249998255,211.00011119997362,210.18232249998255,211.00011119997362,210.9672640999779,211.46752289996948,210.9672640999779,211.46752289996948,210.9672640999779,211.46752289996948,210.9672640999779,211.46752289996948,210.9672640999779,211.46752289996948,210.9672640999779,211.46752289996948,210.9672640999779,211.46752289996948,210.9672640999779,211.46752289996948,210.18232249998255,None,211.46752289996948,213.1707387000206,0.8100000000000005,213.18676130002132,None,213.93767369998386,None,,,,,,,[[1.69]],2.330000000000002,0.6153846153846154,11042,001,2024_Mar_15_1548,MFTM_A_new1021,2021.2.3,59.81551698438745,
,,,,,,,,stim/Instruction_adaptive.png,conditions/adaptive.xlsx,test,0.6,0.6,0.6,-0.6,-0.6,right,R,,,,,0,1,1,1,0,13,13,6,,,,,,,,,,,,,,,,,,,,,,,,,,,,,,,,,,,,,,,,,,,,214.43875450000633,None,left,0,1.9139791999477893,214.9394610999734,216.7588794999756,214.9394610999734,216.25834310002392,214.9394610999734,216.25834310002392,214.9394610999734,216.25834310002392,214.9394610999734,216.25834310002392,214.9394610999734,216.25834310002392,216.22476680000545,216.72548630001256,216.22476680000545,216.72548630001256,216.22476680000545,216.72548630001256,216.22476680000545,216.72548630001256,216.22476680000545,216.72548630001256,216.22476680000545,216.72548630001256,216.22476680000545,216.72548630001256,216.22476680000545,216.72548630001256,214.9394610999734,None,216.72548630001256,217.92727759998525,1.310000000000001,217.94403209997108,None,218.69505669997307,None,,,,,,,[[1.19]],1.3400000000000007,0.5714285714285714,11042,001,2024_Mar_15_1548,MFTM_A_new1021,2021.2.3,59.81551698438745,
,,,,,,,,stim/Instruction_adaptive.png,conditions/adaptive.xlsx,test,0.6,0.6,0.6,-0.6,-0.6,right,R,,,,,0,1,1,1,0,14,14,44,,,,,,,,,,,,,,,,,,,,,,,,,,,,,,,,,,,,,,,,,,,,219.19635679997737,None,right,1,1.9169492000364698,219.69658759998856,None,219.69658759998856,222.30051069997717,219.69658759998856,222.30051069997717,219.69658759998856,222.30051069997717,219.69658759998856,222.30051069997717,219.69658759998856,222.30051069997717,222.28382229997078,222.78473419998772,222.28382229997078,222.78473419998772,222.28382229997078,222.78473419998772,222.28382229997078,222.78473419998772,222.28382229997078,222.78473419998772,222.28382229997078,222.78473419998772,222.28382229997078,222.78473419998772,222.28382229997078,222.78473419998772,219.69658759998856,None,222.78473419998772,222.78473419998772,2.6000000000000023,222.80126849998487,None,223.55261959997006,None,,,,,,,0,1.8000000000000012,0.6,11042,001,2024_Mar_15_1548,MFTM_A_new1021,2021.2.3,59.81551698438745,
,,,,,,,,stim/Instruction_adaptive.png,conditions/adaptive.xlsx,test,0.6,0.6,0.6,-0.6,-0.6,right,R,,,,,0,1,1,1,0,15,15,86,,,,,,,,,,,,,,,,,,,,,,,,,,,,,,,,,,,,,,,,,,,,224.0530326999724,None,right,1,1.0684337000129744,224.55390649999026,226.95772249996662,224.55390649999026,226.45677629997954,224.55390649999026,226.45677629997954,224.55390649999026,226.45677629997954,224.55390649999026,226.45677629997954,224.55390649999026,226.45677629997954,226.4236014999915,226.92470949998824,226.4236014999915,226.92470949998824,226.4236014999915,226.92470949998824,226.4236014999915,226.92470949998824,226.4236014999915,226.92470949998824,226.4236014999915,226.92470949998824,226.4236014999915,226.92470949998824,226.4236014999915,226.92470949998824,224.55390649999026,None,226.92470949998824,227.5423439000151,1.8900000000000015,227.55837189999875,None,228.3095786999911,None,,,,,,,[[0.61]],2.0900000000000016,0.625,11042,001,2024_Mar_15_1548,MFTM_A_new1021,2021.2.3,59.81551698438745,
,,,,,,,,stim/Instruction_adaptive.png,conditions/adaptive.xlsx,test,-0.6,-0.6,-0.6,0.6,0.6,left,L,,,,,0,1,1,1,0,16,16,91,,,,,,,,,,,,,,,,,,,,,,,,,,,,,,,,,,,,,,,,,,,,228.81010529998457,None,left,1,0.9350282000377774,229.31107200001134,231.36421819997486,229.31107200001134,230.8632668000064,229.31107200001134,230.8632668000064,229.31107200001134,230.8632668000064,229.31107200001134,230.8632668000064,229.31107200001134,230.8632668000064,230.84678419999545,231.34783240000252,230.84678419999545,231.34783240000252,230.84678419999545,231.34783240000252,230.84678419999545,231.34783240000252,230.84678419999545,231.34783240000252,230.84678419999545,231.34783240000252,230.84678419999545,231.34783240000252,230.84678419999545,231.34783240000252,229.31107200001134,None,231.34783240000252,232.29888830002164,1.5500000000000012,232.31554430001415,None,233.0666711999802,None,,,,,,,[[0.95]],2.3000000000000016,0.6470588235294118,11042,001,2024_Mar_15_1548,MFTM_A_new1021,2021.2.3,59.81551698438745,
,,,,,,,,stim/Instruction_adaptive.png,conditions/adaptive.xlsx,test,0.6,0.6,0.6,-0.6,-0.6,right,R,,,,,0,1,1,1,0,17,17,88,,,,,,,,,,,,,,,,,,,,,,,,,,,,,,,,,,,,,,,,,,,,233.5674951999681,None,right,1,1.7456387999700382,234.06836239999393,235.92123580002226,234.06836239999393,235.42019500001334,234.06836239999393,235.42019500001334,234.06836239999393,235.42019500001334,234.06836239999393,235.42019500001334,234.06836239999393,235.42019500001334,235.38676829996984,235.88783319998765,235.38676829996984,235.88783319998765,235.38676829996984,235.88783319998765,235.38676829996984,235.88783319998765,235.38676829996984,235.88783319998765,235.38676829996984,235.88783319998765,235.38676829996984,235.88783319998765,235.38676829996984,235.88783319998765,234.06836239999393,None,235.88783319998765,237.05606919998536,1.340000000000001,237.07299070002045,None,237.82394259999273,None,,,,,,,[[1.16]],2.4700000000000015,0.6666666666666666,11042,001,2024_Mar_15_1548,MFTM_A_new1021,2021.2.3,59.81551698438745,
,,,,,,,,stim/Instruction_adaptive.png,conditions/adaptive.xlsx,test,-0.6,-0.6,-0.6,0.6,0.6,left,L,,,,,0,1,1,1,0,18,18,93,,,,,,,,,,,,,,,,,,,,,,,,,,,,,,,,,,,,,,,,,,,,238.32500199996866,None,left,1,1.0042790999868885,238.82546979998006,240.52806019998388,238.82546979998006,240.02735039999243,238.82546979998006,240.02735039999243,238.82546979998006,240.02735039999243,238.82546979998006,240.02735039999243,238.82546979998006,240.02735039999243,239.99372570001287,240.49460029997863,239.99372570001287,240.49460029997863,239.99372570001287,240.49460029997863,239.99372570001287,240.49460029997863,239.99372570001287,240.49460029997863,239.99372570001287,240.49460029997863,239.99372570001287,240.49460029997863,239.99372570001287,240.49460029997863,238.82546979998006,None,240.49460029997863,241.8130629999796,1.1900000000000008,241.82974299998023,None,242.5812961999909,None,,,,,,,[[1.31]],2.620000000000002,0.6842105263157895,11042,001,2024_Mar_15_1548,MFTM_A_new1021,2021.2.3,59.81551698438745,
,,,,,,,,stim/Instruction_adaptive.png,conditions/adaptive.xlsx,test,-0.6,-0.6,-0.6,0.6,0.6,left,L,,,,,0,1,1,1,0,19,19,71,,,,,,,,,,,,,,,,,,,,,,,,,,,,,,,,,,,,,,,,,,,,243.08225809998112,None,left,1,1.4471729000215419,243.58270359999733,245.1514940999914,243.58270359999733,244.66747889999533,243.58270359999733,244.66747889999533,243.58270359999733,244.66747889999533,243.58270359999733,244.66747889999533,243.58270359999733,244.66747889999533,244.63412689999677,245.1351557999733,244.63412689999677,245.1351557999733,244.63412689999677,245.1351557999733,244.63412689999677,245.1351557999733,244.63412689999677,245.1351557999733,244.63412689999677,245.1351557999733,244.63412689999677,245.1351557999733,244.63412689999677,245.1351557999733,243.58270359999733,None,245.1351557999733,246.57062379998388,1.0700000000000007,246.58726749999914,None,247.33902060001856,None,,,,,,,[[1.43]],2.740000000000002,0.7,11042,001,2024_Mar_15_1548,MFTM_A_new1021,2021.2.3,59.81551698438745,
,,,,,,,,stim/Instruction_adaptive.png,conditions/adaptive.xlsx,test,-0.6,-0.6,-0.6,0.6,0.6,left,L,,,,,0,1,1,1,0,20,20,7,,,,,,,,,,,,,,,,,,,,,,,,,,,,,,,,,,,,,,,,,,,,247.8390077999793,None,left,1,1.0504395000170916,248.3397229000111,249.82534300000407,248.3397229000111,249.3247123999754,248.3397229000111,249.3247123999754,248.3397229000111,249.3247123999754,248.3397229000111,249.3247123999754,248.3397229000111,249.3247123999754,249.30821380001726,249.80857709998963,249.30821380001726,249.80857709998963,249.30821380001726,249.80857709998963,249.30821380001726,249.80857709998963,249.30821380001726,249.80857709998963,249.30821380001726,249.80857709998963,249.30821380001726,249.80857709998963,249.30821380001726,249.80857709998963,248.3397229000111,None,249.80857709998963,251.27747680002358,0.9800000000000006,251.2945854999707,None,252.04613819997758,None,,,,,,,[1.46904762],2.8500000000000023,0.7142857142857143,11042,001,2024_Mar_15_1548,MFTM_A_new1021,2021.2.3,59.81551698438745,
,,,,,,,,stim/Instruction_adaptive.png,conditions/adaptive.xlsx,test,0.6,0.6,0.6,-0.6,-0.6,right,R,,,,,0,1,1,1,0,21,21,40,,,,,,,,,,,,,,,,,,,,,,,,,,,,,,,,,,,,,,,,,,,,252.54642859997693,None,right,1,0.8313163000275381,253.04682719998527,254.46576960000675,253.04682719998527,253.96499519998906,253.04682719998527,253.96499519998906,253.04682719998527,253.96499519998906,253.04682719998527,253.96499519998906,253.04682719998527,253.96499519998906,253.93144070002018,254.43287209997652,253.93144070002018,254.43287209997652,253.93144070002018,254.43287209997652,253.93144070002018,254.43287209997652,253.93144070002018,254.43287209997652,253.93144070002018,254.43287209997652,253.93144070002018,254.43287209997652,253.93144070002018,254.43287209997652,253.04682719998527,None,254.43287209997652,255.9181332999724,0.9100000000000006,255.93510659999447,None,256.68622640002286,None,,,,,,,[1.47454545],2.960000000000002,0.7272727272727273,11042,001,2024_Mar_15_1548,MFTM_A_new1021,2021.2.3,59.81551698438745,
,,,,,,,,stim/Instruction_adaptive.png,conditions/adaptive.xlsx,test,-0.6,-0.6,-0.6,0.6,0.6,left,L,,,,,0,1,1,1,0,22,22,59,,,,,,,,,,,,,,,,,,,,,,,,,,,,,,,,,,,,,,,,,,,,257.1865035999799,None,right,0,1.0232462999993004,257.6871893000207,259.03956579999067,257.6871893000207,258.5394042999833,257.6871893000207,258.5394042999833,257.6871893000207,258.5394042999833,257.6871893000207,258.5394042999833,257.6871893000207,258.5394042999833,258.52165319997584,259.02309689996764,258.52165319997584,259.02309689996764,258.52165319997584,259.02309689996764,258.52165319997584,259.02309689996764,258.52165319997584,259.02309689996764,258.52165319997584,259.02309689996764,258.52165319997584,259.02309689996764,258.52165319997584,259.02309689996764,257.6871893000207,None,259.02309689996764,260.50990699999966,0.8500000000000005,260.5245563000208,None,261.2759068000014,None,,,,,,,[1.48217391],2.680000000000002,0.6956521739130435,11042,001,2024_Mar_15_1548,MFTM_A_new1021,2021.2.3,59.81551698438745,
,,,,,,,,stim/Instruction_adaptive.png,conditions/adaptive.xlsx,test,0.6,0.6,0.6,-0.6,-0.6,right,R,,,,,0,1,1,1,0,23,23,38,,,,,,,,,,,,,,,,,,,,,,,,,,,,,,,,,,,,,,,,,,,,261.7767458999879,None,right,1,1.1614486000034958,262.27746140002273,263.81308739999076,262.27746140002273,263.3124215999851,262.27746140002273,263.3124215999851,262.27746140002273,263.3124215999851,262.27746140002273,263.3124215999851,262.27746140002273,263.3124215999851,263.2955217999988,263.7964529999881,263.2955217999988,263.7964529999881,263.2955217999988,263.7964529999881,263.2955217999988,263.7964529999881,263.2955217999988,263.7964529999881,263.2955217999988,263.7964529999881,263.2955217999988,263.7964529999881,263.2955217999988,263.7964529999881,262.27746140002273,None,263.7964529999881,None,1.0300000000000007,265.281506099971,None,266.0328128999681,None,,,,,,,[[1.47]],2.780000000000002,0.7083333333333334,11042,001,2024_Mar_15_1548,MFTM_A_new1021,2021.2.3,59.81551698438745,
,,,,,,,,stim/Instruction_adaptive.png,conditions/adaptive.xlsx,test,-0.6,-0.6,-0.6,0.6,0.6,left,L,,,,,0,1,1,1,0,24,24,11,,,,,,,,,,,,,,,,,,,,,,,,,,,,,,,,,,,,,,,,,,,,266.53433049999876,None,left,1,0.7163315000361763,267.03455659997417,268.5033502000151,267.03455659997417,268.0032296999707,267.03455659997417,268.0032296999707,267.03455659997417,268.0032296999707,267.03455659997417,268.0032296999707,267.03455659997417,268.0032296999707,267.98623199999565,268.48693060001824,267.98623199999565,268.48693060001824,267.98623199999565,268.48693060001824,267.98623199999565,268.48693060001824,267.98623199999565,268.48693060001824,267.98623199999565,268.48693060001824,267.98623199999565,268.48693060001824,267.98623199999565,268.48693060001824,267.03455659997417,None,268.4699753000168,269.9556452999823,0.9600000000000006,269.9892541000154,None,270.74044510000385,None,,,,,,,[1.484],2.870000000000002,0.72,11042,001,2024_Mar_15_1548,MFTM_A_new1021,2021.2.3,59.81551698438745,
,,,,,,,,stim/Instruction_adaptive.png,conditions/adaptive.xlsx,test,-0.6,-0.6,-0.6,0.6,0.6,left,L,,,,,0,1,1,1,0,25,25,85,,,,,,,,,,,,,,,,,,,,,,,,,,,,,,,,,,,,,,,,,,,,271.24113849998685,None,left,1,1.217518299992662,271.7416795999743,273.1439295000164,271.7416795999743,272.6429877000046,271.7416795999743,272.6429877000046,271.7416795999743,272.6429877000046,271.7416795999743,272.6429877000046,271.7416795999743,272.6429877000046,272.62667179998243,273.1271880000131,272.62667179998243,273.1271880000131,272.62667179998243,273.1271880000131,272.62667179998243,273.1271880000131,272.62667179998243,273.1271880000131,272.62667179998243,273.1271880000131,272.62667179998243,273.1271880000131,272.62667179998243,273.1271880000131,271.7416795999743,None,273.1271880000131,None,0.9000000000000006,274.62970300001325,None,275.3808723000111,None,,,,,,,[1.48846154],2.960000000000002,0.7307692307692307,11042,001,2024_Mar_15_1548,MFTM_A_new1021,2021.2.3,59.81551698438745,
,,,,,,,,stim/Instruction_adaptive.png,conditions/adaptive.xlsx,test,-0.6,-0.6,-0.6,0.6,0.6,left,L,,,,,0,1,1,1,0,26,26,35,,,,,,,,,,,,,,,,,,,,,,,,,,,,,,,,,,,,,,,,,,,,275.8819467999856,None,left,1,1.1855419999919832,276.38207529997453,277.7351550000021,276.38207529997453,277.23325589997694,276.38207529997453,277.23325589997694,276.38207529997453,277.23325589997694,276.38207529997453,277.23325589997694,276.38207529997453,277.23325589997694,277.21668030001456,277.7178181000054,277.21668030001456,277.7178181000054,277.21668030001456,277.7178181000054,277.21668030001456,277.7178181000054,277.21668030001456,277.7178181000054,277.21668030001456,277.7178181000054,277.21668030001456,277.7178181000054,277.21668030001456,277.7178181000054,276.38207529997453,None,277.7178181000054,279.22018250002293,0.8500000000000005,279.23603670002194,None,279.9872906000237,None,,,,,,,[1.49444444],3.030000000000002,0.7407407407407407,11042,001,2024_Mar_15_1548,MFTM_A_new1021,2021.2.3,59.81551698438745,
,,,,,,,,stim/Instruction_adaptive.png,conditions/adaptive.xlsx,test,-0.6,-0.6,-0.6,0.6,0.6,left,L,,,,,0,1,1,1,0,27,27,45,,,,,,,,,,,,,,,,,,,,,,,,,,,,,,,,,,,,,,,,,,,,280.48887439997634,None,left,1,1.3701136999879964,280.98892540001543,282.30768959998386,280.98892540001543,281.806926499994,280.98892540001543,281.806926499994,280.98892540001543,281.806926499994,280.98892540001543,281.806926499994,280.98892540001543,281.806926499994,281.79047239996726,282.290882900008,281.79047239996726,282.290882900008,281.79047239996726,282.290882900008,281.79047239996726,282.290882900008,281.79047239996726,282.290882900008,281.79047239996726,282.290882900008,281.79047239996726,282.290882900008,281.79047239996726,282.290882900008,280.98892540001543,None,282.290882900008,283.7963913999847,0.8100000000000005,283.8094158999738,None,284.5607548999833,None,,,,,,,[1.50142857],3.1000000000000023,0.75,11042,001,2024_Mar_15_1548,MFTM_A_new1021,2021.2.3,59.81551698438745,
,,,,,,,,stim/Instruction_adaptive.png,conditions/adaptive.xlsx,test,0.6,0.6,0.6,-0.6,-0.6,right,R,,,,,0,1,1,1,0,28,28,34,,,,,,,,,,,,,,,,,,,,,,,,,,,,,,,,,,,,,,,,,,,,285.0617059000069,None,right,1,0.9885085999849252,285.5629595000064,286.84806619997835,285.5629595000064,286.3479851000011,285.5629595000064,286.3479851000011,285.5629595000064,286.3479851000011,285.5629595000064,286.3479851000011,285.5629595000064,286.3479851000011,286.3136562000145,286.8143587000086,286.3136562000145,286.8143587000086,286.3136562000145,286.8143587000086,286.3136562000145,286.8143587000086,286.3136562000145,286.8143587000086,286.3136562000145,286.8143587000086,286.3136562000145,286.8143587000086,286.3136562000145,286.8143587000086,285.5629595000064,None,286.8143587000086,288.3337413999834,0.7700000000000005,288.35007699998096,None,289.10207570000784,None,,,,,,,[1.50931034],3.1700000000000026,0.7586206896551724,11042,001,2024_Mar_15_1548,MFTM_A_new1021,2021.2.3,59.81551698438745,
,,,,,,,,stim/Instruction_adaptive.png,conditions/adaptive.xlsx,test,-0.6,-0.6,-0.6,0.6,0.6,left,L,,,,,0,1,1,1,0,29,29,97,,,,,,,,,,,,,,,,,,,,,,,,,,,,,,,,,,,,,,,,,,,,289.60189459996764,None,right,0,0.7450451999902725,290.10261130001163,291.3378735000151,290.10261130001163,290.83713529998204,290.10261130001163,290.83713529998204,290.10261130001163,290.83713529998204,290.10261130001163,290.83713529998204,290.10261130001163,290.83713529998204,290.8204001999693,291.321218499972,290.8204001999693,291.321218499972,290.8204001999693,291.321218499972,290.8204001999693,291.321218499972,290.8204001999693,291.321218499972,290.8204001999693,291.321218499972,290.8204001999693,291.321218499972,290.8204001999693,291.321218499972,290.10261130001163,None,291.321218499972,292.8403878000099,0.7300000000000004,292.8571991000208,None,293.607992300007,None,,,,,,,[1.518],2.980000000000002,0.7333333333333333,11042,001,2024_Mar_15_1548,MFTM_A_new1021,2021.2.3,59.81551698438745,
,,,,,,,,stim/Instruction_adaptive.png,conditions/adaptive.xlsx,test,-0.6,-0.6,-0.6,0.6,0.6,left,L,,,,,0,1,1,1,0,30,30,13,,,,,,,,,,,,,,,,,,,,,,,,,,,,,,,,,,,,,,,,,,,,294.1085239999811,None,left,1,0.9736118000000715,294.61016859998927,295.9451038999832,294.61016859998927,295.4440853999695,294.61016859998927,295.4440853999695,294.61016859998927,295.4440853999695,294.61016859998927,295.4440853999695,294.61016859998927,295.4440853999695,295.42811280000024,295.9287403000053,295.42811280000024,295.9287403000053,295.42811280000024,295.9287403000053,295.42811280000024,295.9287403000053,295.42811280000024,295.9287403000053,295.42811280000024,295.9287403000053,295.42811280000024,295.9287403000053,295.42811280000024,295.9287403000053,294.61016859998927,None,295.9287403000053,None,0.8300000000000005,297.46410569996806,None,298.21579909999855,None,,,,,,,[1.52290323],3.0500000000000025,0.7419354838709677,11042,001,2024_Mar_15_1548,MFTM_A_new1021,2021.2.3,59.81551698438745,
,,,,,,,,stim/Instruction_adaptive.png,conditions/adaptive.xlsx,test,-0.6,-0.6,-0.6,0.6,0.6,left,L,,,,,0,1,1,1,0,31,31,81,,,,,,,,,,,,,,,,,,,,,,,,,,,,,,,,,,,,,,,,,,,,298.71630899998127,None,left,1,0.7426801000256091,299.216789899976,300.518253199989,299.216789899976,300.0184341999702,299.216789899976,300.0184341999702,299.216789899976,300.0184341999702,299.216789899976,300.0184341999702,299.216789899976,300.0184341999702,299.9841666999855,300.48501309996936,299.9841666999855,300.48501309996936,299.9841666999855,300.48501309996936,299.9841666999855,300.48501309996936,299.9841666999855,300.48501309996936,299.9841666999855,300.48501309996936,299.9841666999855,300.48501309996936,299.9841666999855,300.48501309996936,299.216789899976,None,300.48501309996936,302.02052540000295,0.7900000000000005,302.03786569996737,None,302.788512500003,None,,,,,,,[1.52875],3.110000000000002,0.75,11042,001,2024_Mar_15_1548,MFTM_A_new1021,2021.2.3,59.81551698438745,
,,,,,,,,stim/Instruction_adaptive.png,conditions/adaptive.xlsx,test,0.6,0.6,0.6,-0.6,-0.6,right,R,,,,,0,1,1,1,0,32,32,0,,,,,,,,,,,,,,,,,,,,,,,,,,,,,,,,,,,,,,,,,,,,303.289755899983,None,right,1,1.3213211999973282,303.79029959999025,305.05871630000183,303.79029959999025,304.55760659999214,303.79029959999025,304.55760659999214,303.79029959999025,304.55760659999214,303.79029959999025,304.55760659999214,303.79029959999025,304.55760659999214,304.5247253999696,305.02560499997344,304.5247253999696,305.02560499997344,304.5247253999696,305.02560499997344,304.5247253999696,305.02560499997344,304.5247253999696,305.02560499997344,304.5247253999696,305.02560499997344,304.5247253999696,305.02560499997344,304.5247253999696,305.02560499997344,303.79029959999025,None,305.02560499997344,306.5611396000022,0.7600000000000005,306.59417029999895,None,307.34548309998354,None,,,,,,,[1.53515152],3.1700000000000026,0.7575757575757576,11042,001,2024_Mar_15_1548,MFTM_A_new1021,2021.2.3,59.81551698438745,
,,,,,,,,stim/Instruction_adaptive.png,conditions/adaptive.xlsx,test,0.6,0.6,0.6,-0.6,-0.6,right,R,,,,,0,1,1,1,0,33,33,10,,,,,,,,,,,,,,,,,,,,,,,,,,,,,,,,,,,,,,,,,,,,307.846470199991,None,right,1,1.1971916999900714,308.3468119999743,309.5819453999866,308.3468119999743,309.08172479999484,308.3468119999743,309.08172479999484,308.3468119999743,309.08172479999484,308.3468119999743,309.08172479999484,308.3468119999743,309.08172479999484,309.06491149996873,309.56536860001506,309.06491149996873,309.56536860001506,309.06491149996873,309.56536860001506,309.06491149996873,309.56536860001506,309.06491149996873,309.56536860001506,309.06491149996873,309.56536860001506,309.06491149996873,309.56536860001506,309.06491149996873,309.56536860001506,308.3468119999743,None,309.56536860001506,311.11785669997334,0.7300000000000004,311.13438409997616,None,311.8856535999803,None,,,,,,,[1.54205882],3.230000000000002,0.7647058823529411,11042,001,2024_Mar_15_1548,MFTM_A_new1021,2021.2.3,59.81551698438745,
,,,,,,,,stim/Instruction_adaptive.png,conditions/adaptive.xlsx,test,0.6,0.6,0.6,-0.6,-0.6,right,R,,,,,0,1,1,1,0,34,34,68,,,,,,,,,,,,,,,,,,,,,,,,,,,,,,,,,,,,,,,,,,,,312.38638669997454,None,left,0,0.7607345000142232,312.88730409997515,314.0887568999897,312.88730409997515,313.5889326999895,312.88730409997515,313.5889326999895,312.88730409997515,313.5889326999895,312.88730409997515,313.5889326999895,312.88730409997515,313.5889326999895,313.57173819997115,314.07229649997316,313.57173819997115,314.07229649997316,313.57173819997115,314.07229649997316,313.57173819997115,314.07229649997316,313.57173819997115,314.07229649997316,313.57173819997115,314.07229649997316,313.57173819997115,314.07229649997316,313.57173819997115,314.07229649997316,312.88730409997515,None,314.07229649997316,315.62449249997735,0.7000000000000004,315.641328800004,None,316.3931689999881,None,,,,,,,[1.54942857],3.070000000000002,0.7428571428571429,11042,001,2024_Mar_15_1548,MFTM_A_new1021,2021.2.3,59.81551698438745,
,,,,,,,,stim/Instruction_adaptive.png,conditions/adaptive.xlsx,test,0.6,0.6,0.6,-0.6,-0.6,right,R,,,,,0,1,1,1,0,35,35,26,,,,,,,,,,,,,,,,,,,,,,,,,,,,,,,,,,,,,,,,,,,,316.89324579999084,None,left,0,1.1506334000150673,317.3936719999765,318.67959159996826,317.3936719999765,318.1782761000213,317.3936719999765,318.1782761000213,317.3936719999765,318.1782761000213,317.3936719999765,318.1782761000213,317.3936719999765,318.1782761000213,318.16154369997093,318.66288199997507,318.16154369997093,318.66288199997507,318.16154369997093,318.66288199997507,318.16154369997093,318.66288199997507,318.16154369997093,318.66288199997507,318.16154369997093,318.66288199997507,318.16154369997093,318.66288199997507,318.16154369997093,318.66288199997507,317.3936719999765,None,318.66288199997507,None,0.7800000000000005,320.23190090002026,None,320.98286109999754,None,,,,,,,[1.55416667],2.900000000000002,0.7222222222222222,11042,001,2024_Mar_15_1548,MFTM_A_new1021,2021.2.3,59.81551698438745,
,,,,,,,,stim/Instruction_adaptive.png,conditions/adaptive.xlsx,test,-0.6,-0.6,-0.6,0.6,0.6,left,L,,,,,0,1,1,1,0,36,36,9,,,,,,,,,,,,,,,,,,,,,,,,,,,,,,,,,,,,,,,,,,,,321.48328490002314,None,right,0,1.6002589000272565,321.9842325000209,323.36982169997646,321.9842325000209,322.86881399998674,321.9842325000209,322.86881399998674,321.9842325000209,322.86881399998674,321.9842325000209,322.86881399998674,321.9842325000209,322.86881399998674,322.85210489999736,323.35308550001355,322.85210489999736,323.35308550001355,322.85210489999736,323.35308550001355,322.85210489999736,323.35308550001355,322.85210489999736,323.35308550001355,322.85210489999736,323.35308550001355,322.85210489999736,323.35308550001355,322.85210489999736,323.35308550001355,321.9842325000209,None,323.35308550001355,None,0.8800000000000006,324.9216302999994,None,325.67280399997253,None,,,,,,,[1.55594595],2.720000000000002,0.7027027027027027,11042,001,2024_Mar_15_1548,MFTM_A_new1021,2021.2.3,59.81551698438745,
,,,,,,,,stim/Instruction_adaptive.png,conditions/adaptive.xlsx,test,-0.6,-0.6,-0.6,0.6,0.6,left,L,,,,,0,1,1,1,0,37,37,89,,,,,,,,,,,,,,,,,,,,,,,,,,,,,,,,,,,,,,,,,,,,326.1734226999688,None,left,1,0.7415836000000127,326.67459100001724,328.17691849998664,326.67459100001724,327.67576900002314,326.67459100001724,327.67576900002314,326.67459100001724,327.67576900002314,326.67459100001724,327.67576900002314,326.67459100001724,327.67576900002314,327.6595042999834,328.1605199999758,327.6595042999834,328.1605199999758,327.6595042999834,328.1605199999758,327.6595042999834,328.1605199999758,327.6595042999834,328.1605199999758,327.6595042999834,328.1605199999758,327.6595042999834,328.1605199999758,327.6595042999834,328.1605199999758,326.67459100001724,None,328.1605199999758,329.6631126999855,1.0000000000000007,329.67900509998435,None,330.43045089999214,None,,,,,,,[[1.5]],2.790000000000002,0.7105263157894737,11042,001,2024_Mar_15_1548,MFTM_A_new1021,2021.2.3,59.81551698438745,
,,,,,,,,stim/Instruction_adaptive.png,conditions/adaptive.xlsx,test,-0.6,-0.6,-0.6,0.6,0.6,left,L,,,,,0,1,1,1,0,38,38,51,,,,,,,,,,,,,,,,,,,,,,,,,,,,,,,,,,,,,,,,,,,,330.9309166999883,None,left,1,0.96919740003068,331.4315329999663,332.884084899968,331.4315329999663,332.38363930000924,331.4315329999663,332.38363930000924,331.4315329999663,332.38363930000924,331.4315329999663,332.38363930000924,331.4315329999663,332.38363930000924,332.36711990000913,332.8673259000061,332.36711990000913,332.8673259000061,332.36711990000913,332.8673259000061,332.36711990000913,332.8673259000061,332.36711990000913,332.8673259000061,332.36711990000913,332.8673259000061,332.36711990000913,332.8673259000061,332.36711990000913,332.8673259000061,331.4315329999663,None,332.8673259000061,334.4194587999955,0.9500000000000006,334.4360472999979,None,335.18816630000947,None,,,,,,,[[1.55]],2.8500000000000023,0.717948717948718,11042,001,2024_Mar_15_1548,MFTM_A_new1021,2021.2.3,59.81551698438745,
,,,,,,,,stim/Instruction_adaptive.png,conditions/adaptive.xlsx,test,-0.6,-0.6,-0.6,0.6,0.6,left,L,,,,,0,1,1,1,0,39,39,75,,,,,,,,,,,,,,,,,,,,,,,,,,,,,,,,,,,,,,,,,,,,335.68824809999205,None,left,1,0.9001175000448711,336.18877559999237,337.6078650999698,336.18877559999237,337.1072741000098,336.18877559999237,337.1072741000098,336.18877559999237,337.1072741000098,336.18877559999237,337.1072741000098,336.18877559999237,337.1072741000098,337.07382509997115,337.57486210000934,337.07382509997115,337.57486210000934,337.07382509997115,337.57486210000934,337.07382509997115,337.57486210000934,337.07382509997115,337.57486210000934,337.07382509997115,337.57486210000934,337.07382509997115,337.57486210000934,337.07382509997115,337.57486210000934,336.18877559999237,None,337.57486210000934,339.1433379999944,0.9100000000000006,339.16034110001056,None,339.9112224999699,None,,,,,,,[1.55525],2.900000000000002,0.725,11042,001,2024_Mar_15_1548,MFTM_A_new1021,2021.2.3,59.81551698438745,
,,,,,,,,stim/Instruction_adaptive.png,conditions/adaptive.xlsx,test,0.6,0.6,0.6,-0.6,-0.6,right,R,,,,,0,1,1,1,0,40,40,30,,,,,,,,,,,,,,,,,,,,,,,,,,,,,,,,,,,,,,,,,,,,340.4123403999838,None,right,1,1.3692006000201218,340.91299179999623,342.29797780001536,340.91299179999623,341.7975737999659,340.91299179999623,341.7975737999659,340.91299179999623,341.7975737999659,340.91299179999623,341.7975737999659,340.91299179999623,341.7975737999659,341.780958599993,342.2817516999785,341.780958599993,342.2817516999785,341.780958599993,342.2817516999785,341.780958599993,342.2817516999785,341.780958599993,342.2817516999785,341.780958599993,342.2817516999785,341.780958599993,342.2817516999785,341.780958599993,342.2817516999785,340.91299179999623,None,342.2817516999785,None,0.8800000000000006,343.850966900005,None,344.6014931999962,None,,,,,,,[1.55682927],2.960000000000002,0.7317073170731707,11042,001,2024_Mar_15_1548,MFTM_A_new1021,2021.2.3,59.81551698438745,
,,,,,,,,stim/Instruction_adaptive.png,conditions/adaptive.xlsx,test,-0.6,-0.6,-0.6,0.6,0.6,left,L,,,,,0,1,1,1,0,41,41,77,,,,,,,,,,,,,,,,,,,,,,,,,,,,,,,,,,,,,,,,,,,,345.1021104999818,None,left,1,1.1895463000400923,345.6032905000029,346.9550230000168,345.6032905000029,346.45453779998934,345.6032905000029,346.45453779998934,345.6032905000029,346.45453779998934,345.6032905000029,346.45453779998934,345.6032905000029,346.45453779998934,346.43749649997335,346.9382584000123,346.43749649997335,346.9382584000123,346.43749649997335,346.9382584000123,346.43749649997335,346.9382584000123,346.43749649997335,346.9382584000123,346.43749649997335,346.9382584000123,346.43749649997335,346.9382584000123,346.43749649997335,346.9382584000123,345.6032905000029,None,346.9382584000123,348.50780540000414,0.8500000000000005,348.5245477000135,None,349.27606649999507,None,,,,,,,[1.55904762],3.0100000000000025,0.7380952380952381,11042,001,2024_Mar_15_1548,MFTM_A_new1021,2021.2.3,59.81551698438745,
,,,,,,,,stim/Instruction_adaptive.png,conditions/adaptive.xlsx,test,0.6,0.6,0.6,-0.6,-0.6,right,R,,,,,0,1,1,1,0,42,42,18,,,,,,,,,,,,,,,,,,,,,,,,,,,,,,,,,,,,,,,,,,,,349.7759837000049,None,right,1,1.4201519999769516,350.27676410001004,351.6122908999678,350.27676410001004,351.1115979999886,350.27676410001004,351.1115979999886,350.27676410001004,351.1115979999886,350.27676410001004,351.1115979999886,350.27676410001004,351.1115979999886,351.07789329998195,351.5789192999946,351.07789329998195,351.5789192999946,351.07789329998195,351.5789192999946,351.07789329998195,351.5789192999946,351.07789329998195,351.5789192999946,351.07789329998195,351.5789192999946,351.07789329998195,351.5789192999946,351.07789329998195,351.5789192999946,350.27676410001004,None,351.5789192999946,353.148104300024,0.8200000000000005,353.16431199997896,None,353.915514399996,None,,,,,,,[1.56186047],3.0500000000000025,0.7441860465116279,11042,001,2024_Mar_15_1548,MFTM_A_new1021,2021.2.3,59.81551698438745,
,,,,,,,,stim/Instruction_adaptive.png,conditions/adaptive.xlsx,test,-0.6,-0.6,-0.6,0.6,0.6,left,L,,,,,0,1,1,1,0,43,43,27,,,,,,,,,,,,,,,,,,,,,,,,,,,,,,,,,,,,,,,,,,,,354.4163213999709,None,right,0,0.9161016999860294,354.9170924000209,356.2193549000076,354.9170924000209,355.7183140999987,354.9170924000209,355.7183140999987,354.9170924000209,355.7183140999987,354.9170924000209,355.7183140999987,354.9170924000209,355.7183140999987,355.6855973000056,356.18591409997316,355.6855973000056,356.18591409997316,355.6855973000056,356.18591409997316,355.6855973000056,356.18591409997316,355.6855973000056,356.18591409997316,355.6855973000056,356.18591409997316,355.6855973000056,356.18591409997316,355.6855973000056,356.18591409997316,354.9170924000209,None,356.18591409997316,357.7545409000013,0.7900000000000005,357.78793479996966,None,358.5395381000126,None,,,,,,,[1.56522727],2.920000000000002,0.7272727272727273,11042,001,2024_Mar_15_1548,MFTM_A_new1021,2021.2.3,59.81551698438745,
,,,,,,,,stim/Instruction_adaptive.png,conditions/adaptive.xlsx,test,-0.6,-0.6,-0.6,0.6,0.6,left,L,,,,,0,1,1,1,0,44,44,29,,,,,,,,,,,,,,,,,,,,,,,,,,,,,,,,,,,,,,,,,,,,359.0397467999719,None,left,1,0.8688253000145778,359.54073399998015,360.909342799976,359.54073399998015,360.4256575999898,359.54073399998015,360.4256575999898,359.54073399998015,360.4256575999898,359.54073399998015,360.4256575999898,359.54073399998015,360.4256575999898,360.391987400013,360.89297879999503,360.391987400013,360.89297879999503,360.391987400013,360.89297879999503,360.391987400013,360.89297879999503,360.391987400013,360.89297879999503,360.391987400013,360.89297879999503,360.391987400013,360.89297879999503,360.391987400013,360.89297879999503,359.54073399998015,None,360.89297879999503,362.4633333000238,0.8700000000000006,362.4783484999789,None,363.2295859999722,None,,,,,,,[1.56666667],2.9700000000000024,0.7333333333333333,11042,001,2024_Mar_15_1548,MFTM_A_new1021,2021.2.3,59.81551698438745,
,,,,,,,,stim/Instruction_adaptive.png,conditions/adaptive.xlsx,test,-0.6,-0.6,-0.6,0.6,0.6,left,L,,,,,0,1,1,1,0,45,45,49,,,,,,,,,,,,,,,,,,,,,,,,,,,,,,,,,,,,,,,,,,,,363.730836600007,None,left,1,0.8819523999700323,364.2312073999783,365.5835957999807,364.2312073999783,365.0824827000033,364.2312073999783,365.0824827000033,364.2312073999783,365.0824827000033,364.2312073999783,365.0824827000033,364.2312073999783,365.0824827000033,365.04912599996896,365.55001890001586,365.04912599996896,365.55001890001586,365.04912599996896,365.55001890001586,365.04912599996896,365.55001890001586,365.04912599996896,365.55001890001586,365.04912599996896,365.55001890001586,365.04912599996896,365.55001890001586,365.04912599996896,365.55001890001586,364.2312073999783,None,365.55001890001586,367.11931129998993,0.8400000000000005,367.1523678000085,None,367.90343669999857,None,,,,,,,[1.56869565],3.0100000000000025,0.7391304347826086,11042,001,2024_Mar_15_1548,MFTM_A_new1021,2021.2.3,59.81551698438745,
,,,,,,,,stim/Instruction_adaptive.png,conditions/adaptive.xlsx,test,0.6,0.6,0.6,-0.6,-0.6,right,R,,,,,0,1,1,1,0,46,46,32,,,,,,,,,,,,,,,,,,,,,,,,,,,,,,,,,,,,,,,,,,,,368.4041602999787,None,right,1,1.1688082999899052,368.904938200023,370.2401185000199,368.904938200023,369.73930650000693,368.904938200023,369.73930650000693,368.904938200023,369.73930650000693,368.904938200023,369.73930650000693,368.904938200023,369.73930650000693,369.7061126999906,370.20709789998364,369.7061126999906,370.20709789998364,369.7061126999906,370.20709789998364,369.7061126999906,370.20709789998364,369.7061126999906,370.20709789998364,369.7061126999906,370.20709789998364,369.7061126999906,370.20709789998364,369.7061126999906,370.20709789998364,368.904938200023,None,370.20709789998364,371.79250109998975,0.8200000000000005,371.80970039998647,None,372.56031719996827,None,,,,,,,[1.57106383],3.0500000000000025,0.7446808510638298,11042,001,2024_Mar_15_1548,MFTM_A_new1021,2021.2.3,59.81551698438745,
,,,,,,,,stim/Instruction_adaptive.png,conditions/adaptive.xlsx,test,0.6,0.6,0.6,-0.6,-0.6,right,R,,,,,0,1,1,1,0,47,47,36,,,,,,,,,,,,,,,,,,,,,,,,,,,,,,,,,,,,,,,,,,,,373.0612868000171,None,right,1,0.7120543000055477,373.56176850001793,374.8637568000122,373.56176850001793,374.36302469996735,373.56176850001793,374.36302469996735,373.56176850001793,374.36302469996735,373.56176850001793,374.36302469996735,373.56176850001793,374.36302469996735,374.329793300014,374.83070069999667,374.329793300014,374.83070069999667,374.329793300014,374.83070069999667,374.329793300014,374.83070069999667,374.329793300014,374.83070069999667,374.329793300014,374.83070069999667,374.329793300014,374.83070069999667,374.329793300014,374.83070069999667,373.56176850001793,None,374.83070069999667,376.41682400001446,0.7900000000000005,376.43334469996626,None,377.1842142000096,None,,,,,,,[1.57395833],3.1000000000000023,0.75,11042,001,2024_Mar_15_1548,MFTM_A_new1021,2021.2.3,59.81551698438745,
,,,,,,,,stim/Instruction_adaptive.png,conditions/adaptive.xlsx,test,0.6,0.6,0.6,-0.6,-0.6,right,R,,,,,0,1,1,1,0,48,48,14,,,,,,,,,,,,,,,,,,,,,,,,,,,,,,,,,,,,,,,,,,,,377.6847988999798,None,right,1,1.263930699962657,378.185765000002,379.47069960000226,378.185765000002,378.97076559998095,378.185765000002,378.97076559998095,378.185765000002,378.97076559998095,378.185765000002,378.97076559998095,378.185765000002,378.97076559998095,378.93719640001655,379.4372207999695,378.93719640001655,379.4372207999695,378.93719640001655,379.4372207999695,378.93719640001655,379.4372207999695,378.93719640001655,379.4372207999695,378.93719640001655,379.4372207999695,378.93719640001655,379.4372207999695,378.93719640001655,379.4372207999695,378.185765000002,None,379.4372207999695,381.0231408000109,0.7700000000000005,381.0401657000184,None,381.79142119997414,None,,,,,,,[1.57714286],3.1400000000000023,0.7551020408163265,11042,001,2024_Mar_15_1548,MFTM_A_new1021,2021.2.3,59.81551698438745,
,,,,,,,,stim/Instruction_adaptive.png,conditions/adaptive.xlsx,test,-0.6,-0.6,-0.6,0.6,0.6,left,L,,,,,0,1,1,1,0,49,49,37,,,,,,,,,,,,,,,,,,,,,,,,,,,,,,,,,,,,,,,,,,,,382.29176759999245,None,left,1,1.1616389999981038,382.79235860001063,384.0443548000185,382.79235860001063,383.5435925999773,382.79235860001063,383.5435925999773,382.79235860001063,383.5435925999773,382.79235860001063,383.5435925999773,382.79235860001063,383.5435925999773,383.5273916000151,384.027583899966,383.5273916000151,384.027583899966,383.5273916000151,384.027583899966,383.5273916000151,384.027583899966,383.5273916000151,384.027583899966,383.5273916000151,384.027583899966,383.5273916000151,384.027583899966,383.5273916000151,384.027583899966,382.79235860001063,None,384.027583899966,385.6134668000159,0.7500000000000004,385.62977980001597,None,386.38171919999877,None,,,,,,,[1.5806],3.1700000000000026,0.76,11042,001,2024_Mar_15_1548,MFTM_A_new1021,2021.2.3,59.81551698438745,
,,,,,,,,stim/Instruction_adaptive.png,conditions/adaptive.xlsx,test,0.6,0.6,0.6,-0.6,-0.6,right,R,,,,,0,1,1,1,0,50,50,82,,,,,,,,,,,,,,,,,,,,,,,,,,,,,,,,,,,,,,,,,,,,386.8819301999756,None,right,1,1.2676054000039585,387.38267239998095,388.61797339998884,387.38267239998095,388.1170650999993,387.38267239998095,388.1170650999993,387.38267239998095,388.1170650999993,387.38267239998095,388.1170650999993,387.38267239998095,388.1170650999993,388.10030679998454,388.6018816999858,388.10030679998454,388.6018816999858,388.10030679998454,388.6018816999858,388.10030679998454,388.6018816999858,388.10030679998454,388.6018816999858,388.10030679998454,388.6018816999858,388.10030679998454,388.6018816999858,388.10030679998454,388.6018816999858,387.38267239998095,None,388.6018816999858,390.1880952999927,0.7300000000000004,390.20353549998254,None,390.95443969999906,None,,,,,,,[1.58431373],3.2100000000000026,0.7647058823529411,11042,001,2024_Mar_15_1548,MFTM_A_new1021,2021.2.3,59.81551698438745,
,,,,,,,,stim/Instruction_adaptive.png,conditions/adaptive.xlsx,test,0.6,0.6,0.6,-0.6,-0.6,right,R,,,,,0,1,1,1,0,51,51,2,,,,,,,,,,,,,,,,,,,,,,,,,,,,,,,,,,,,,,,,,,,,391.45559279999,None,right,1,0.973755799990613,391.95637139998144,393.17524690000573,391.95637139998144,392.67395889997715,391.95637139998144,392.67395889997715,391.95637139998144,392.67395889997715,391.95637139998144,392.67395889997715,391.95637139998144,392.67395889997715,392.6414578999975,393.1413426999934,392.6414578999975,393.1413426999934,392.6414578999975,393.1413426999934,392.6414578999975,393.1413426999934,392.6414578999975,393.1413426999934,392.6414578999975,393.1413426999934,392.6414578999975,393.1413426999934,392.6414578999975,393.1413426999934,391.95637139998144,None,393.1413426999934,394.7442770000198,0.7100000000000004,394.760497100011,None,395.51196440000786,None,,,,,,,[1.58826923],3.2500000000000027,0.7692307692307693,11042,001,2024_Mar_15_1548,MFTM_A_new1021,2021.2.3,59.81551698438745,
,,,,,,,,stim/Instruction_adaptive.png,conditions/adaptive.xlsx,test,0.6,0.6,0.6,-0.6,-0.6,right,R,,,,,0,1,1,1,0,52,52,92,,,,,,,,,,,,,,,,,,,,,,,,,,,,,,,,,,,,,,,,,,,,396.0133330000099,None,right,1,0.7529102999833412,396.5131673999713,397.71509949996835,396.5131673999713,397.2141911999788,396.5131673999713,397.2141911999788,396.5131673999713,397.2141911999788,396.5131673999713,397.2141911999788,396.5131673999713,397.2141911999788,397.1807477999828,397.68161490000784,397.1807477999828,397.68161490000784,397.1807477999828,397.68161490000784,397.1807477999828,397.68161490000784,397.1807477999828,397.68161490000784,397.1807477999828,397.68161490000784,397.1807477999828,397.68161490000784,397.1807477999828,397.68161490000784,396.5131673999713,None,397.68161490000784,399.28381429996807,0.6900000000000004,399.30056529998546,None,400.0517896999954,None,,,,,,,[1.59245283],3.2800000000000025,0.7735849056603774,11042,001,2024_Mar_15_1548,MFTM_A_new1021,2021.2.3,59.81551698438745,
,,,,,,,,stim/Instruction_adaptive.png,conditions/adaptive.xlsx,test,-0.6,-0.6,-0.6,0.6,0.6,left,L,,,,,0,1,1,1,0,53,53,95,,,,,,,,,,,,,,,,,,,,,,,,,,,,,,,,,,,,,,,,,,,,400.55240390001563,None,left,1,1.092308499966748,401.0541337999748,402.23860759998206,401.0541337999748,401.7378104000236,401.0541337999748,401.7378104000236,401.0541337999748,401.7378104000236,401.0541337999748,401.7378104000236,401.0541337999748,401.7378104000236,401.7209469000227,402.2217561000143,401.7209469000227,402.2217561000143,401.7209469000227,402.2217561000143,401.7209469000227,402.2217561000143,401.7209469000227,402.2217561000143,401.7209469000227,402.2217561000143,401.7209469000227,402.2217561000143,401.7209469000227,402.2217561000143,401.0541337999748,None,402.2217561000143,403.82421210000757,0.6800000000000004,403.84093860001303,None,404.59226190001937,None,,,,,,,[1.59666667],3.3100000000000023,0.7777777777777778,11042,001,2024_Mar_15_1548,MFTM_A_new1021,2021.2.3,59.81551698438745,
,,,,,,,,stim/Instruction_adaptive.png,conditions/adaptive.xlsx,test,0.6,0.6,0.6,-0.6,-0.6,right,R,,,,,0,1,1,1,0,54,54,62,,,,,,,,,,,,,,,,,,,,,,,,,,,,,,,,,,,,,,,,,,,,405.09250799997244,None,right,1,0.6567887000273913,405.59346529998584,406.7618204000173,405.59346529998584,406.2611558000208,405.59346529998584,406.2611558000208,405.59346529998584,406.2611558000208,405.59346529998584,406.2611558000208,405.59346529998584,406.2611558000208,406.24434540001675,406.7452142999973,406.24434540001675,406.7452142999973,406.24434540001675,406.7452142999973,406.24434540001675,406.7452142999973,406.24434540001675,406.7452142999973,406.24434540001675,406.7452142999973,406.24434540001675,406.7452142999973,406.24434540001675,406.7452142999973,405.59346529998584,None,406.72844869998517,408.3324666999979,0.6600000000000004,408.3642263999791,None,409.11538329999894,None,,,,,,,[1.60109091],3.3500000000000023,0.7818181818181819,11042,001,2024_Mar_15_1548,MFTM_A_new1021,2021.2.3,59.81551698438745,
,,,,,,,,stim/Instruction_adaptive.png,conditions/adaptive.xlsx,test,0.6,0.6,0.6,-0.6,-0.6,right,R,,,,,0,1,1,1,0,55,55,98,,,,,,,,,,,,,,,,,,,,,,,,,,,,,,,,,,,,,,,,,,,,409.6161343000131,None,left,0,0.5894337999634445,410.11716750002233,411.2692415000056,410.11716750002233,410.7691276000114,410.11716750002233,410.7691276000114,410.11716750002233,410.7691276000114,410.11716750002233,410.7691276000114,410.11716750002233,410.7691276000114,410.75155609997455,411.25243499997305,410.75155609997455,411.25243499997305,410.75155609997455,411.25243499997305,410.75155609997455,411.25243499997305,410.75155609997455,411.25243499997305,410.75155609997455,411.25243499997305,410.75155609997455,411.25243499997305,410.75155609997455,411.25243499997305,410.11716750002233,None,411.25243499997305,412.87221960001625,0.6500000000000004,412.8879981000209,None,413.6394829999772,None,,,,,,,[1.60553571],3.2500000000000027,0.7678571428571429,11042,001,2024_Mar_15_1548,MFTM_A_new1021,2021.2.3,59.81551698438745,
,,,,,,,,stim/Instruction_adaptive.png,conditions/adaptive.xlsx,test,-0.6,-0.6,-0.6,0.6,0.6,left,L,,,,,0,1,1,1,0,56,56,53,,,,,,,,,,,,,,,,,,,,,,,,,,,,,,,,,,,,,,,,,,,,414.1396578999702,None,right,0,0.9860760000301525,414.64052580000134,415.8427072999766,414.64052580000134,415.34121179999784,414.64052580000134,415.34121179999784,414.64052580000134,415.34121179999784,414.64052580000134,415.34121179999784,414.64052580000134,415.34121179999784,415.3087805999676,415.8088726999704,415.3087805999676,415.8088726999704,415.3087805999676,415.8088726999704,415.3087805999676,415.8088726999704,415.3087805999676,415.8088726999704,415.3087805999676,415.8088726999704,415.3087805999676,415.8088726999704,415.3087805999676,415.8088726999704,414.64052580000134,None,415.8088726999704,417.4280352999922,0.6900000000000004,417.4446636000066,None,418.1956975000212,None,,,,,,,[1.60912281],3.1600000000000024,0.7543859649122807,11042,001,2024_Mar_15_1548,MFTM_A_new1021,2021.2.3,59.81551698438745,
,,,,,,,,stim/Instruction_adaptive.png,conditions/adaptive.xlsx,test,-0.6,-0.6,-0.6,0.6,0.6,left,L,,,,,0,1,1,1,0,57,57,1,,,,,,,,,,,,,,,,,,,,,,,,,,,,,,,,,,,,,,,,,,,,418.6963013000204,None,left,1,1.1981656000134535,419.19725640001707,420.4496986999875,419.19725640001707,419.94837669999106,419.19725640001707,419.94837669999106,419.19725640001707,419.94837669999106,419.19725640001707,419.94837669999106,419.19725640001707,419.94837669999106,419.91518319997704,420.4157879999839,419.91518319997704,420.4157879999839,419.91518319997704,420.4157879999839,419.91518319997704,420.4157879999839,419.91518319997704,420.4157879999839,419.91518319997704,420.4157879999839,419.91518319997704,420.4157879999839,419.91518319997704,420.4157879999839,419.19725640001707,None,420.4157879999839,422.0351883000112,0.7400000000000004,422.0518231000169,None,422.8026572999661,None,,,,,,,[1.61172414],3.190000000000002,0.7586206896551724,11042,001,2024_Mar_15_1548,MFTM_A_new1021,2021.2.3,59.81551698438745,
,,,,,,,,stim/Instruction_adaptive.png,conditions/adaptive.xlsx,test,-0.6,-0.6,-0.6,0.6,0.6,left,L,,,,,0,1,1,1,0,58,58,23,,,,,,,,,,,,,,,,,,,,,,,,,,,,,,,,,,,,,,,,,,,,423.3034824000206,None,left,1,1.0788875999860466,423.804123000009,425.0227008999791,423.804123000009,424.53872840001713,423.804123000009,424.53872840001713,423.804123000009,424.53872840001713,423.804123000009,424.53872840001713,423.804123000009,424.53872840001713,424.5056067999685,425.0065743000014,424.5056067999685,425.0065743000014,424.5056067999685,425.0065743000014,424.5056067999685,425.0065743000014,424.5056067999685,425.0065743000014,424.5056067999685,425.0065743000014,424.5056067999685,425.0065743000014,424.5056067999685,425.0065743000014,423.804123000009,None,425.0065743000014,426.6250932000112,0.7200000000000004,426.64177019998897,None,427.3929877000046,None,,,,,,,[1.61457627],3.2200000000000024,0.7627118644067796,11042,001,2024_Mar_15_1548,MFTM_A_new1021,2021.2.3,59.81551698438745,
,,,,,,,,stim/Instruction_adaptive.png,conditions/adaptive.xlsx,test,0.6,0.6,0.6,-0.6,-0.6,right,R,,,,,0,1,1,1,0,59,59,12,,,,,,,,,,,,,,,,,,,,,,,,,,,,,,,,,,,,,,,,,,,,427.89414230000693,None,left,0,1.3447667000000365,428.3944382999907,429.6135481999954,428.3944382999907,429.1120879999944,428.3944382999907,429.1120879999944,428.3944382999907,429.1120879999944,428.3944382999907,429.1120879999944,428.3944382999907,429.1120879999944,429.07897400000365,429.5795405000099,429.07897400000365,429.5795405000099,429.07897400000365,429.5795405000099,429.07897400000365,429.5795405000099,429.07897400000365,429.5795405000099,429.07897400000365,429.5795405000099,429.07897400000365,429.5795405000099,429.07897400000365,429.5795405000099,428.3944382999907,None,429.5795405000099,431.20051280001644,0.7100000000000004,431.2328034999664,None,431.9843053999939,None,,,,,,,[1.6175],3.1300000000000026,0.75,11042,001,2024_Mar_15_1548,MFTM_A_new1021,2021.2.3,59.81551698438745,
,,,,,,,,stim/Instruction_adaptive.png,conditions/adaptive.xlsx,test,0.6,0.6,0.6,-0.6,-0.6,right,R,,,,,0,1,1,1,0,60,60,52,,,,,,,,,,,,,,,,,,,,,,,,,,,,,,,,,,,,,,,,,,,,432.4842743999907,None,right,1,1.2261671999585815,432.9850830999785,434.23643589997664,432.9850830999785,433.7357091999729,432.9850830999785,433.7357091999729,432.9850830999785,433.7357091999729,432.9850830999785,433.7357091999729,432.9850830999785,433.7357091999729,433.71909919998143,434.21998250001343,433.71909919998143,434.21998250001343,433.71909919998143,434.21998250001343,433.71909919998143,434.21998250001343,433.71909919998143,434.21998250001343,433.71909919998143,434.21998250001343,433.71909919998143,434.21998250001343,433.71909919998143,434.21998250001343,432.9850830999785,None,434.21998250001343,435.83959779998986,0.7500000000000004,435.856569399999,None,436.6066533999983,None,,,,,,,[1.61967213],3.1600000000000024,0.7540983606557377,11042,001,2024_Mar_15_1548,MFTM_A_new1021,2021.2.3,59.81551698438745,
,,,,,,,,stim/Instruction_adaptive.png,conditions/adaptive.xlsx,test,0.6,0.6,0.6,-0.6,-0.6,right,R,,,,,0,1,1,1,0,61,61,22,,,,,,,,,,,,,,,,,,,,,,,,,,,,,,,,,,,,,,,,,,,,437.10868329997174,None,right,1,1.2028266999986954,437.60843029996613,438.8601197999669,437.60843029996613,438.3601219999837,437.60843029996613,438.3601219999837,437.60843029996613,438.3601219999837,437.60843029996613,438.3601219999837,437.60843029996613,438.3601219999837,438.32622970000375,438.82675409998046,438.32622970000375,438.82675409998046,438.32622970000375,438.82675409998046,438.32622970000375,438.82675409998046,438.32622970000375,438.82675409998046,438.32622970000375,438.82675409998046,438.32622970000375,438.82675409998046,438.32622970000375,438.82675409998046,437.60843029996613,None,438.82675409998046,440.4625750000123,0.7400000000000004,440.47930980002275,None,441.2311961000087,None,,,,,,,[1.62193548],3.190000000000002,0.7580645161290323,11042,001,2024_Mar_15_1548,MFTM_A_new1021,2021.2.3,59.81551698438745,
,,,,,,,,stim/Instruction_adaptive.png,conditions/adaptive.xlsx,test,-0.6,-0.6,-0.6,0.6,0.6,left,L,,,,,0,1,1,1,0,62,62,55,,,,,,,,,,,,,,,,,,,,,,,,,,,,,,,,,,,,,,,,,,,,441.7312416000059,None,right,0,1.59538449998945,442.23204580001766,443.46745190001093,442.23204580001766,442.96674579998944,442.23204580001766,442.96674579998944,442.23204580001766,442.96674579998944,442.23204580001766,442.96674579998944,442.23204580001766,442.96674579998944,442.9329346999875,443.43405719997827,442.9329346999875,443.43405719997827,442.9329346999875,443.43405719997827,442.9329346999875,443.43405719997827,442.9329346999875,443.43405719997827,442.9329346999875,443.43405719997827,442.9329346999875,443.43405719997827,442.9329346999875,443.43405719997827,442.23204580001766,None,443.43405719997827,445.07073019997915,0.7200000000000004,445.08620899997186,None,445.8373545000213,None,,,,,,,[1.62444444],3.1000000000000023,0.746031746031746,11042,001,2024_Mar_15_1548,MFTM_A_new1021,2021.2.3,59.81551698438745,
,,,,,,,,stim/Instruction_adaptive.png,conditions/adaptive.xlsx,test,0.6,0.6,0.6,-0.6,-0.6,right,R,,,,,0,1,1,1,0,63,63,8,,,,,,,,,,,,,,,,,,,,,,,,,,,,,,,,,,,,,,,,,,,,446.338105599978,None,left,0,1.2762599000125192,446.8390182000003,448.1076268000179,446.8390182000003,447.623666999978,446.8390182000003,447.623666999978,446.8390182000003,447.623666999978,446.8390182000003,447.623666999978,446.8390182000003,447.623666999978,447.59012720000464,448.09129040001426,447.59012720000464,448.09129040001426,447.59012720000464,448.09129040001426,447.59012720000464,448.09129040001426,447.59012720000464,448.09129040001426,447.59012720000464,448.09129040001426,447.59012720000464,448.09129040001426,447.59012720000464,448.09129040001426,446.8390182000003,None,448.09129040001426,449.7267490000231,0.7700000000000005,449.743316099979,None,450.494561599975,None,,,,,,,[1.62609375],3.0100000000000025,0.734375,11042,001,2024_Mar_15_1548,MFTM_A_new1021,2021.2.3,59.81551698438745,
,,,,,,,,stim/Instruction_adaptive.png,conditions/adaptive.xlsx,test,-0.6,-0.6,-0.6,0.6,0.6,left,L,,,,,0,1,1,1,0,64,64,63,,,,,,,,,,,,,,,,,,,,,,,,,,,,,,,,,,,,,,,,,,,,450.99503360001836,None,left,1,2.067068000033032,451.4967388000223,452.83128619997296,451.4967388000223,452.33044250000967,451.4967388000223,452.33044250000967,451.4967388000223,452.33044250000967,451.4967388000223,452.33044250000967,451.4967388000223,452.33044250000967,452.29758660000516,452.7983374000178,452.29758660000516,452.7983374000178,452.29758660000516,452.7983374000178,452.29758660000516,452.7983374000178,452.29758660000516,452.7983374000178,452.29758660000516,452.7983374000178,452.29758660000516,452.7983374000178,452.29758660000516,452.7983374000178,451.4967388000223,None,452.7983374000178,454.4335090999957,0.8200000000000005,454.4503104999894,None,455.2017493000021,None,,,,,,,[1.62692308],3.0400000000000023,0.7384615384615385,11042,001,2024_Mar_15_1548,MFTM_A_new1021,2021.2.3,59.81551698438745,
,,,,,,,,stim/Instruction_adaptive.png,conditions/adaptive.xlsx,test,-0.6,-0.6,-0.6,0.6,0.6,left,L,,,,,0,1,1,1,0,65,65,21,,,,,,,,,,,,,,,,,,,,,,,,,,,,,,,,,,,,,,,,,,,,455.7029184999992,None,left,1,1.6245194000075571,456.20359779999126,457.50483469996834,456.20359779999126,457.00418549997266,456.20359779999126,457.00418549997266,456.20359779999126,457.00418549997266,456.20359779999126,457.00418549997266,456.20359779999126,457.00418549997266,456.98741699999664,457.4883446000167,456.98741699999664,457.4883446000167,456.98741699999664,457.4883446000167,456.98741699999664,457.4883446000167,456.98741699999664,457.4883446000167,456.98741699999664,457.4883446000167,456.98741699999664,457.4883446000167,456.98741699999664,457.4883446000167,456.20359779999126,None,457.4883446000167,459.12462959997356,0.8000000000000005,459.14066390000517,None,459.8922410000232,None,,,,,,,[1.6280303],3.070000000000002,0.7424242424242424,11042,001,2024_Mar_15_1548,MFTM_A_new1021,2021.2.3,59.81551698438745,
,,,,,,,,stim/Instruction_adaptive.png,conditions/adaptive.xlsx,test,-0.6,-0.6,-0.6,0.6,0.6,left,L,,,,,0,1,1,1,0,66,66,79,,,,,,,,,,,,,,,,,,,,,,,,,,,,,,,,,,,,,,,,,,,,460.3926438000053,None,left,1,1.3903786000446416,460.893609599967,462.1788140999852,460.893609599967,461.67815519997384,460.893609599967,461.67815519997384,460.893609599967,461.67815519997384,460.893609599967,461.67815519997384,460.893609599967,461.67815519997384,461.661292499979,462.1627621999942,461.661292499979,462.1627621999942,461.661292499979,462.1627621999942,461.661292499979,462.1627621999942,461.661292499979,462.1627621999942,461.661292499979,462.1627621999942,461.661292499979,462.1627621999942,461.661292499979,462.1627621999942,460.893609599967,None,462.1627621999942,463.7981609000126,0.7800000000000005,463.81454200000735,None,464.5663966999855,None,,,,,,,[1.62940299],3.1000000000000023,0.746268656716418,11042,001,2024_Mar_15_1548,MFTM_A_new1021,2021.2.3,59.81551698438745,
,,,,,,,,stim/Instruction_adaptive.png,conditions/adaptive.xlsx,test,0.6,0.6,0.6,-0.6,-0.6,right,R,,,,,0,1,1,1,0,67,67,72,,,,,,,,,,,,,,,,,,,,,,,,,,,,,,,,,,,,,,,,,,,,465.06635490001645,None,left,0,1.8863567000371404,465.56729249999626,466.85267079999903,465.56729249999626,466.3524405999924,465.56729249999626,466.3524405999924,465.56729249999626,466.3524405999924,465.56729249999626,466.3524405999924,465.56729249999626,466.3524405999924,466.3182850999874,466.8195160999894,466.3182850999874,466.8195160999894,466.3182850999874,466.8195160999894,466.3182850999874,466.8195160999894,466.3182850999874,466.8195160999894,466.3182850999874,466.8195160999894,466.3182850999874,466.8195160999894,466.3182850999874,466.8195160999894,465.56729249999626,None,466.8195160999894,468.4549574999837,0.7700000000000005,468.47151000000304,None,469.2226273000124,None,,,,,,,[1.63088235],3.0100000000000025,0.7352941176470589,11042,001,2024_Mar_15_1548,MFTM_A_new1021,2021.2.3,59.81551698438745,
,,,,,,,,stim/Instruction_adaptive.png,conditions/adaptive.xlsx,test,0.6,0.6,0.6,-0.6,-0.6,right,R,,,,,0,1,1,1,0,68,68,48,,,,,,,,,,,,,,,,,,,,,,,,,,,,,,,,,,,,,,,,,,,,469.72339190001367,None,right,1,1.6922013000003062,470.2240297999815,471.5595378999715,470.2240297999815,471.0592894000001,470.2240297999815,471.0592894000001,470.2240297999815,471.0592894000001,470.2240297999815,471.0592894000001,470.2240297999815,471.0592894000001,471.02585620002355,471.5260868999758,471.02585620002355,471.5260868999758,471.02585620002355,471.5260868999758,471.02585620002355,471.5260868999758,471.02585620002355,471.5260868999758,471.02585620002355,471.5260868999758,471.02585620002355,471.5260868999758,471.02585620002355,471.5260868999758,470.2240297999815,None,471.5260868999758,473.16194700001506,0.8200000000000005,473.1784784999909,None,473.92998519999674,None,,,,,,,[1.6315942],3.0400000000000023,0.7391304347826086,11042,001,2024_Mar_15_1548,MFTM_A_new1021,2021.2.3,59.81551698438745,
,,,,,,,,stim/Instruction_adaptive.png,conditions/adaptive.xlsx,test,-0.6,-0.6,-0.6,0.6,0.6,left,L,,,,,0,1,1,1,0,69,69,3,,,,,,,,,,,,,,,,,,,,,,,,,,,,,,,,,,,,,,,,,,,,474.43042089999653,None,left,1,1.7927352000260726,474.93143270001747,476.2333049000008,474.93143270001747,475.7322881,474.93143270001747,475.7322881,474.93143270001747,475.7322881,474.93143270001747,475.7322881,474.93143270001747,475.7322881,475.71568219998153,476.21672720002243,475.71568219998153,476.21672720002243,475.71568219998153,476.21672720002243,475.71568219998153,476.21672720002243,475.71568219998153,476.21672720002243,475.71568219998153,476.21672720002243,475.71568219998153,476.21672720002243,475.71568219998153,476.21672720002243,474.93143270001747,None,476.21672720002243,477.85240299999714,0.8000000000000005,477.8689862000174,None,478.6207587000099,None,,,,,,,[1.63257143],3.070000000000002,0.7428571428571429,11042,001,2024_Mar_15_1548,MFTM_A_new1021,2021.2.3,59.81551698438745,
,,,,,,,,stim/Instruction_adaptive.png,conditions/adaptive.xlsx,test,0.6,0.6,0.6,-0.6,-0.6,right,R,,,,,0,1,1,1,0,70,70,60,,,,,,,,,,,,,,,,,,,,,,,,,,,,,,,,,,,,,,,,,,,,479.1212593999808,None,right,1,1.6627810000209138,479.6217771000229,480.9068375999923,479.6217771000229,480.4062213000143,479.6217771000229,480.4062213000143,479.6217771000229,480.4062213000143,479.6217771000229,480.4062213000143,479.6217771000229,480.4062213000143,480.38981770002283,480.8903496999992,480.38981770002283,480.8903496999992,480.38981770002283,480.8903496999992,480.38981770002283,480.8903496999992,480.38981770002283,480.8903496999992,480.38981770002283,480.8903496999992,480.38981770002283,480.8903496999992,480.38981770002283,480.8903496999992,479.6217771000229,None,480.8903496999992,482.5261068000109,0.7800000000000005,482.5427578999661,None,483.2939052999718,None,,,,,,,[1.63380282],3.1000000000000023,0.7464788732394366,11042,001,2024_Mar_15_1548,MFTM_A_new1021,2021.2.3,59.81551698438745,
,,,,,,,,stim/Instruction_adaptive.png,conditions/adaptive.xlsx,test,0.6,0.6,0.6,-0.6,-0.6,right,R,,,,,0,1,1,1,0,71,71,24,,,,,,,,,,,,,,,,,,,,,,,,,,,,,,,,,,,,,,,,,,,,483.7946059000096,None,left,0,2.085397600021679,484.2953028000193,485.58061230002204,484.2953028000193,485.07993180002086,484.2953028000193,485.07993180002086,484.2953028000193,485.07993180002086,484.2953028000193,485.07993180002086,484.2953028000193,485.07993180002086,485.046477099997,485.5473219999694,485.046477099997,485.5473219999694,485.046477099997,485.5473219999694,485.046477099997,485.5473219999694,485.046477099997,485.5473219999694,485.046477099997,485.5473219999694,485.046477099997,485.5473219999694,485.046477099997,485.5473219999694,484.2953028000193,None,485.5473219999694,487.1833813000121,0.7700000000000005,487.20011510001495,None,487.9510766000021,None,,,,,,,[1.63513889],3.0200000000000022,0.7361111111111112,11042,001,2024_Mar_15_1548,MFTM_A_new1021,2021.2.3,59.81551698438745,
,,,,,,,,stim/Instruction_adaptive.png,conditions/adaptive.xlsx,test,0.6,0.6,0.6,-0.6,-0.6,right,R,,,,,0,1,1,1,0,72,72,54,,,,,,,,,,,,,,,,,,,,,,,,,,,,,,,,,,,,,,,,,,,,488.4521614999976,None,right,1,2.4043288999819197,488.9527827000129,490.271084100008,488.9527827000129,489.7703113000025,488.9527827000129,489.7703113000025,488.9527827000129,489.7703113000025,488.9527827000129,489.7703113000025,488.9527827000129,489.7703113000025,489.7368167999666,490.237690799986,489.7368167999666,490.237690799986,489.7368167999666,490.237690799986,489.7368167999666,490.237690799986,489.7368167999666,490.237690799986,489.7368167999666,490.237690799986,489.7368167999666,490.237690799986,489.7368167999666,490.237690799986,488.9527827000129,None,490.237690799986,491.8735057999729,0.8100000000000005,491.906912299979,None,492.65822779998416,None,,,,,,,[1.63589041],3.0400000000000023,0.7397260273972602,11042,001,2024_Mar_15_1548,MFTM_A_new1021,2021.2.3,59.81551698438745,
,,,,,,,,stim/Instruction_adaptive.png,conditions/adaptive.xlsx,test,0.6,0.6,0.6,-0.6,-0.6,right,R,,,,,0,1,1,1,0,73,73,96,,,,,,,,,,,,,,,,,,,,,,,,,,,,,,,,,,,,,,,,,,,,493.15922859997954,None,right,1,2.545692900021095,493.6592776000034,494.961316299974,493.6592776000034,494.4609592999914,493.6592776000034,494.4609592999914,493.6592776000034,494.4609592999914,493.6592776000034,494.4609592999914,493.6592776000034,494.4609592999914,494.44421300000977,494.9449354999815,494.44421300000977,494.9449354999815,494.44421300000977,494.9449354999815,494.44421300000977,494.9449354999815,494.44421300000977,494.9449354999815,494.44421300000977,494.9449354999815,494.44421300000977,494.9449354999815,494.44421300000977,494.9449354999815,493.6592776000034,None,494.9449354999815,496.5811092000222,0.8000000000000005,496.5978013999993,None,497.3482342999778,None,,,,,,,[1.63675676],3.070000000000002,0.7432432432432432,11042,001,2024_Mar_15_1548,MFTM_A_new1021,2021.2.3,59.81551698438745,
,,,,,,,,stim/Instruction_adaptive.png,conditions/adaptive.xlsx,test,0.6,0.6,0.6,-0.6,-0.6,right,R,,,,,0,1,1,1,0,74,74,80,,,,,,,,,,,,,,,,,,,,,,,,,,,,,,,,,,,,,,,,,,,,497.84982240002137,None,right,1,1.8147685000440106,498.3502554000006,499.63511759997346,498.3502554000006,499.1344232999836,498.3502554000006,499.1344232999836,498.3502554000006,499.1344232999836,498.3502554000006,499.1344232999836,498.3502554000006,499.1344232999836,499.1183587000123,499.6187424999662,499.1183587000123,499.6187424999662,499.1183587000123,499.6187424999662,499.1183587000123,499.6187424999662,499.1183587000123,499.6187424999662,499.1183587000123,499.6187424999662,499.1183587000123,499.6187424999662,499.1183587000123,499.6187424999662,498.3502554000006,None,499.6187424999662,None,0.7800000000000005,501.2708812999772,None,502.02209510002285,None,,,,,,,[1.63786667],3.1000000000000023,0.7466666666666667,11042,001,2024_Mar_15_1548,MFTM_A_new1021,2021.2.3,59.81551698438745,
,,,,,,,,stim/Instruction_adaptive.png,conditions/adaptive.xlsx,test,0.6,0.6,0.6,-0.6,-0.6,right,R,,,,,0,1,1,1,0,75,75,4,,,,,,,,,,,,,,,,,,,,,,,,,,,,,,,,,,,,,,,,,,,,502.52270959998714,None,right,1,1.5894655999727547,503.0233906999929,504.30947639996884,503.0233906999929,503.80823009996675,503.0233906999929,503.80823009996675,503.0233906999929,503.80823009996675,503.0233906999929,503.80823009996675,503.0233906999929,503.80823009996675,503.7747871999745,504.2755830999813,503.7747871999745,504.2755830999813,503.7747871999745,504.2755830999813,503.7747871999745,504.2755830999813,503.7747871999745,504.2755830999813,503.7747871999745,504.2755830999813,503.7747871999745,504.2755830999813,503.7747871999745,504.2755830999813,503.0233906999929,None,504.2755830999813,505.9280616000178,0.7700000000000005,505.9448532999959,None,506.6958255000063,None,,,,,,,[1.63907895],3.1300000000000026,0.75,11042,001,2024_Mar_15_1548,MFTM_A_new1021,2021.2.3,59.81551698438745,
,,,,,,,,stim/Instruction_adaptive.png,conditions/adaptive.xlsx,test,-0.6,-0.6,-0.6,0.6,0.6,left,L,,,,,0,1,1,1,0,76,76,47,,,,,,,,,,,,,,,,,,,,,,,,,,,,,,,,,,,,,,,,,,,,507.1967149999691,None,left,1,1.4039776000427082,507.6973252000171,508.94946229999186,507.6973252000171,508.4485548000084,507.6973252000171,508.4485548000084,507.6973252000171,508.4485548000084,507.6973252000171,508.4485548000084,507.6973252000171,508.4485548000084,508.4317672000034,508.9327644999721,508.4317672000034,508.9327644999721,508.4317672000034,508.9327644999721,508.4317672000034,508.9327644999721,508.4317672000034,508.9327644999721,508.4317672000034,508.9327644999721,508.4317672000034,508.9327644999721,508.4317672000034,508.9327644999721,507.6973252000171,None,508.9327644999721,510.5861230000155,0.7500000000000004,510.6017430999782,None,511.3531614000094,None,,,,,,,[1.64051948],3.150000000000002,0.7532467532467533,11042,001,2024_Mar_15_1548,MFTM_A_new1021,2021.2.3,59.81551698438745,
,,,,,,,,stim/Instruction_adaptive.png,conditions/adaptive.xlsx,test,-0.6,-0.6,-0.6,0.6,0.6,left,L,,,,,0,1,1,1,0,77,77,43,,,,,,,,,,,,,,,,,,,,,,,,,,,,,,,,,,,,,,,,,,,,511.85423629998695,None,right,0,1.3788694000104442,512.3542127999826,513.6070315999677,512.3542127999826,513.1055034999736,512.3542127999826,513.1055034999736,512.3542127999826,513.1055034999736,512.3542127999826,513.1055034999736,512.3542127999826,513.1055034999736,513.0721516999765,513.5728634999832,513.0721516999765,513.5728634999832,513.0721516999765,513.5728634999832,513.0721516999765,513.5728634999832,513.0721516999765,513.5728634999832,513.0721516999765,513.5728634999832,513.0721516999765,513.5728634999832,513.0721516999765,513.5728634999832,512.3542127999826,None,513.5728634999832,515.2254501999705,0.7400000000000004,515.2421431000112,None,515.9932262999937,None,,,,,,,[1.64205128],3.0800000000000023,0.7435897435897436,11042,001,2024_Mar_15_1548,MFTM_A_new1021,2021.2.3,59.81551698438745,
,,,,,,,,stim/Instruction_adaptive.png,conditions/adaptive.xlsx,test,-0.6,-0.6,-0.6,0.6,0.6,left,L,,,,,0,1,1,1,0,78,78,87,,,,,,,,,,,,,,,,,,,,,,,,,,,,,,,,,,,,,,,,,,,,516.4942799999844,None,left,1,1.6990916000213474,516.9945145000238,518.2799748000107,516.9945145000238,517.7791089999955,516.9945145000238,517.7791089999955,516.9945145000238,517.7791089999955,516.9945145000238,517.7791089999955,516.9945145000238,517.7791089999955,517.7626892999979,518.2630998999812,517.7626892999979,518.2630998999812,517.7626892999979,518.2630998999812,517.7626892999979,518.2630998999812,517.7626892999979,518.2630998999812,517.7626892999979,518.2630998999812,517.7626892999979,518.2630998999812,517.7626892999979,518.2630998999812,516.9945145000238,None,518.2630998999812,519.9159444000106,0.7800000000000005,519.9323398999986,None,520.683794600016,None,,,,,,,[1.64303797],3.1000000000000023,0.7468354430379747,11042,001,2024_Mar_15_1548,MFTM_A_new1021,2021.2.3,59.81551698438745,
,,,,,,,,stim/Instruction_adaptive.png,conditions/adaptive.xlsx,test,-0.6,-0.6,-0.6,0.6,0.6,left,L,,,,,0,1,1,1,0,79,79,73,,,,,,,,,,,,,,,,,,,,,,,,,,,,,,,,,,,,,,,,,,,,521.1841776000219,None,right,0,1.480534299975261,521.685040100012,522.9703859000001,521.685040100012,522.469516400015,521.685040100012,522.469516400015,521.685040100012,522.469516400015,521.685040100012,522.469516400015,521.685040100012,522.469516400015,522.4363351999782,522.9370065999683,522.4363351999782,522.9370065999683,522.4363351999782,522.9370065999683,522.4363351999782,522.9370065999683,522.4363351999782,522.9370065999683,522.4363351999782,522.9370065999683,522.4363351999782,522.9370065999683,522.4363351999782,522.9370065999683,521.685040100012,None,522.9370065999683,524.5893959999667,0.7700000000000005,524.6061611999758,None,525.3574059999664,None,,,,,,,[1.644125],3.030000000000002,0.7375,11042,001,2024_Mar_15_1548,MFTM_A_new1021,2021.2.3,59.81551698438745,
,,,,,,,,stim/Instruction_adaptive.png,conditions/adaptive.xlsx,test,0.6,0.6,0.6,-0.6,-0.6,right,R,,,,,0,1,1,1,0,80,80,94,,,,,,,,,,,,,,,,,,,,,,,,,,,,,,,,,,,,,,,,,,,,525.8579579999787,None,right,1,1.4388713999651372,526.3586552999914,527.6774204999674,526.3586552999914,527.1766766000073,526.3586552999914,527.1766766000073,526.3586552999914,527.1766766000073,526.3586552999914,527.1766766000073,526.3586552999914,527.1766766000073,527.143565699982,527.6445267999661,527.143565699982,527.6445267999661,527.143565699982,527.6445267999661,527.143565699982,527.6445267999661,527.143565699982,527.6445267999661,527.143565699982,527.6445267999661,527.143565699982,527.6445267999661,527.143565699982,527.6445267999661,526.3586552999914,None,527.6445267999661,529.2965872000204,0.8100000000000005,529.3132580000092,None,530.064345300023,None,,,,,,,[1.64469136],3.0500000000000025,0.7407407407407407,11042,001,2024_Mar_15_1548,MFTM_A_new1021,2021.2.3,59.81551698438745,
,,,,,,,,stim/Instruction_adaptive.png,conditions/adaptive.xlsx,test,0.6,0.6,0.6,-0.6,-0.6,right,R,,,,,0,1,1,1,0,81,81,28,,,,,,,,,,,,,,,,,,,,,,,,,,,,,,,,,,,,,,,,,,,,530.5653052999987,None,left,0,1.747727899986785,531.0662369999918,532.3682277000044,531.0662369999918,531.8671366000199,531.0662369999918,531.8671366000199,531.0662369999918,531.8671366000199,531.0662369999918,531.8671366000199,531.0662369999918,531.8671366000199,531.8336730999872,532.3345725999679,531.8336730999872,532.3345725999679,531.8336730999872,532.3345725999679,531.8336730999872,532.3345725999679,531.8336730999872,532.3345725999679,531.8336730999872,532.3345725999679,531.8336730999872,532.3345725999679,531.8336730999872,532.3345725999679,531.0662369999918,None,532.3345725999679,533.9870099999825,0.7900000000000005,534.0036710000131,None,534.755184300011,None,,,,,,,[1.6454878],2.980000000000002,0.7317073170731707,11042,001,2024_Mar_15_1548,MFTM_A_new1021,2021.2.3,59.81551698438745,
,,,,,,,,stim/Instruction_adaptive.png,conditions/adaptive.xlsx,test,0.6,0.6,0.6,-0.6,-0.6,right,R,,,,,0,1,1,1,0,82,82,76,,,,,,,,,,,,,,,,,,,,,,,,,,,,,,,,,,,,,,,,,,,,535.2555931999814,None,right,1,1.161594100005459,535.7564910000074,537.091642400017,535.7564910000074,536.5910607000114,535.7564910000074,536.5910607000114,535.7564910000074,536.5910607000114,535.7564910000074,536.5910607000114,535.7564910000074,536.5910607000114,536.5740978000103,537.0756256000022,536.5740978000103,537.0756256000022,536.5740978000103,537.0756256000022,536.5740978000103,537.0756256000022,536.5740978000103,537.0756256000022,536.5740978000103,537.0756256000022,536.5740978000103,537.0756256000022,536.5740978000103,537.0756256000022,535.7564910000074,None,537.0756256000022,538.7279349999735,0.8300000000000005,538.7443543999689,None,539.4956654999987,None,,,,,,,[1.64578313],3.000000000000002,0.7349397590361446,11042,001,2024_Mar_15_1548,MFTM_A_new1021,2021.2.3,59.81551698438745,
,,,,,,,,stim/Instruction_adaptive.png,conditions/adaptive.xlsx,test,-0.6,-0.6,-0.6,0.6,0.6,left,L,,,,,0,1,1,1,0,83,83,25,,,,,,,,,,,,,,,,,,,,,,,,,,,,,,,,,,,,,,,,,,,,539.9960767999873,None,right,0,1.460962400014978,540.4970868999953,541.832015699998,540.4970868999953,541.331388999999,540.4970868999953,541.331388999999,540.4970868999953,541.331388999999,540.4970868999953,541.331388999999,540.4970868999953,541.331388999999,541.2983220000169,541.7986506000161,541.2983220000169,541.7986506000161,541.2983220000169,541.7986506000161,541.2983220000169,541.7986506000161,541.2983220000169,541.7986506000161,541.2983220000169,541.7986506000161,541.2983220000169,541.7986506000161,541.2983220000169,541.7986506000161,540.4970868999953,None,541.7986506000161,543.4515309999697,0.8200000000000005,543.4679638000089,None,544.2190042000148,None,,,,,,,[1.64619048],2.9300000000000024,0.7261904761904762,11042,001,2024_Mar_15_1548,MFTM_A_new1021,2021.2.3,59.81551698438745,
,,,,,,,,stim/Instruction_adaptive.png,conditions/adaptive.xlsx,test,-0.6,-0.6,-0.6,0.6,0.6,left,L,,,,,0,1,1,1,0,84,84,61,,,,,,,,,,,,,,,,,,,,,,,,,,,,,,,,,,,,,,,,,,,,544.7203713000054,None,left,1,1.386052300047595,545.220765599981,546.5897256999742,545.220765599981,546.0886436000001,545.220765599981,546.0886436000001,545.220765599981,546.0886436000001,545.220765599981,546.0886436000001,545.220765599981,546.0886436000001,546.0555011999677,546.5563026000164,546.0555011999677,546.5563026000164,546.0555011999677,546.5563026000164,546.0555011999677,546.5563026000164,546.0555011999677,546.5563026000164,546.0555011999677,546.5563026000164,546.0555011999677,546.5563026000164,546.0555011999677,546.5563026000164,545.220765599981,None,546.5563026000164,548.2082777000032,0.8600000000000005,548.2250407999963,None,548.9762054000166,None,,,,,,,[[1.64]],2.950000000000002,0.7294117647058823,11042,001,2024_Mar_15_1548,MFTM_A_new1021,2021.2.3,59.81551698438745,
,,,,,,,,stim/Instruction_adaptive.png,conditions/adaptive.xlsx,test,0.6,0.6,0.6,-0.6,-0.6,right,R,,,,,0,1,1,1,0,85,85,66,,,,,,,,,,,,,,,,,,,,,,,,,,,,,,,,,,,,,,,,,,,,549.4769335999736,None,right,1,1.372317400004249,549.9779031000216,551.3303349000053,549.9779031000216,550.8296057999833,549.9779031000216,550.8296057999833,549.9779031000216,550.8296057999833,549.9779031000216,550.8296057999833,549.9779031000216,550.8296057999833,550.81231020001,551.3131649999996,550.81231020001,551.3131649999996,550.81231020001,551.3131649999996,550.81231020001,551.3131649999996,550.81231020001,551.3131649999996,550.81231020001,551.3131649999996,550.81231020001,551.3131649999996,550.81231020001,551.3131649999996,549.9779031000216,None,551.3131649999996,552.965382000024,0.8500000000000005,552.9826053999714,None,553.7336289000232,None,,,,,,,[1.64616279],2.980000000000002,0.7325581395348837,11042,001,2024_Mar_15_1548,MFTM_A_new1021,2021.2.3,59.81551698438745,
,,,,,,,,stim/Instruction_adaptive.png,conditions/adaptive.xlsx,test,0.6,0.6,0.6,-0.6,-0.6,right,R,,,,,0,1,1,1,0,86,86,16,,,,,,,,,,,,,,,,,,,,,,,,,,,,,,,,,,,,,,,,,,,,554.2342745999922,None,right,1,1.7832652000361122,554.7349732000148,556.0708268000162,554.7349732000148,555.5693985999678,554.7349732000148,555.5693985999678,554.7349732000148,555.5693985999678,554.7349732000148,555.5693985999678,554.7349732000148,555.5693985999678,555.5530509999953,556.0538380999933,555.5530509999953,556.0538380999933,555.5530509999953,556.0538380999933,555.5530509999953,556.0538380999933,555.5530509999953,556.0538380999933,555.5530509999953,556.0538380999933,555.5530509999953,556.0538380999933,555.5530509999953,556.0538380999933,554.7349732000148,None,556.0538380999933,557.7059935000143,0.8300000000000005,557.7226834999747,None,558.4741843999946,None,,,,,,,[1.64643678],3.000000000000002,0.735632183908046,11042,001,2024_Mar_15_1548,MFTM_A_new1021,2021.2.3,59.81551698438745,
,,,,,,,,stim/Instruction_adaptive.png,conditions/adaptive.xlsx,test,-0.6,-0.6,-0.6,0.6,0.6,left,L,,,,,0,1,1,1,0,87,87,65,,,,,,,,,,,,,,,,,,,,,,,,,,,,,,,,,,,,,,,,,,,,558.9744190999772,None,left,1,1.610987699998077,559.4753490000148,560.8106322999811,559.4753490000148,560.3099151999922,559.4753490000148,560.3099151999922,559.4753490000148,560.3099151999922,559.4753490000148,560.3099151999922,559.4753490000148,560.3099151999922,560.2765046000131,560.7773572999868,560.2765046000131,560.7773572999868,560.2765046000131,560.7773572999868,560.2765046000131,560.7773572999868,560.2765046000131,560.7773572999868,560.2765046000131,560.7773572999868,560.2765046000131,560.7773572999868,560.2765046000131,560.7773572999868,559.4753490000148,None,560.7773572999868,562.4305158000207,0.8200000000000005,562.4465990000172,None,563.1984304999933,None,,,,,,,[1.64681818],3.030000000000002,0.7386363636363636,11042,001,2024_Mar_15_1548,MFTM_A_new1021,2021.2.3,59.81551698438745,
,,,,,,,,stim/Instruction_adaptive.png,conditions/adaptive.xlsx,test,-0.6,-0.6,-0.6,0.6,0.6,left,L,,,,,0,1,1,1,0,88,88,31,,,,,,,,,,,,,,,,,,,,,,,,,,,,,,,,,,,,,,,,,,,,563.6985785000143,None,left,1,1.470645199995488,564.1997753999894,565.51829919999,564.1997753999894,565.0167595999665,564.1997753999894,565.0167595999665,564.1997753999894,565.0167595999665,564.1997753999894,565.0167595999665,564.1997753999894,565.0167595999665,565.0004928999697,565.5011974999798,565.0004928999697,565.5011974999798,565.0004928999697,565.5011974999798,565.0004928999697,565.5011974999798,565.0004928999697,565.5011974999798,565.0004928999697,565.5011974999798,565.0004928999697,565.5011974999798,565.0004928999697,565.5011974999798,564.1997753999894,None,565.5011974999798,567.1540721000056,0.8100000000000005,567.1704108999693,None,567.9214798000176,None,,,,,,,[1.64730337],3.0500000000000025,0.7415730337078652,11042,001,2024_Mar_15_1548,MFTM_A_new1021,2021.2.3,59.81551698438745,
,,,,,,,,stim/Instruction_adaptive.png,conditions/adaptive.xlsx,test,0.6,0.6,0.6,-0.6,-0.6,right,R,,,,,0,1,1,1,0,89,89,64,,,,,,,,,,,,,,,,,,,,,,,,,,,,,,,,,,,,,,,,,,,,568.4225654000184,None,right,1,1.9958860000479035,568.9230332999723,570.2249378999695,568.9230332999723,569.7241845999961,568.9230332999723,569.7241845999961,568.9230332999723,569.7241845999961,568.9230332999723,569.7241845999961,568.9230332999723,569.7241845999961,569.6908020999981,570.1918440000154,569.6908020999981,570.1918440000154,569.6908020999981,570.1918440000154,569.6908020999981,570.1918440000154,569.6908020999981,570.1918440000154,569.6908020999981,570.1918440000154,569.6908020999981,570.1918440000154,569.6908020999981,570.1918440000154,568.9230332999723,None,570.1918440000154,571.8442227999913,0.7900000000000005,571.8613489000127,None,572.6117701000185,None,,,,,,,[1.648],3.070000000000002,0.7444444444444445,11042,001,2024_Mar_15_1548,MFTM_A_new1021,2021.2.3,59.81551698438745,
,,,,,,,,stim/Instruction_adaptive.png,conditions/adaptive.xlsx,test,-0.6,-0.6,-0.6,0.6,0.6,left,L,,,,,0,1,1,1,0,90,90,33,,,,,,,,,,,,,,,,,,,,,,,,,,,,,,,,,,,,,,,,,,,,573.1123418000061,None,right,0,1.729521500004921,573.6134218000225,574.8989139000187,573.6134218000225,574.3978823000216,573.6134218000225,574.3978823000216,573.6134218000225,574.3978823000216,573.6134218000225,574.3978823000216,573.6134218000225,574.3978823000216,574.3815780999721,574.8825577999814,574.3815780999721,574.8825577999814,574.3815780999721,574.8825577999814,574.3815780999721,574.8825577999814,574.3815780999721,574.8825577999814,574.3815780999721,574.8825577999814,574.3815780999721,574.8825577999814,574.3815780999721,574.8825577999814,573.6134218000225,None,574.8825577999814,576.5345553000225,0.7800000000000005,576.551021399966,None,577.3022388999816,None,,,,,,,[1.64879121],3.0100000000000025,0.7362637362637363,11042,001,2024_Mar_15_1548,MFTM_A_new1021,2021.2.3,59.81551698438745,
,,,,,,,,stim/Instruction_adaptive.png,conditions/adaptive.xlsx,test,-0.6,-0.6,-0.6,0.6,0.6,left,L,,,,,0,1,1,1,0,91,91,17,,,,,,,,,,,,,,,,,,,,,,,,,,,,,,,,,,,,,,,,,,,,577.8030352999922,None,left,1,1.5032268000068143,578.3037325000041,579.6396617999999,578.3037325000041,579.1386536000064,578.3037325000041,579.1386536000064,578.3037325000041,579.1386536000064,578.3037325000041,579.1386536000064,578.3037325000041,579.1386536000064,579.1054975999868,579.6059638999868,579.1054975999868,579.6059638999868,579.1054975999868,579.6059638999868,579.1054975999868,579.6059638999868,579.1054975999868,579.6059638999868,579.1054975999868,579.6059638999868,579.1054975999868,579.6059638999868,579.1054975999868,579.6059638999868,578.3037325000041,None,579.6059638999868,581.258639800013,0.8200000000000005,581.2749126999988,None,582.0259829999995,None,,,,,,,[1.64913043],3.030000000000002,0.7391304347826086,11042,001,2024_Mar_15_1548,MFTM_A_new1021,2021.2.3,59.81551698438745,
,,,,,,,,stim/Instruction_adaptive.png,conditions/adaptive.xlsx,test,-0.6,-0.6,-0.6,0.6,0.6,left,L,,,,,0,1,1,1,0,92,92,67,,,,,,,,,,,,,,,,,,,,,,,,,,,,,,,,,,,,,,,,,,,,582.526621499972,None,right,0,1.875621399958618,583.0274682000163,584.3461522000143,583.0274682000163,583.8454353999696,583.0274682000163,583.8454353999696,583.0274682000163,583.8454353999696,583.0274682000163,583.8454353999696,583.0274682000163,583.8454353999696,583.8287451000069,584.3294423000189,583.8287451000069,584.3294423000189,583.8287451000069,584.3294423000189,583.8287451000069,584.3294423000189,583.8287451000069,584.3294423000189,583.8287451000069,584.3294423000189,583.8287451000069,584.3294423000189,583.8287451000069,584.3294423000189,583.0274682000163,None,584.3294423000189,585.9819995000144,0.8100000000000005,585.9989037999767,None,586.7497967000236,None,,,,,,,[1.64956989],2.960000000000002,0.7311827956989247,11042,001,2024_Mar_15_1548,MFTM_A_new1021,2021.2.3,59.81551698438745,
,,,,,,,,stim/Instruction_adaptive.png,conditions/adaptive.xlsx,test,0.6,0.6,0.6,-0.6,-0.6,right,R,,,,,0,1,1,1,0,93,93,20,,,,,,,,,,,,,,,,,,,,,,,,,,,,,,,,,,,,,,,,,,,,587.2510720000137,None,right,1,1.8080804999917746,587.7514000000083,589.1032298000064,587.7514000000083,588.602984600002,587.7514000000083,588.602984600002,587.7514000000083,588.602984600002,587.7514000000083,588.602984600002,587.7514000000083,588.602984600002,588.5861288000015,589.086635500018,588.5861288000015,589.086635500018,588.5861288000015,589.086635500018,588.5861288000015,589.086635500018,588.5861288000015,589.086635500018,588.5861288000015,589.086635500018,588.5861288000015,589.086635500018,588.5861288000015,589.086635500018,587.7514000000083,None,589.086635500018,590.739606600022,0.8500000000000005,590.7558004999883,None,591.5068316999823,None,,,,,,,[1.64957447],2.980000000000002,0.7340425531914894,11042,001,2024_Mar_15_1548,MFTM_A_new1021,2021.2.3,59.81551698438745,
