arrwidth1,arrwidth2,arrwidth3,arrwidth4,arrwidth5,keyb,type,orientation,instruction_image,block_filename,block_type,arrow11,arrow22,arrow33,arrow44,arrow55,keyb_3,orientation3,trials.thisRepN,trials.thisTrialN,trials.thisN,trials.thisIndex,trials_3.thisRepN,trials_3.thisTrialN,trials_3.thisN,trials_3.thisIndex,trials_2.thisRepN,trials_2.thisTrialN,trials_2.thisN,trials_2.thisIndex,welcome.started,welcome.stopped,key_resp.keys,key_resp.rt,key_resp.started,key_resp.stopped,instruction_example.started,instruction_example.stopped,key_resp_3.keys,key_resp_3.rt,key_resp_3.started,key_resp_3.stopped,instruction_task.started,instruction_task.stopped,key_resp_2.keys,key_resp_2.rt,key_resp_2.started,key_resp_2.stopped,text_2.started,text_2.stopped,A1.started,A1.stopped,A2.started,A2.stopped,A3.started,A3.stopped,A4.started,A4.stopped,A5.started,A5.stopped,key_resp_4.keys,key_resp_4.corr,key_resp_4.rt,key_resp_4.started,key_resp_4.stopped,fb.started,fb.stopped,instruction_block.started,instruction_block.stopped,key_resp_8.keys,key_resp_8.rt,key_resp_8.started,key_resp_8.stopped,text_8.started,text_8.stopped,key_resp_9.keys,key_resp_9.corr,key_resp_9.rt,text_5.started,text_5.stopped,A11_3.started,A11_3.stopped,A22_2.started,A22_2.stopped,A33_2.started,A33_2.stopped,A44_2.started,A44_2.stopped,A55_2.started,A55_2.stopped,M1_3.started,M1_3.stopped,M2_2.started,M2_2.stopped,M3_2.started,M3_2.stopped,M4_2.started,M4_2.stopped,M5_2.started,M5_2.stopped,M6_2.started,M6_2.stopped,M7_2.started,M7_2.stopped,M8_2.started,M8_2.stopped,key_resp_9.started,key_resp_9.stopped,fixation.started,fixation.stopped,ET,fb_3.started,fb_3.stopped,text_9.started,text_9.stopped,fb_4.started,fb_4.stopped,text_7.started,text_7.stopped,endtext.started,endtext.stopped,fixation_ITI,CCC,Acc,participant,session,date,expName,psychopyVersion,frameRate,
,,,,,,,,,,,,,,,,,,,,,,,,,,,,,,10.765099300071597,None,right,1.4903316999552771,10.765099300071597,None,,,,,,,,,,,,,,,,,,,,,,,,,,,,,,,,,,,,,,,,,,,,,,,,,,,,,,,,,,,,,,,,,,,,,,,,,,,,,,,,,,,,,,,,,12005,001,2024_Jun_13_1559,MFTM_A_new1021,2021.2.3,59.75736122728947,
,,,,,,,,,,,,,,,,,,,,,,,,,,,,,,,,,,,,12.283895800006576,None,right,5.227550899959169,12.283895800006576,None,,,,,,,,,,,,,,,,,,,,,,,,,,,,,,,,,,,,,,,,,,,,,,,,,,,,,,,,,,,,,,,,,,,,,,,,,,,,,,,,,,,12005,001,2024_Jun_13_1559,MFTM_A_new1021,2021.2.3,59.75736122728947,
,,,,,,,,,,,,,,,,,,,,,,,,,,,,,,,,,,,,,,,,,,17.541791700059548,None,space,5.985707500018179,17.541791700059548,None,,,,,,,,,,,,,,,,,,,,,,,,,,,,,,,,,,,,,,,,,,,,,,,,,,,,,,,,,,,,,,,,,,,,,,,,,,,,,12005,001,2024_Jun_13_1559,MFTM_A_new1021,2021.2.3,59.75736122728947,
-0.6,-0.6,-0.6,0.6,0.6,left,3:2,L,,,,,,,,,,,0,0,0,1,,,,,,,,,,,,,,,,,,,,,,,,,,,23.56765370001085,None,23.56765370001085,None,23.56765370001085,None,23.56765370001085,None,23.56765370001085,None,23.56765370001085,None,left,1,3.008264600066468,23.56765370001085,None,26.622964499983937,None,,,,,,,,,,,,,,,,,,,,,,,,,,,,,,,,,,,,,,,,,,,,,,,,,,,,,,,,,,12005,001,2024_Jun_13_1559,MFTM_A_new1021,2021.2.3,59.75736122728947,
0.6,0.6,0.6,-0.6,-0.6,right,3:2,R,,,,,,,,,,,0,1,1,0,,,,,,,,,,,,,,,,,,,,,,,,,,,27.373809700016864,None,27.373809700016864,None,27.373809700016864,None,27.373809700016864,None,27.373809700016864,None,27.373809700016864,None,right,1,2.593852899968624,27.373809700016864,None,29.993868899997324,None,,,,,,,,,,,,,,,,,,,,,,,,,,,,,,,,,,,,,,,,,,,,,,,,,,,,,,,,,,12005,001,2024_Jun_13_1559,MFTM_A_new1021,2021.2.3,59.75736122728947,
-0.6,-0.6,-0.6,0.6,0.6,left,3:2,L,,,,,,,,,,,1,0,2,1,,,,,,,,,,,,,,,,,,,,,,,,,,,30.744922599988058,None,30.744922599988058,None,30.744922599988058,None,30.744922599988058,None,30.744922599988058,None,30.744922599988058,None,left,1,2.1828072000062093,30.744922599988058,None,32.94837540003937,None,,,,,,,,,,,,,,,,,,,,,,,,,,,,,,,,,,,,,,,,,,,,,,,,,,,,,,,,,,12005,001,2024_Jun_13_1559,MFTM_A_new1021,2021.2.3,59.75736122728947,
0.6,0.6,0.6,-0.6,-0.6,right,3:2,R,,,,,,,,,,,1,1,3,0,,,,,,,,,,,,,,,,,,,,,,,,,,,33.69943600008264,None,33.69943600008264,None,33.69943600008264,None,33.69943600008264,None,33.69943600008264,None,33.69943600008264,None,right,1,1.5407999999588355,33.69943600008264,None,35.269099200027995,None,,,,,,,,,,,,,,,,,,,,,,,,,,,,,,,,,,,,,,,,,,,,,,,,,,,,,,,,,,12005,001,2024_Jun_13_1559,MFTM_A_new1021,2021.2.3,59.75736122728947,
,,,,,,,,stim/Instruction_mask.png,conditions/adaptive.xlsx,practice,-0.6,-0.6,-0.6,0.6,0.6,left,L,,,,,0,0,0,0,0,0,0,83,,,,,,,,,,,,,,,,,,,,,,,,,,,,,,,,,,,,,,36.28671920008492,None,space,3.5537350999657065,36.28671920008492,None,39.942771499976516,None,right,0,1.448374000028707,40.37628650001716,None,40.37628650001716,43.38087610004004,40.37628650001716,43.38087610004004,40.37628650001716,43.38087610004004,40.37628650001716,43.38087610004004,40.37628650001716,43.38087610004004,43.36403020005673,43.86501040006988,43.36403020005673,43.86501040006988,43.36403020005673,43.86501040006988,43.36403020005673,43.86501040006988,43.36403020005673,43.86501040006988,43.36403020005673,43.86501040006988,43.36403020005673,43.86501040006988,43.36403020005673,43.86501040006988,40.37628650001716,None,43.86501040006988,43.86501040006988,3,43.88168530003168,None,44.63420530001167,None,,,,,,,,,,12005,001,2024_Jun_13_1559,MFTM_A_new1021,2021.2.3,59.75736122728947,
,,,,,,,,stim/Instruction_mask.png,conditions/adaptive.xlsx,practice,0.6,0.6,0.6,-0.6,-0.6,right,R,,,,,0,0,0,0,0,1,1,56,,,,,,,,,,,,,,,,,,,,,,,,,,,,,,,,,,,,,,,,,,,,45.13391309999861,None,right,1,0.9347045000176877,45.634279799996875,47.63726019999012,45.634279799996875,47.13686109997798,45.634279799996875,47.13686109997798,45.634279799996875,47.13686109997798,45.634279799996875,47.13686109997798,45.634279799996875,47.13686109997798,47.12048739998136,47.620438900077716,47.12048739998136,47.620438900077716,47.12048739998136,47.620438900077716,47.12048739998136,47.620438900077716,47.12048739998136,47.620438900077716,47.12048739998136,47.620438900077716,47.12048739998136,47.620438900077716,47.12048739998136,47.620438900077716,45.634279799996875,None,47.620438900077716,49.12340799998492,1.5,49.139474499970675,None,49.89069700008258,None,,,,,,,,,,12005,001,2024_Jun_13_1559,MFTM_A_new1021,2021.2.3,59.75736122728947,
,,,,,,,,stim/Instruction_mask.png,conditions/adaptive.xlsx,practice,0.6,0.6,0.6,-0.6,-0.6,right,R,,,,,0,0,0,0,0,2,2,20,,,,,,,,,,,,,,,,,,,,,,,,,,,,,,,,,,,,,,,,,,,,50.39215680002235,None,left,0,1.4121226000133902,50.89225160004571,52.194172400049865,50.89225160004571,51.69335449999198,50.89225160004571,51.69335449999198,50.89225160004571,51.69335449999198,50.89225160004571,51.69335449999198,50.89225160004571,51.69335449999198,51.67663560004439,52.177413400029764,51.67663560004439,52.177413400029764,51.67663560004439,52.177413400029764,51.67663560004439,52.177413400029764,51.67663560004439,52.177413400029764,51.67663560004439,52.177413400029764,51.67663560004439,52.177413400029764,51.67663560004439,52.177413400029764,50.89225160004571,None,52.177413400029764,54.38128259999212,0.8,54.39720190002117,None,55.1485969000496,None,,,,,,,,,,12005,001,2024_Jun_13_1559,MFTM_A_new1021,2021.2.3,59.75736122728947,
,,,,,,,,stim/Instruction_mask.png,conditions/adaptive.xlsx,practice,0.6,0.6,0.6,-0.6,-0.6,right,R,,,,,0,0,0,0,0,3,3,28,,,,,,,,,,,,,,,,,,,,,,,,,,,,,,,,,,,,,,,,,,,,55.65039760002401,None,None,0,0,56.150683899992146,56.901130500016734,56.150683899992146,56.40050450002309,56.150683899992146,56.40050450002309,56.150683899992146,56.40050450002309,56.150683899992146,56.40050450002309,56.150683899992146,56.40050450002309,56.38379710004665,56.88470970001072,56.38379710004665,56.88470970001072,56.38379710004665,56.88470970001072,56.38379710004665,56.88470970001072,56.38379710004665,56.88470970001072,56.38379710004665,56.88470970001072,56.38379710004665,56.88470970001072,56.38379710004665,56.88470970001072,56.150683899992146,None,56.88470970001072,59.638607000000775,3,59.65513109997846,None,60.40770069998689,None,,,,,,,,,,12005,001,2024_Jun_13_1559,MFTM_A_new1021,2021.2.3,59.75736122728947,
,,,,,,,,stim/Instruction_mask.png,conditions/adaptive.xlsx,practice,,,,,,,,,,,,0,0,0,0,,,,,,,,,,,,,,,,,,,,,,,,,,,,,,,,,,,,,,,,,,,,,,,,,,,,,,,,,,,,,,,,,,,,,,,,,,,,,,,,,,,,,,,,,,60.924992299987935,61.92555380007252,61.90889030008111,61.90889030008111,61.90889030008111,None,,,,12005,001,2024_Jun_13_1559,MFTM_A_new1021,2021.2.3,59.75736122728947,
,,,,,,,,stim/Instruction_adaptive.png,conditions/adaptive.xlsx,test,-0.6,-0.6,-0.6,0.6,0.6,left,L,,,,,0,1,1,1,0,0,0,17,,,,,,,,,,,,,,,,,,,,,,,,,,,,,,,,,,,,,,65.08023479999974,None,space,23.961299999966286,65.08023479999974,None,89.08237710001413,None,left,1,1.8577241000020877,89.583832000033,None,89.583832000033,92.58949030004442,89.583832000033,92.58949030004442,89.583832000033,92.58949030004442,89.583832000033,92.58949030004442,89.583832000033,92.58949030004442,92.57157430006191,93.07329780003056,92.57157430006191,93.07329780003056,92.57157430006191,93.07329780003056,92.57157430006191,93.07329780003056,92.57157430006191,93.07329780003056,92.57157430006191,93.07329780003056,92.57157430006191,93.07329780003056,92.57157430006191,93.07329780003056,89.583832000033,None,93.05572980002034,93.05572980002034,3,93.0891134000849,None,93.84071240003686,None,,,,,,,0,6.000000000000005,1.0,12005,001,2024_Jun_13_1559,MFTM_A_new1021,2021.2.3,59.75736122728947,
,,,,,,,,stim/Instruction_adaptive.png,conditions/adaptive.xlsx,test,0.6,0.6,0.6,-0.6,-0.6,right,R,,,,,0,1,1,1,0,1,1,38,,,,,,,,,,,,,,,,,,,,,,,,,,,,,,,,,,,,,,,,,,,,94.34081269998569,None,left,0,2.18414979998488,94.8417405000655,95.59367630002089,94.8417405000655,95.0929943000665,94.8417405000655,95.0929943000665,94.8417405000655,95.0929943000665,94.8417405000655,95.0929943000665,94.8417405000655,95.0929943000665,95.07554510002956,95.57609290000983,95.07554510002956,95.57609290000983,95.07554510002956,95.57609290000983,95.07554510002956,95.57609290000983,95.07554510002956,95.57609290000983,95.07554510002956,95.57609290000983,95.07554510002956,95.57609290000983,95.07554510002956,95.57609290000983,94.8417405000655,None,95.57609290000983,97.04513650003355,0.25,97.06168040004559,None,97.81297920003999,None,,,,,,,[0.875],2.570000000000002,0.5,12005,001,2024_Jun_13_1559,MFTM_A_new1021,2021.2.3,59.75736122728947,
,,,,,,,,stim/Instruction_adaptive.png,conditions/adaptive.xlsx,test,0.6,0.6,0.6,-0.6,-0.6,right,R,,,,,0,1,1,1,0,2,2,10,,,,,,,,,,,,,,,,,,,,,,,,,,,,,,,,,,,,,,,,,,,,98.31375570001546,None,right,1,0.739705599960871,98.81439559999853,100.43398249999154,98.81439559999853,99.93289320007898,98.81439559999853,99.93289320007898,98.81439559999853,99.93289320007898,98.81439559999853,99.93289320007898,98.81439559999853,99.93289320007898,99.90084130002651,100.40008320007473,99.90084130002651,100.40008320007473,99.90084130002651,100.40008320007473,99.90084130002651,100.40008320007473,99.90084130002651,100.40008320007473,99.90084130002651,100.40008320007473,99.90084130002651,100.40008320007473,99.90084130002651,100.40008320007473,98.81439559999853,None,100.40008320007473,101.45228690002114,1.1100000000000008,101.48512980004307,None,102.23761150008067,None,,,,,,,[1.04666667],3.3800000000000026,0.6666666666666666,12005,001,2024_Jun_13_1559,MFTM_A_new1021,2021.2.3,59.75736122728947,
,,,,,,,,stim/Instruction_adaptive.png,conditions/adaptive.xlsx,test,0.6,0.6,0.6,-0.6,-0.6,right,R,,,,,0,1,1,1,0,3,3,74,,,,,,,,,,,,,,,,,,,,,,,,,,,,,,,,,,,,,,,,,,,,102.73759729997255,None,right,1,1.1322442000964656,103.23773499997333,104.37273790000472,103.23773499997333,103.87240079999901,103.23773499997333,103.87240079999901,103.23773499997333,103.87240079999901,103.23773499997333,103.87240079999901,103.23773499997333,103.87240079999901,103.85589430003893,104.35620969999582,103.85589430003893,104.35620969999582,103.85589430003893,104.35620969999582,103.85589430003893,104.35620969999582,103.85589430003893,104.35620969999582,103.85589430003893,104.35620969999582,103.85589430003893,104.35620969999582,103.85589430003893,104.35620969999582,103.23773499997333,None,104.35620969999582,105.60799200006295,0.6300000000000003,105.62482340005226,None,106.37648099998478,None,,,,,,,[1.2525],3.940000000000003,0.75,12005,001,2024_Jun_13_1559,MFTM_A_new1021,2021.2.3,59.75736122728947,
,,,,,,,,stim/Instruction_adaptive.png,conditions/adaptive.xlsx,test,-0.6,-0.6,-0.6,0.6,0.6,left,L,,,,,0,1,1,1,0,4,4,89,,,,,,,,,,,,,,,,,,,,,,,,,,,,,,,,,,,,,,,,,,,,106.87645570002496,None,left,1,0.5448354000691324,107.37732329999562,108.31312140007503,107.37732329999562,107.81146029999945,107.37732329999562,107.81146029999945,107.37732329999562,107.81146029999945,107.37732329999562,107.81146029999945,107.37732329999562,107.81146029999945,107.79477510007564,108.29632490000222,107.79477510007564,108.29632490000222,107.79477510007564,108.29632490000222,107.79477510007564,108.29632490000222,107.79477510007564,108.29632490000222,107.79477510007564,108.29632490000222,107.79477510007564,108.29632490000222,107.79477510007564,108.29632490000222,107.37732329999562,None,108.29632490000222,109.71529850002844,0.43000000000000016,109.73124890006147,None,110.48222730006091,None,,,,,,,[1.416],4.370000000000004,0.8,12005,001,2024_Jun_13_1559,MFTM_A_new1021,2021.2.3,59.75736122728947,
,,,,,,,,stim/Instruction_adaptive.png,conditions/adaptive.xlsx,test,0.6,0.6,0.6,-0.6,-0.6,right,R,,,,,0,1,1,1,0,5,5,82,,,,,,,,,,,,,,,,,,,,,,,,,,,,,,,,,,,,,,,,,,,,110.98355260002427,None,right,1,0.3821341999573633,111.48375690006651,112.3193771999795,111.48375690006651,111.81750940007623,111.48375690006651,111.81750940007623,111.48375690006651,111.81750940007623,111.48375690006651,111.81750940007623,111.48375690006651,111.81750940007623,111.78411300003063,112.28570120001677,111.78411300003063,112.28570120001677,111.78411300003063,112.28570120001677,111.78411300003063,112.28570120001677,111.78411300003063,112.28570120001677,111.78411300003063,112.28570120001677,111.78411300003063,112.28570120001677,111.78411300003063,112.28570120001677,111.48375690006651,None,112.28570120001677,113.83706900000107,0.32000000000000006,113.85384900006466,None,114.60557440004777,None,,,,,,,[1.54333333],4.7100000000000035,0.8333333333333334,12005,001,2024_Jun_13_1559,MFTM_A_new1021,2021.2.3,59.75736122728947,
,,,,,,,,stim/Instruction_adaptive.png,conditions/adaptive.xlsx,test,-0.6,-0.6,-0.6,0.6,0.6,left,L,,,,,0,1,1,1,0,6,6,77,,,,,,,,,,,,,,,,,,,,,,,,,,,,,,,,,,,,,,,,,,,,115.106946600019,None,left,1,0.26745699997991323,115.60695659997873,116.35790100006852,115.60695659997873,115.85677020007279,115.60695659997873,115.85677020007279,115.60695659997873,115.85677020007279,115.60695659997873,115.85677020007279,115.60695659997873,115.85677020007279,115.84034560003784,116.34121199999936,115.84034560003784,116.34121199999936,115.84034560003784,116.34121199999936,115.84034560003784,116.34121199999936,115.84034560003784,116.34121199999936,115.84034560003784,116.34121199999936,115.84034560003784,116.34121199999936,115.84034560003784,116.34121199999936,115.60695659997873,None,116.34121199999936,117.99435459997039,0.25,118.01070159999654,None,118.76121799997054,None,,,,,,,[1.64428571],4.980000000000004,0.8571428571428571,12005,001,2024_Jun_13_1559,MFTM_A_new1021,2021.2.3,59.75736122728947,
,,,,,,,,stim/Instruction_adaptive.png,conditions/adaptive.xlsx,test,0.6,0.6,0.6,-0.6,-0.6,right,R,,,,,0,1,1,1,0,7,7,76,,,,,,,,,,,,,,,,,,,,,,,,,,,,,,,,,,,,,,,,,,,,119.26211400004104,None,right,1,0.3514095999998972,119.76275180000812,120.51392330008093,119.76275180000812,120.01395300007425,119.76275180000812,120.01395300007425,119.76275180000812,120.01395300007425,119.76275180000812,120.01395300007425,119.76275180000812,120.01395300007425,119.99759879999328,120.49728460004553,119.99759879999328,120.49728460004553,119.99759879999328,120.49728460004553,119.99759879999328,120.49728460004553,119.99759879999328,120.49728460004553,119.99759879999328,120.49728460004553,119.99759879999328,120.49728460004553,119.99759879999328,120.49728460004553,119.76275180000812,None,120.49728460004553,122.2171379000647,0.25,122.2331819999963,None,122.98511310003232,None,,,,,,,[1.72],5.210000000000004,0.875,12005,001,2024_Jun_13_1559,MFTM_A_new1021,2021.2.3,59.75736122728947,
,,,,,,,,stim/Instruction_adaptive.png,conditions/adaptive.xlsx,test,0.6,0.6,0.6,-0.6,-0.6,right,R,,,,,0,1,1,1,0,8,8,66,,,,,,,,,,,,,,,,,,,,,,,,,,,,,,,,,,,,,,,,,,,,123.48649260005914,None,right,1,0.30493880005087703,123.98582709999755,124.73690520005766,123.98582709999755,124.23582940001506,123.98582709999755,124.23582940001506,123.98582709999755,124.23582940001506,123.98582709999755,124.23582940001506,123.98582709999755,124.23582940001506,124.22014620003756,124.72016200004146,124.22014620003756,124.72016200004146,124.22014620003756,124.72016200004146,124.22014620003756,124.72016200004146,124.22014620003756,124.72016200004146,124.22014620003756,124.72016200004146,124.22014620003756,124.72016200004146,124.22014620003756,124.72016200004146,123.98582709999755,None,124.72016200004146,126.50687969999854,0.25,126.5231903999811,None,127.27471410005819,None,,,,,,,[1.77888889],5.400000000000004,0.8888888888888888,12005,001,2024_Jun_13_1559,MFTM_A_new1021,2021.2.3,59.75736122728947,
,,,,,,,,stim/Instruction_adaptive.png,conditions/adaptive.xlsx,test,-0.6,-0.6,-0.6,0.6,0.6,left,L,,,,,0,1,1,1,0,9,9,11,,,,,,,,,,,,,,,,,,,,,,,,,,,,,,,,,,,,,,,,,,,,127.7759424999822,None,left,1,0.21565480006393045,128.27536349999718,129.02646910003386,128.27536349999718,128.5268548000604,128.27536349999718,128.5268548000604,128.27536349999718,128.5268548000604,128.27536349999718,128.5268548000604,128.27536349999718,128.5268548000604,128.50923970004078,129.0098905999912,128.50923970004078,129.0098905999912,128.50923970004078,129.0098905999912,128.50923970004078,129.0098905999912,128.50923970004078,129.0098905999912,128.50923970004078,129.0098905999912,128.50923970004078,129.0098905999912,128.50923970004078,129.0098905999912,128.27536349999718,None,129.0098905999912,130.8460969000589,0.25,130.86282020004,None,131.6140556000173,None,,,,,,,[1.826],5.550000000000004,0.9,12005,001,2024_Jun_13_1559,MFTM_A_new1021,2021.2.3,59.75736122728947,
,,,,,,,,stim/Instruction_adaptive.png,conditions/adaptive.xlsx,test,-0.6,-0.6,-0.6,0.6,0.6,left,L,,,,,0,1,1,1,0,10,10,19,,,,,,,,,,,,,,,,,,,,,,,,,,,,,,,,,,,,,,,,,,,,132.1154059000546,None,left,1,0.49918169993907213,132.61550770001486,133.36667250003666,132.61550770001486,132.8668050999986,132.61550770001486,132.8668050999986,132.61550770001486,132.8668050999986,132.61550770001486,132.8668050999986,132.61550770001486,132.8668050999986,132.84983439999633,133.34993979998399,132.84983439999633,133.34993979998399,132.84983439999633,133.34993979998399,132.84983439999633,133.34993979998399,132.84983439999633,133.34993979998399,132.84983439999633,133.34993979998399,132.84983439999633,133.34993979998399,132.84983439999633,133.34993979998399,132.61550770001486,None,133.34993979998399,135.22085410007276,0.25,135.23582729999907,None,135.98718190006912,None,,,,,,,[1.86454545],5.680000000000005,0.9090909090909091,12005,001,2024_Jun_13_1559,MFTM_A_new1021,2021.2.3,59.75736122728947,
,,,,,,,,stim/Instruction_adaptive.png,conditions/adaptive.xlsx,test,0.6,0.6,0.6,-0.6,-0.6,right,R,,,,,0,1,1,1,0,11,11,46,,,,,,,,,,,,,,,,,,,,,,,,,,,,,,,,,,,,,,,,,,,,136.48884670005646,None,left,0,0.33449250005651265,136.98900679999497,137.74072640005033,136.98900679999497,137.23982620006427,136.98900679999497,137.23982620006427,136.98900679999497,137.23982620006427,136.98900679999497,137.23982620006427,136.98900679999497,137.23982620006427,137.22325050004292,137.7241253000684,137.22325050004292,137.7241253000684,137.22325050004292,137.7241253000684,137.22325050004292,137.7241253000684,137.22325050004292,137.7241253000684,137.22325050004292,137.7241253000684,137.22325050004292,137.7241253000684,137.22325050004292,137.7241253000684,136.98900679999497,None,137.7241253000684,139.62624740006868,0.25,139.6423906000564,None,140.3938189999899,None,,,,,,,[1.89666667],5.0400000000000045,0.8333333333333334,12005,001,2024_Jun_13_1559,MFTM_A_new1021,2021.2.3,59.75736122728947,
,,,,,,,,stim/Instruction_adaptive.png,conditions/adaptive.xlsx,test,-0.6,-0.6,-0.6,0.6,0.6,left,L,,,,,0,1,1,1,0,12,12,15,,,,,,,,,,,,,,,,,,,,,,,,,,,,,,,,,,,,,,,,,,,,140.89552330004517,None,right,0,0.39176809997297823,141.39524590002839,142.1467628000537,141.39524590002839,141.64636650006287,141.39524590002839,141.64636650006287,141.39524590002839,141.64636650006287,141.39524590002839,141.64636650006287,141.39524590002839,141.64636650006287,141.62960450001992,142.13054689997807,141.62960450001992,142.13054689997807,141.62960450001992,142.13054689997807,141.62960450001992,142.13054689997807,141.62960450001992,142.13054689997807,141.62960450001992,142.13054689997807,141.62960450001992,142.13054689997807,141.62960450001992,142.13054689997807,141.39524590002839,None,142.13054689997807,144.0668508000672,0.25,144.08241769997403,None,144.83400799997617,None,,,,,,,[1.92384615],4.560000000000004,0.7692307692307693,12005,001,2024_Jun_13_1559,MFTM_A_new1021,2021.2.3,59.75736122728947,
,,,,,,,,stim/Instruction_adaptive.png,conditions/adaptive.xlsx,test,-0.6,-0.6,-0.6,0.6,0.6,left,L,,,,,0,1,1,1,0,13,13,47,,,,,,,,,,,,,,,,,,,,,,,,,,,,,,,,,,,,,,,,,,,,145.3348105000332,None,right,0,0.6947416999610141,145.83663290005643,146.62045280006714,145.83663290005643,146.11925660003908,145.83663290005643,146.11925660003908,145.83663290005643,146.11925660003908,145.83663290005643,146.11925660003908,145.83663290005643,146.11925660003908,146.10340190003626,146.6039881000761,146.10340190003626,146.6039881000761,146.10340190003626,146.6039881000761,146.10340190003626,146.6039881000761,146.10340190003626,146.6039881000761,146.10340190003626,146.6039881000761,146.10340190003626,146.6039881000761,146.10340190003626,146.6039881000761,145.83663290005643,None,146.6039881000761,148.55615509999916,0.28,148.57292609999422,None,149.32428900001105,None,,,,,,,[1.945],4.120000000000003,0.7142857142857143,12005,001,2024_Jun_13_1559,MFTM_A_new1021,2021.2.3,59.75736122728947,
,,,,,,,,stim/Instruction_adaptive.png,conditions/adaptive.xlsx,test,-0.6,-0.6,-0.6,0.6,0.6,left,L,,,,,0,1,1,1,0,14,14,79,,,,,,,,,,,,,,,,,,,,,,,,,,,,,,,,,,,,,,,,,,,,149.82459139998537,None,left,1,0.9817161000100896,150.32566029997543,151.21027250005864,150.32566029997543,150.7096558000194,150.32566029997543,150.7096558000194,150.32566029997543,150.7096558000194,150.32566029997543,150.7096558000194,150.32566029997543,150.7096558000194,150.6933405000018,151.19352380000055,150.6933405000018,151.19352380000055,150.6933405000018,151.19352380000055,150.6933405000018,151.19352380000055,150.6933405000018,151.19352380000055,150.6933405000018,151.19352380000055,150.6933405000018,151.19352380000055,150.6933405000018,151.19352380000055,150.32566029997543,None,151.19352380000055,None,0.3800000000000001,153.16310440003872,None,153.91419969999697,None,,,,,,,[1.95666667],4.290000000000004,0.7333333333333333,12005,001,2024_Jun_13_1559,MFTM_A_new1021,2021.2.3,59.75736122728947,
,,,,,,,,stim/Instruction_adaptive.png,conditions/adaptive.xlsx,test,0.6,0.6,0.6,-0.6,-0.6,right,R,,,,,0,1,1,1,0,15,15,80,,,,,,,,,,,,,,,,,,,,,,,,,,,,,,,,,,,,,,,,,,,,154.4148780000396,None,right,1,0.8792299999622628,154.9161710999906,155.76763900008518,154.9161710999906,155.2671259000199,154.9161710999906,155.2671259000199,154.9161710999906,155.2671259000199,154.9161710999906,155.2671259000199,154.9161710999906,155.2671259000199,155.2327608000487,155.73449379997328,155.2327608000487,155.73449379997328,155.2327608000487,155.73449379997328,155.2327608000487,155.73449379997328,155.2327608000487,155.73449379997328,155.2327608000487,155.73449379997328,155.2327608000487,155.73449379997328,155.2327608000487,155.73449379997328,154.9161710999906,None,155.73449379997328,157.70347379997838,0.3400000000000001,157.7373297000304,None,158.48788939998485,None,,,,,,,[1.969375],4.430000000000003,0.75,12005,001,2024_Jun_13_1559,MFTM_A_new1021,2021.2.3,59.75736122728947,
,,,,,,,,stim/Instruction_adaptive.png,conditions/adaptive.xlsx,test,0.6,0.6,0.6,-0.6,-0.6,right,R,,,,,0,1,1,1,0,16,16,4,,,,,,,,,,,,,,,,,,,,,,,,,,,,,,,,,,,,,,,,,,,,158.98921000002883,None,right,1,0.35308559995610267,159.49027150007896,160.30723939999007,159.49027150007896,159.80750900006387,159.49027150007896,159.80750900006387,159.49027150007896,159.80750900006387,159.49027150007896,159.80750900006387,159.49027150007896,159.80750900006387,159.7897933999775,160.29076290002558,159.7897933999775,160.29076290002558,159.7897933999775,160.29076290002558,159.7897933999775,160.29076290002558,159.7897933999775,160.29076290002558,159.7897933999775,160.29076290002558,159.7897933999775,160.29076290002558,159.7897933999775,160.29076290002558,159.49027150007896,None,160.29076290002558,162.27688280004077,0.31000000000000005,162.29343189997599,None,163.0454977999907,None,,,,,,,[1.98235294],4.560000000000004,0.7647058823529411,12005,001,2024_Jun_13_1559,MFTM_A_new1021,2021.2.3,59.75736122728947,
,,,,,,,,stim/Instruction_adaptive.png,conditions/adaptive.xlsx,test,-0.6,-0.6,-0.6,0.6,0.6,left,L,,,,,0,1,1,1,0,17,17,3,,,,,,,,,,,,,,,,,,,,,,,,,,,,,,,,,,,,,,,,,,,,163.5462740000803,None,left,1,0.6199935000622645,164.04773120000027,164.83061579999048,164.04773120000027,164.32975670008454,164.04773120000027,164.32975670008454,164.04773120000027,164.32975670008454,164.04773120000027,164.32975670008454,164.04773120000027,164.32975670008454,164.31323129998054,164.8139722000342,164.31323129998054,164.8139722000342,164.31323129998054,164.8139722000342,164.31323129998054,164.8139722000342,164.31323129998054,164.8139722000342,164.31323129998054,164.8139722000342,164.31323129998054,164.8139722000342,164.31323129998054,164.8139722000342,164.04773120000027,None,164.8139722000342,166.81812660000287,0.28,166.83381290000398,None,167.58502710005268,None,,,,,,,[1.99555556],4.6700000000000035,0.7777777777777778,12005,001,2024_Jun_13_1559,MFTM_A_new1021,2021.2.3,59.75736122728947,
,,,,,,,,stim/Instruction_adaptive.png,conditions/adaptive.xlsx,test,0.6,0.6,0.6,-0.6,-0.6,right,R,,,,,0,1,1,1,0,18,18,88,,,,,,,,,,,,,,,,,,,,,,,,,,,,,,,,,,,,,,,,,,,,168.08542580006178,None,left,0,0.8494657999835908,168.58642810001038,169.35466780001298,168.58642810001038,168.85348430008162,168.58642810001038,168.85348430008162,168.58642810001038,168.85348430008162,168.58642810001038,168.85348430008162,168.58642810001038,168.85348430008162,168.83778699999675,169.3379939000588,168.83778699999675,169.3379939000588,168.83778699999675,169.3379939000588,168.83778699999675,169.3379939000588,168.83778699999675,169.3379939000588,168.83778699999675,169.3379939000588,168.83778699999675,169.3379939000588,168.83778699999675,169.3379939000588,168.58642810001038,None,169.3379939000588,None,0.26,171.35762560006697,None,172.10925820004195,None,,,,,,,[2.00842105],4.370000000000004,0.7368421052631579,12005,001,2024_Jun_13_1559,MFTM_A_new1021,2021.2.3,59.75736122728947,
,,,,,,,,stim/Instruction_adaptive.png,conditions/adaptive.xlsx,test,-0.6,-0.6,-0.6,0.6,0.6,left,L,,,,,0,1,1,1,0,19,19,99,,,,,,,,,,,,,,,,,,,,,,,,,,,,,,,,,,,,,,,,,,,,172.6096486999886,None,right,0,0.9090899999719113,173.11063900007866,173.9456892000744,173.11063900007866,173.44356220006011,173.11063900007866,173.44356220006011,173.11063900007866,173.44356220006011,173.11063900007866,173.44356220006011,173.11063900007866,173.44356220006011,173.41021120001096,173.91104540007655,173.41021120001096,173.91104540007655,173.41021120001096,173.91104540007655,173.41021120001096,173.91104540007655,173.41021120001096,173.91104540007655,173.41021120001096,173.91104540007655,173.41021120001096,173.91104540007655,173.41021120001096,173.91104540007655,173.11063900007866,None,173.91104540007655,175.93131730007008,0.32000000000000006,175.94671809999272,None,176.69897100003436,None,,,,,,,[2.017],4.030000000000003,0.7,12005,001,2024_Jun_13_1559,MFTM_A_new1021,2021.2.3,59.75736122728947,
,,,,,,,,stim/Instruction_adaptive.png,conditions/adaptive.xlsx,test,0.6,0.6,0.6,-0.6,-0.6,right,R,,,,,0,1,1,1,0,20,20,54,,,,,,,,,,,,,,,,,,,,,,,,,,,,,,,,,,,,,,,,,,,,177.19973770005163,None,right,1,0.815736599965021,177.700671800063,178.60143769998103,177.700671800063,178.1015537000494,177.700671800063,178.1015537000494,177.700671800063,178.1015537000494,177.700671800063,178.1015537000494,177.700671800063,178.1015537000494,178.08493800007273,178.58472000004258,178.08493800007273,178.58472000004258,178.08493800007273,178.58472000004258,178.08493800007273,178.58472000004258,178.08493800007273,178.58472000004258,178.08493800007273,178.58472000004258,178.08493800007273,178.58472000004258,178.08493800007273,178.58472000004258,177.700671800063,None,178.58472000004258,180.60555059998296,0.40000000000000013,180.62108870001975,None,181.3732561999932,None,,,,,,,[2.02095238],4.160000000000004,0.7142857142857143,12005,001,2024_Jun_13_1559,MFTM_A_new1021,2021.2.3,59.75736122728947,
,,,,,,,,stim/Instruction_adaptive.png,conditions/adaptive.xlsx,test,-0.6,-0.6,-0.6,0.6,0.6,left,L,,,,,0,1,1,1,0,21,21,25,,,,,,,,,,,,,,,,,,,,,,,,,,,,,,,,,,,,,,,,,,,,181.873731700005,None,right,0,0.8143887999467552,182.3738280000398,183.25943199999165,182.3738280000398,182.75768590008374,182.3738280000398,182.75768590008374,182.3738280000398,182.75768590008374,182.3738280000398,182.75768590008374,182.3738280000398,182.75768590008374,182.7252755999798,183.22508500004187,182.7252755999798,183.22508500004187,182.7252755999798,183.22508500004187,182.7252755999798,183.22508500004187,182.7252755999798,183.22508500004187,182.7252755999798,183.22508500004187,182.7252755999798,183.22508500004187,182.7252755999798,183.22508500004187,182.3738280000398,None,183.22508500004187,185.26135970000178,0.3700000000000001,185.27832520008087,None,186.02995850006118,None,,,,,,,[2.02590909],3.810000000000003,0.6818181818181818,12005,001,2024_Jun_13_1559,MFTM_A_new1021,2021.2.3,59.75736122728947,
,,,,,,,,stim/Instruction_adaptive.png,conditions/adaptive.xlsx,test,0.6,0.6,0.6,-0.6,-0.6,right,R,,,,,0,1,1,1,0,22,22,26,,,,,,,,,,,,,,,,,,,,,,,,,,,,,,,,,,,,,,,,,,,,186.53059029998258,None,left,0,1.3016290999948978,187.03083469998091,188.01725230005104,187.03083469998091,187.51495159999467,187.03083469998091,187.51495159999467,187.03083469998091,187.51495159999467,187.03083469998091,187.51495159999467,187.03083469998091,187.51495159999467,187.48163050005678,187.9822910000803,187.48163050005678,187.9822910000803,187.48163050005678,187.9822910000803,187.48163050005678,187.9822910000803,187.48163050005678,187.9822910000803,187.48163050005678,187.9822910000803,187.48163050005678,187.9822910000803,187.48163050005678,187.9822910000803,187.03083469998091,None,187.9822910000803,190.0195879000239,0.4700000000000002,190.0352371999761,None,190.78732730005868,None,,,,,,,[2.02608696],3.410000000000003,0.6521739130434783,12005,001,2024_Jun_13_1559,MFTM_A_new1021,2021.2.3,59.75736122728947,
,,,,,,,,stim/Instruction_adaptive.png,conditions/adaptive.xlsx,test,-0.6,-0.6,-0.6,0.6,0.6,left,L,,,,,0,1,1,1,0,23,23,51,,,,,,,,,,,,,,,,,,,,,,,,,,,,,,,,,,,,,,,,,,,,191.28803190006875,None,left,1,1.0640498999273404,191.7884637999814,192.9237422000151,191.7884637999814,192.42302700004075,191.7884637999814,192.42302700004075,191.7884637999814,192.42302700004075,191.7884637999814,192.42302700004075,191.7884637999814,192.42302700004075,192.38962050003465,192.8908092000056,192.38962050003465,192.8908092000056,192.38962050003465,192.8908092000056,192.38962050003465,192.8908092000056,192.38962050003465,192.8908092000056,192.38962050003465,192.8908092000056,192.38962050003465,192.8908092000056,192.38962050003465,192.8908092000056,191.7884637999814,None,192.8908092000056,194.77571840002201,0.6200000000000003,194.79245140007697,None,195.54356570006348,None,,,,,,,[[1.88]],3.570000000000003,0.6666666666666666,12005,001,2024_Jun_13_1559,MFTM_A_new1021,2021.2.3,59.75736122728947,
,,,,,,,,stim/Instruction_adaptive.png,conditions/adaptive.xlsx,test,0.6,0.6,0.6,-0.6,-0.6,right,R,,,,,0,1,1,1,0,24,24,2,,,,,,,,,,,,,,,,,,,,,,,,,,,,,,,,,,,,,,,,,,,,196.04458930005785,None,right,1,0.4750325999921188,196.5453427999746,197.596834499971,196.5453427999746,197.0961357000051,196.5453427999746,197.0961357000051,196.5453427999746,197.0961357000051,196.5453427999746,197.0961357000051,196.5453427999746,197.0961357000051,197.07930590002798,197.58133329998236,197.07930590002798,197.58133329998236,197.07930590002798,197.58133329998236,197.07930590002798,197.58133329998236,197.07930590002798,197.58133329998236,197.07930590002798,197.58133329998236,197.07930590002798,197.58133329998236,197.07930590002798,197.58133329998236,196.5453427999746,None,197.58133329998236,199.53306520008482,0.5500000000000003,199.55052839999553,None,200.3013867000118,None,,,,,,,[[1.95]],3.700000000000003,0.68,12005,001,2024_Jun_13_1559,MFTM_A_new1021,2021.2.3,59.75736122728947,
,,,,,,,,stim/Instruction_adaptive.png,conditions/adaptive.xlsx,test,-0.6,-0.6,-0.6,0.6,0.6,left,L,,,,,0,1,1,1,0,25,25,73,,,,,,,,,,,,,,,,,,,,,,,,,,,,,,,,,,,,,,,,,,,,200.80231579998508,None,left,1,0.4382628999883309,201.30238750006538,202.32053620007355,201.30238750006538,201.82055559998844,201.30238750006538,201.82055559998844,201.30238750006538,201.82055559998844,201.30238750006538,201.82055559998844,201.30238750006538,201.82055559998844,201.8031962000532,202.30388490005862,201.8031962000532,202.30388490005862,201.8031962000532,202.30388490005862,201.8031962000532,202.30388490005862,201.8031962000532,202.30388490005862,201.8031962000532,202.30388490005862,201.8031962000532,202.30388490005862,201.8031962000532,202.30388490005862,201.30238750006538,None,202.28717590007,204.2899780999869,0.5100000000000002,204.30680899997242,None,205.05901430000085,None,,,,,,,[[1.99]],3.810000000000003,0.6923076923076923,12005,001,2024_Jun_13_1559,MFTM_A_new1021,2021.2.3,59.75736122728947,
,,,,,,,,stim/Instruction_adaptive.png,conditions/adaptive.xlsx,test,0.6,0.6,0.6,-0.6,-0.6,right,R,,,,,0,1,1,1,0,26,26,40,,,,,,,,,,,,,,,,,,,,,,,,,,,,,,,,,,,,,,,,,,,,205.55972220003605,None,left,0,1.2333356000017375,206.0594565999927,207.02750490000471,206.0594565999927,206.54342630004976,206.0594565999927,206.54342630004976,206.0594565999927,206.54342630004976,206.0594565999927,206.54342630004976,206.0594565999927,206.54342630004976,206.5101563000353,207.01187330007087,206.5101563000353,207.01187330007087,206.5101563000353,207.01187330007087,206.5101563000353,207.01187330007087,206.5101563000353,207.01187330007087,206.5101563000353,207.01187330007087,206.5101563000353,207.01187330007087,206.5101563000353,207.01187330007087,206.0594565999927,None,207.01187330007087,209.03241210000124,0.4700000000000002,209.0471107000485,None,209.79843179997988,None,,,,,,,[2.01666667],3.5000000000000027,0.6666666666666666,12005,001,2024_Jun_13_1559,MFTM_A_new1021,2021.2.3,59.75736122728947,
,,,,,,,,stim/Instruction_adaptive.png,conditions/adaptive.xlsx,test,0.6,0.6,0.6,-0.6,-0.6,right,R,,,,,0,1,1,1,0,27,27,58,,,,,,,,,,,,,,,,,,,,,,,,,,,,,,,,,,,,,,,,,,,,210.2999502000166,None,right,1,0.8992937000002712,210.8014608999947,211.88565010007005,210.8014608999947,211.38405660004355,210.8014608999947,211.38405660004355,210.8014608999947,211.38405660004355,210.8014608999947,211.38405660004355,210.8014608999947,211.38405660004355,211.36745520005934,211.8696573000634,211.36745520005934,211.8696573000634,211.36745520005934,211.8696573000634,211.36745520005934,211.8696573000634,211.36745520005934,211.8696573000634,211.36745520005934,211.8696573000634,211.36745520005934,211.8696573000634,211.36745520005934,211.8696573000634,210.8014608999947,None,211.8696573000634,None,0.5800000000000003,213.80529000004753,None,214.55567190004513,None,,,,,,,[[1.92]],3.6200000000000028,0.6785714285714286,12005,001,2024_Jun_13_1559,MFTM_A_new1021,2021.2.3,59.75736122728947,
,,,,,,,,stim/Instruction_adaptive.png,conditions/adaptive.xlsx,test,-0.6,-0.6,-0.6,0.6,0.6,left,L,,,,,0,1,1,1,0,28,28,9,,,,,,,,,,,,,,,,,,,,,,,,,,,,,,,,,,,,,,,,,,,,215.05642270005774,None,left,1,0.7518086999189109,215.55716000008397,216.6087494000094,215.55716000008397,216.1079846000066,215.55716000008397,216.1079846000066,215.55716000008397,216.1079846000066,215.55716000008397,216.1079846000066,215.55716000008397,216.1079846000066,216.07549550000113,216.57589490001556,216.07549550000113,216.57589490001556,216.07549550000113,216.57589490001556,216.07549550000113,216.57589490001556,216.07549550000113,216.57589490001556,216.07549550000113,216.57589490001556,216.07549550000113,216.57589490001556,216.07549550000113,216.57589490001556,215.55716000008397,None,216.57589490001556,218.54495030001272,0.5400000000000003,218.56177060003392,None,219.31415130000096,None,,,,,,,[[1.96]],3.720000000000003,0.6896551724137931,12005,001,2024_Jun_13_1559,MFTM_A_new1021,2021.2.3,59.75736122728947,
,,,,,,,,stim/Instruction_adaptive.png,conditions/adaptive.xlsx,test,-0.6,-0.6,-0.6,0.6,0.6,left,L,,,,,0,1,1,1,0,29,29,81,,,,,,,,,,,,,,,,,,,,,,,,,,,,,,,,,,,,,,,,,,,,219.81412670004647,None,left,1,0.7949633999960497,220.31425809999928,221.31596070004161,220.31425809999928,220.81576250004582,220.31425809999928,220.81576250004582,220.31425809999928,220.81576250004582,220.31425809999928,220.81576250004582,220.31425809999928,220.81576250004582,220.79849269997794,221.2989306000527,220.79849269997794,221.2989306000527,220.79849269997794,221.2989306000527,220.79849269997794,221.2989306000527,220.79849269997794,221.2989306000527,220.79849269997794,221.2989306000527,220.79849269997794,221.2989306000527,220.79849269997794,221.2989306000527,220.31425809999928,None,221.2989306000527,223.30194420006592,0.5000000000000002,223.31870800000615,None,224.06981840007938,None,,,,,,,[[2.]],3.810000000000003,0.7,12005,001,2024_Jun_13_1559,MFTM_A_new1021,2021.2.3,59.75736122728947,
,,,,,,,,stim/Instruction_adaptive.png,conditions/adaptive.xlsx,test,-0.6,-0.6,-0.6,0.6,0.6,left,L,,,,,0,1,1,1,0,30,30,71,,,,,,,,,,,,,,,,,,,,,,,,,,,,,,,,,,,,,,,,,,,,224.5711738000391,None,right,0,1.1254420999903232,225.072091500042,226.05632350000087,225.072091500042,225.5554588000523,225.072091500042,225.5554588000523,225.072091500042,225.5554588000523,225.072091500042,225.5554588000523,225.072091500042,225.5554588000523,225.522096300032,226.02380020008422,225.522096300032,226.02380020008422,225.522096300032,226.02380020008422,225.522096300032,226.02380020008422,225.522096300032,226.02380020008422,225.522096300032,226.02380020008422,225.522096300032,226.02380020008422,225.522096300032,226.02380020008422,225.072091500042,None,226.02380020008422,228.04254840000067,0.4700000000000002,228.05913660000078,None,228.81031640002038,None,,,,,,,[2.0116129],3.5600000000000027,0.6774193548387096,12005,001,2024_Jun_13_1559,MFTM_A_new1021,2021.2.3,59.75736122728947,
,,,,,,,,stim/Instruction_adaptive.png,conditions/adaptive.xlsx,test,0.6,0.6,0.6,-0.6,-0.6,right,R,,,,,0,1,1,1,0,31,31,44,,,,,,,,,,,,,,,,,,,,,,,,,,,,,,,,,,,,,,,,,,,,229.31136789999437,None,right,1,1.0654865000396967,229.81196770002134,230.8801211999962,229.81196770002134,230.37962180003524,229.81196770002134,230.37962180003524,229.81196770002134,230.37962180003524,229.81196770002134,230.37962180003524,229.81196770002134,230.37962180003524,230.34715679998044,230.84795399999712,230.34715679998044,230.84795399999712,230.34715679998044,230.84795399999712,230.34715679998044,230.84795399999712,230.34715679998044,230.84795399999712,230.34715679998044,230.84795399999712,230.34715679998044,230.84795399999712,230.34715679998044,230.84795399999712,229.81196770002134,None,230.86489419999998,None,0.5600000000000003,232.81589750002604,None,233.5685788000701,None,,,,,,,[[1.94]],3.650000000000003,0.6875,12005,001,2024_Jun_13_1559,MFTM_A_new1021,2021.2.3,59.75736122728947,
,,,,,,,,stim/Instruction_adaptive.png,conditions/adaptive.xlsx,test,-0.6,-0.6,-0.6,0.6,0.6,left,L,,,,,0,1,1,1,0,32,32,75,,,,,,,,,,,,,,,,,,,,,,,,,,,,,,,,,,,,,,,,,,,,234.0684551000595,None,right,0,1.0042386999120936,234.5690895000007,235.60479280003347,234.5690895000007,235.10325619997457,234.5690895000007,235.10325619997457,234.5690895000007,235.10325619997457,234.5690895000007,235.10325619997457,234.5690895000007,235.10325619997457,235.06979119998869,235.57055419997778,235.06979119998869,235.57055419997778,235.06979119998869,235.57055419997778,235.06979119998869,235.57055419997778,235.06979119998869,235.57055419997778,235.06979119998869,235.57055419997778,235.06979119998869,235.57055419997778,235.06979119998869,235.57055419997778,234.5690895000007,None,235.57055419997778,237.5571431000717,0.5200000000000002,237.57388819998596,None,238.32476270000916,None,,,,,,,[[1.98]],3.3900000000000023,0.6666666666666666,12005,001,2024_Jun_13_1559,MFTM_A_new1021,2021.2.3,59.75736122728947,
,,,,,,,,stim/Instruction_adaptive.png,conditions/adaptive.xlsx,test,0.6,0.6,0.6,-0.6,-0.6,right,R,,,,,0,1,1,1,0,33,33,22,,,,,,,,,,,,,,,,,,,,,,,,,,,,,,,,,,,,,,,,,,,,238.82617350004148,None,left,0,0.7668307999847457,239.32722139998805,240.46133610000834,239.32722139998805,239.96064120007213,239.32722139998805,239.96064120007213,239.32722139998805,239.96064120007213,239.32722139998805,239.96064120007213,239.32722139998805,239.96064120007213,239.94400640006643,240.44469510007184,239.94400640006643,240.44469510007184,239.94400640006643,240.44469510007184,239.94400640006643,240.44469510007184,239.94400640006643,240.44469510007184,239.94400640006643,240.44469510007184,239.94400640006643,240.44469510007184,239.94400640006643,240.44469510007184,239.32722139998805,None,240.44469510007184,242.31512649997603,0.6300000000000003,242.33083110000007,None,243.08284100005403,None,,,,,,,[[1.87]],3.0900000000000025,0.6470588235294118,12005,001,2024_Jun_13_1559,MFTM_A_new1021,2021.2.3,59.75736122728947,
,,,,,,,,stim/Instruction_adaptive.png,conditions/adaptive.xlsx,test,-0.6,-0.6,-0.6,0.6,0.6,left,L,,,,,0,1,1,1,0,34,34,85,,,,,,,,,,,,,,,,,,,,,,,,,,,,,,,,,,,,,,,,,,,,243.58377010002732,None,left,1,1.2429937000852078,244.0834575999761,245.36875240004156,244.0834575999761,244.86792420002166,244.0834575999761,244.86792420002166,244.0834575999761,244.86792420002166,244.0834575999761,244.86792420002166,244.0834575999761,244.86792420002166,244.83451900002547,245.33515579998493,244.83451900002547,245.33515579998493,244.83451900002547,245.33515579998493,244.83451900002547,245.33515579998493,244.83451900002547,245.33515579998493,244.83451900002547,245.33515579998493,244.83451900002547,245.33515579998493,244.83451900002547,245.33515579998493,244.0834575999761,None,245.33515579998493,247.0718536999775,0.7700000000000005,247.088018200011,None,247.83911820000503,None,,,,,,,[[1.73]],3.2000000000000024,0.6571428571428571,12005,001,2024_Jun_13_1559,MFTM_A_new1021,2021.2.3,59.75736122728947,
,,,,,,,,stim/Instruction_adaptive.png,conditions/adaptive.xlsx,test,-0.6,-0.6,-0.6,0.6,0.6,left,L,,,,,0,1,1,1,0,35,35,59,,,,,,,,,,,,,,,,,,,,,,,,,,,,,,,,,,,,,,,,,,,,248.33979810005985,None,left,1,0.916527200024575,248.84144960006233,250.07577039999887,248.84144960006233,249.57523409998976,248.84144960006233,249.57523409998976,248.84144960006233,249.57523409998976,248.84144960006233,249.57523409998976,248.84144960006233,249.57523409998976,249.5417811999796,250.04252380004618,249.5417811999796,250.04252380004618,249.5417811999796,250.04252380004618,249.5417811999796,250.04252380004618,249.5417811999796,250.04252380004618,249.5417811999796,250.04252380004618,249.5417811999796,250.04252380004618,249.5417811999796,250.04252380004618,248.84144960006233,None,250.04252380004618,251.82920859998558,0.7200000000000004,251.84529810003005,None,252.5971286999993,None,,,,,,,[[1.78]],3.3000000000000025,0.6666666666666666,12005,001,2024_Jun_13_1559,MFTM_A_new1021,2021.2.3,59.75736122728947,
,,,,,,,,stim/Instruction_adaptive.png,conditions/adaptive.xlsx,test,-0.6,-0.6,-0.6,0.6,0.6,left,L,,,,,0,1,1,1,0,36,36,87,,,,,,,,,,,,,,,,,,,,,,,,,,,,,,,,,,,,,,,,,,,,253.09790809999686,None,right,0,0.7360544999828562,253.59807659999933,254.78306520008482,253.59807659999933,254.28210489999037,253.59807659999933,254.28210489999037,253.59807659999933,254.28210489999037,253.59807659999933,254.28210489999037,253.59807659999933,254.28210489999037,254.24883749999572,254.7499467000598,254.24883749999572,254.7499467000598,254.24883749999572,254.7499467000598,254.24883749999572,254.7499467000598,254.24883749999572,254.7499467000598,254.24883749999572,254.7499467000598,254.24883749999572,254.7499467000598,254.24883749999572,254.7499467000598,253.59807659999933,None,254.7499467000598,256.5859440000495,0.6700000000000004,256.60240400000475,None,257.3539948000107,None,,,,,,,[[1.83]],3.0200000000000022,0.6486486486486487,12005,001,2024_Jun_13_1559,MFTM_A_new1021,2021.2.3,59.75736122728947,
,,,,,,,,stim/Instruction_adaptive.png,conditions/adaptive.xlsx,test,0.6,0.6,0.6,-0.6,-0.6,right,R,,,,,0,1,1,1,0,37,37,50,,,,,,,,,,,,,,,,,,,,,,,,,,,,,,,,,,,,,,,,,,,,257.854308100068,None,right,1,1.6591076999902725,258.3550732000731,259.67494669998996,258.3550732000731,259.1729335000273,258.3550732000731,259.1729335000273,258.3550732000731,259.1729335000273,258.3550732000731,259.1729335000273,258.3550732000731,259.1729335000273,259.15623429999687,259.657570600044,259.15623429999687,259.657570600044,259.15623429999687,259.657570600044,259.15623429999687,259.657570600044,259.15623429999687,259.657570600044,259.15623429999687,259.657570600044,259.15623429999687,259.657570600044,259.15623429999687,259.657570600044,258.3550732000731,None,259.657570600044,None,0.8100000000000005,261.35912110004574,None,262.11136970005464,None,,,,,,,[[1.69]],3.1300000000000026,0.6578947368421053,12005,001,2024_Jun_13_1559,MFTM_A_new1021,2021.2.3,59.75736122728947,
,,,,,,,,stim/Instruction_adaptive.png,conditions/adaptive.xlsx,test,-0.6,-0.6,-0.6,0.6,0.6,left,L,,,,,0,1,1,1,0,38,38,37,,,,,,,,,,,,,,,,,,,,,,,,,,,,,,,,,,,,,,,,,,,,262.6121460000286,None,right,0,1.4219265000429004,263.1121522000758,264.3642901000567,263.1121522000758,263.8642476000823,263.1121522000758,263.8642476000823,263.1121522000758,263.8642476000823,263.1121522000758,263.8642476000823,263.1121522000758,263.8642476000823,263.84778090007603,264.34755369997583,263.84778090007603,264.34755369997583,263.84778090007603,264.34755369997583,263.84778090007603,264.34755369997583,263.84778090007603,264.34755369997583,263.84778090007603,264.34755369997583,263.84778090007603,264.34755369997583,263.84778090007603,264.34755369997583,263.1121522000758,None,264.34755369997583,266.1004212000407,0.7500000000000004,266.1167660000501,None,266.8685345000122,None,,,,,,,[[1.75]],2.840000000000002,0.6410256410256411,12005,001,2024_Jun_13_1559,MFTM_A_new1021,2021.2.3,59.75736122728947,
,,,,,,,,stim/Instruction_adaptive.png,conditions/adaptive.xlsx,test,-0.6,-0.6,-0.6,0.6,0.6,left,L,,,,,0,1,1,1,0,39,39,55,,,,,,,,,,,,,,,,,,,,,,,,,,,,,,,,,,,,,,,,,,,,267.36876330000814,None,right,0,1.6879593000048772,267.87022899999283,269.30490129999816,267.87022899999283,268.8040163000114,267.87022899999283,268.8040163000114,267.87022899999283,268.8040163000114,267.87022899999283,268.8040163000114,267.87022899999283,268.8040163000114,268.77059470000677,269.2722766000079,268.77059470000677,269.2722766000079,268.77059470000677,269.2722766000079,268.77059470000677,269.2722766000079,268.77059470000677,269.2722766000079,268.77059470000677,269.2722766000079,268.77059470000677,269.2722766000079,268.77059470000677,269.2722766000079,267.87022899999283,None,269.2722766000079,270.8573666000739,0.9200000000000006,270.87389869999606,None,271.62590860005,None,,,,,,,[[1.58]],2.4800000000000018,0.625,12005,001,2024_Jun_13_1559,MFTM_A_new1021,2021.2.3,59.75736122728947,
,,,,,,,,stim/Instruction_adaptive.png,conditions/adaptive.xlsx,test,0.6,0.6,0.6,-0.6,-0.6,right,R,,,,,0,1,1,1,0,40,40,98,,,,,,,,,,,,,,,,,,,,,,,,,,,,,,,,,,,,,,,,,,,,272.1270598000847,None,right,1,1.2520102000562474,272.62649429996964,274.3124240000034,272.62649429996964,273.81339400005527,272.62649429996964,273.81339400005527,272.62649429996964,273.81339400005527,272.62649429996964,273.81339400005527,272.62649429996964,273.81339400005527,273.7963593000313,274.29676519997884,273.7963593000313,274.29676519997884,273.7963593000313,274.29676519997884,273.7963593000313,274.29676519997884,273.7963593000313,274.29676519997884,273.7963593000313,274.29676519997884,273.7963593000313,274.29676519997884,273.7963593000313,274.29676519997884,272.62649429996964,None,274.29676519997884,None,1.1800000000000008,275.6303733000532,None,276.3823623000644,None,,,,,,,[[1.32]],2.620000000000002,0.6341463414634146,12005,001,2024_Jun_13_1559,MFTM_A_new1021,2021.2.3,59.75736122728947,
,,,,,,,,stim/Instruction_adaptive.png,conditions/adaptive.xlsx,test,0.6,0.6,0.6,-0.6,-0.6,right,R,,,,,0,1,1,1,0,41,41,94,,,,,,,,,,,,,,,,,,,,,,,,,,,,,,,,,,,,,,,,,,,,276.8840089000296,None,right,1,1.2950590000255033,277.3837458000053,278.97025440004654,277.3837458000053,278.4694781000726,277.3837458000053,278.4694781000726,277.3837458000053,278.4694781000726,277.3837458000053,278.4694781000726,277.3837458000053,278.4694781000726,278.4352566000307,278.93609760003164,278.4352566000307,278.93609760003164,278.4352566000307,278.93609760003164,278.4352566000307,278.93609760003164,278.4352566000307,278.93609760003164,278.4352566000307,278.93609760003164,278.4352566000307,278.93609760003164,278.4352566000307,278.93609760003164,277.3837458000053,None,278.93609760003164,280.37262709997594,1.0700000000000007,280.38829190004617,None,281.14020270004403,None,,,,,,,[[1.43]],2.740000000000002,0.6428571428571429,12005,001,2024_Jun_13_1559,MFTM_A_new1021,2021.2.3,59.75736122728947,
,,,,,,,,stim/Instruction_adaptive.png,conditions/adaptive.xlsx,test,0.6,0.6,0.6,-0.6,-0.6,right,R,,,,,0,1,1,1,0,42,42,96,,,,,,,,,,,,,,,,,,,,,,,,,,,,,,,,,,,,,,,,,,,,281.64115530007984,None,right,1,1.0412800000049174,282.14157490001526,283.62726059998386,282.14157490001526,283.1257618999807,282.14157490001526,283.1257618999807,282.14157490001526,283.1257618999807,282.14157490001526,283.1257618999807,282.14157490001526,283.1257618999807,283.10902510001324,283.6098276000703,283.10902510001324,283.6098276000703,283.10902510001324,283.6098276000703,283.10902510001324,283.6098276000703,283.10902510001324,283.6098276000703,283.10902510001324,283.6098276000703,283.10902510001324,283.6098276000703,283.10902510001324,283.6098276000703,282.14157490001526,None,283.6098276000703,None,0.9800000000000006,285.14552540006116,None,285.8967715000035,None,,,,,,,[[1.52]],2.840000000000002,0.6511627906976745,12005,001,2024_Jun_13_1559,MFTM_A_new1021,2021.2.3,59.75736122728947,
,,,,,,,,stim/Instruction_adaptive.png,conditions/adaptive.xlsx,test,-0.6,-0.6,-0.6,0.6,0.6,left,L,,,,,0,1,1,1,0,43,43,13,,,,,,,,,,,,,,,,,,,,,,,,,,,,,,,,,,,,,,,,,,,,286.39755460002925,None,left,1,1.1888349000364542,286.89804390002973,288.31694460008293,286.89804390002973,287.83382000005804,286.89804390002973,287.83382000005804,286.89804390002973,287.83382000005804,286.89804390002973,287.83382000005804,286.89804390002973,287.83382000005804,287.79948799998965,288.301118100062,287.79948799998965,288.301118100062,287.79948799998965,288.301118100062,287.79948799998965,288.301118100062,287.79948799998965,288.301118100062,287.79948799998965,288.301118100062,287.79948799998965,288.301118100062,287.79948799998965,288.301118100062,286.89804390002973,None,288.301118100062,289.88563120004255,0.9200000000000006,289.90247690002434,None,290.6538861000445,None,,,,,,,[[1.58]],2.9300000000000024,0.6590909090909091,12005,001,2024_Jun_13_1559,MFTM_A_new1021,2021.2.3,59.75736122728947,
,,,,,,,,stim/Instruction_adaptive.png,conditions/adaptive.xlsx,test,-0.6,-0.6,-0.6,0.6,0.6,left,L,,,,,0,1,1,1,0,44,44,21,,,,,,,,,,,,,,,,,,,,,,,,,,,,,,,,,,,,,,,,,,,,291.15424240007997,None,left,1,0.958718299982138,291.6564058000222,293.0249936999753,291.6564058000222,292.5231855000602,291.6564058000222,292.5231855000602,291.6564058000222,292.5231855000602,291.6564058000222,292.5231855000602,291.6564058000222,292.5231855000602,292.5066963999998,293.00812030001543,292.5066963999998,293.00812030001543,292.5066963999998,293.00812030001543,292.5066963999998,293.00812030001543,292.5066963999998,293.00812030001543,292.5066963999998,293.00812030001543,292.5066963999998,293.00812030001543,292.5066963999998,293.00812030001543,291.6564058000222,None,293.00812030001543,None,0.8600000000000005,294.65950619999785,None,295.41090540005825,None,,,,,,,[[1.64]],3.0100000000000025,0.6666666666666666,12005,001,2024_Jun_13_1559,MFTM_A_new1021,2021.2.3,59.75736122728947,
,,,,,,,,stim/Instruction_adaptive.png,conditions/adaptive.xlsx,test,-0.6,-0.6,-0.6,0.6,0.6,left,L,,,,,0,1,1,1,0,45,45,53,,,,,,,,,,,,,,,,,,,,,,,,,,,,,,,,,,,,,,,,,,,,295.91178510000464,None,right,0,1.3067120000487193,296.41249170002993,297.74866979999933,296.41249170002993,297.2302951000165,296.41249170002993,297.2302951000165,296.41249170002993,297.2302951000165,296.41249170002993,297.2302951000165,296.41249170002993,297.2302951000165,297.21492609998677,297.71442089998163,297.21492609998677,297.71442089998163,297.21492609998677,297.71442089998163,297.21492609998677,297.71442089998163,297.21492609998677,297.71442089998163,297.21492609998677,297.71442089998163,297.21492609998677,297.71442089998163,297.21492609998677,297.71442089998163,296.41249170002993,None,297.71442089998163,299.401199700078,0.8200000000000005,299.41626960004214,None,300.168090900057,None,,,,,,,[[1.68]],2.780000000000002,0.6521739130434783,12005,001,2024_Jun_13_1559,MFTM_A_new1021,2021.2.3,59.75736122728947,
,,,,,,,,stim/Instruction_adaptive.png,conditions/adaptive.xlsx,test,-0.6,-0.6,-0.6,0.6,0.6,left,L,,,,,0,1,1,1,0,46,46,95,,,,,,,,,,,,,,,,,,,,,,,,,,,,,,,,,,,,,,,,,,,,300.668952899985,None,right,0,1.4459455999312922,301.16955850005616,302.6385210000444,301.16955850005616,302.13790750002954,301.16955850005616,302.13790750002954,301.16955850005616,302.13790750002954,301.16955850005616,302.13790750002954,301.16955850005616,302.13790750002954,302.12098290002905,302.62265839998145,302.12098290002905,302.62265839998145,302.12098290002905,302.62265839998145,302.12098290002905,302.62265839998145,302.12098290002905,302.62265839998145,302.12098290002905,302.62265839998145,302.12098290002905,302.62265839998145,302.12098290002905,302.62265839998145,301.16955850005616,None,302.62265839998145,None,0.9600000000000006,304.1740701000672,None,304.9263952000765,None,,,,,,,[[1.54]],2.520000000000002,0.6382978723404256,12005,001,2024_Jun_13_1559,MFTM_A_new1021,2021.2.3,59.75736122728947,
,,,,,,,,stim/Instruction_adaptive.png,conditions/adaptive.xlsx,test,0.6,0.6,0.6,-0.6,-0.6,right,R,,,,,0,1,1,1,0,47,47,32,,,,,,,,,,,,,,,,,,,,,,,,,,,,,,,,,,,,,,,,,,,,305.4259438000154,None,right,1,1.528769800090231,305.92672260000836,307.57919630000833,305.92672260000836,307.07901069999207,305.92672260000836,307.07901069999207,305.92672260000836,307.07901069999207,305.92672260000836,307.07901069999207,305.92672260000836,307.07901069999207,307.062929000007,307.56258500006516,307.062929000007,307.56258500006516,307.062929000007,307.56258500006516,307.062929000007,307.56258500006516,307.062929000007,307.56258500006516,307.062929000007,307.56258500006516,307.062929000007,307.56258500006516,307.062929000007,307.56258500006516,305.92672260000836,None,307.56258500006516,308.9152811000822,1.1500000000000008,308.9307219000766,None,309.6822998999851,None,,,,,,,[[1.35]],2.620000000000002,0.6458333333333334,12005,001,2024_Jun_13_1559,MFTM_A_new1021,2021.2.3,59.75736122728947,
,,,,,,,,stim/Instruction_adaptive.png,conditions/adaptive.xlsx,test,-0.6,-0.6,-0.6,0.6,0.6,left,L,,,,,0,1,1,1,0,48,48,63,,,,,,,,,,,,,,,,,,,,,,,,,,,,,,,,,,,,,,,,,,,,310.18329319998156,None,left,1,1.1716468000086024,310.68398299999535,312.2704974000808,310.68398299999535,311.76969590003137,310.68398299999535,311.76969590003137,310.68398299999535,311.76969590003137,310.68398299999535,311.76969590003137,310.68398299999535,311.76969590003137,311.73558490001597,312.23612620006315,311.73558490001597,312.23612620006315,311.73558490001597,312.23612620006315,311.73558490001597,312.23612620006315,311.73558490001597,312.23612620006315,311.73558490001597,312.23612620006315,311.73558490001597,312.23612620006315,311.73558490001597,312.23612620006315,310.68398299999535,None,312.23612620006315,313.67169430002104,1.0700000000000007,313.68841910001356,None,314.4405302000232,None,,,,,,,[[1.43]],2.700000000000002,0.6530612244897959,12005,001,2024_Jun_13_1559,MFTM_A_new1021,2021.2.3,59.75736122728947,
,,,,,,,,stim/Instruction_adaptive.png,conditions/adaptive.xlsx,test,-0.6,-0.6,-0.6,0.6,0.6,left,L,,,,,0,1,1,1,0,49,49,93,,,,,,,,,,,,,,,,,,,,,,,,,,,,,,,,,,,,,,,,,,,,314.940455700038,None,left,1,0.957973700016737,315.4417853000341,316.9602697000373,315.4417853000341,316.45922509999946,315.4417853000341,316.45922509999946,315.4417853000341,316.45922509999946,315.4417853000341,316.45922509999946,315.4417853000341,316.45922509999946,316.44284799997695,316.9439716000343,316.44284799997695,316.9439716000343,316.44284799997695,316.9439716000343,316.44284799997695,316.9439716000343,316.44284799997695,316.9439716000343,316.44284799997695,316.9439716000343,316.44284799997695,316.9439716000343,316.44284799997695,316.9439716000343,315.4417853000341,None,316.9439716000343,None,1.0100000000000007,318.44581170007586,None,319.1971169000026,None,,,,,,,[[1.49]],2.780000000000002,0.66,12005,001,2024_Jun_13_1559,MFTM_A_new1021,2021.2.3,59.75736122728947,
,,,,,,,,stim/Instruction_adaptive.png,conditions/adaptive.xlsx,test,0.6,0.6,0.6,-0.6,-0.6,right,R,,,,,0,1,1,1,0,50,50,64,,,,,,,,,,,,,,,,,,,,,,,,,,,,,,,,,,,,,,,,,,,,319.69804920000024,None,right,1,1.177324099931866,320.19844120007474,321.6671442000661,320.19844120007474,321.1668862000806,320.19844120007474,321.1668862000806,320.19844120007474,321.1668862000806,320.19844120007474,321.1668862000806,320.19844120007474,321.1668862000806,321.15069090004545,321.6504634000594,321.15069090004545,321.6504634000594,321.15069090004545,321.6504634000594,321.15069090004545,321.6504634000594,321.15069090004545,321.6504634000594,321.15069090004545,321.6504634000594,321.15069090004545,321.6504634000594,321.15069090004545,321.6504634000594,320.19844120007474,None,321.6504634000594,None,0.9600000000000006,323.2027983000735,None,323.95483709999826,None,,,,,,,[[1.54]],2.8500000000000023,0.6666666666666666,12005,001,2024_Jun_13_1559,MFTM_A_new1021,2021.2.3,59.75736122728947,
,,,,,,,,stim/Instruction_adaptive.png,conditions/adaptive.xlsx,test,-0.6,-0.6,-0.6,0.6,0.6,left,L,,,,,0,1,1,1,0,51,51,91,,,,,,,,,,,,,,,,,,,,,,,,,,,,,,,,,,,,,,,,,,,,324.45463870000094,None,right,0,1.228560300078243,324.9554940999951,326.3751370999962,324.9554940999951,325.8735874000704,324.9554940999951,325.8735874000704,324.9554940999951,325.8735874000704,324.9554940999951,325.8735874000704,324.9554940999951,325.8735874000704,325.839913600008,326.3422781000845,325.839913600008,326.3422781000845,325.839913600008,326.3422781000845,325.839913600008,326.3422781000845,325.839913600008,326.3422781000845,325.839913600008,326.3422781000845,325.839913600008,326.3422781000845,325.839913600008,326.3422781000845,324.9554940999951,None,326.3422781000845,327.94509010005277,0.9100000000000006,327.9597934000194,None,328.7112602000125,None,,,,,,,[[1.59]],2.650000000000002,0.6538461538461539,12005,001,2024_Jun_13_1559,MFTM_A_new1021,2021.2.3,59.75736122728947,
,,,,,,,,stim/Instruction_adaptive.png,conditions/adaptive.xlsx,test,-0.6,-0.6,-0.6,0.6,0.6,left,L,,,,,0,1,1,1,0,52,52,33,,,,,,,,,,,,,,,,,,,,,,,,,,,,,,,,,,,,,,,,,,,,329.21279510005843,None,left,1,1.1358256000094116,329.7126278000651,331.2650837000692,329.7126278000651,330.764305000077,329.7126278000651,330.764305000077,329.7126278000651,330.764305000077,329.7126278000651,330.764305000077,329.7126278000651,330.764305000077,330.7475831999909,331.2488433000399,330.7475831999909,331.2488433000399,330.7475831999909,331.2488433000399,330.7475831999909,331.2488433000399,330.7475831999909,331.2488433000399,330.7475831999909,331.2488433000399,330.7475831999909,331.2488433000399,330.7475831999909,331.2488433000399,329.7126278000651,None,331.2488433000399,332.70051380002405,1.0500000000000007,332.7171601000009,None,333.4692180000711,None,,,,,,,[[1.45]],2.720000000000002,0.660377358490566,12005,001,2024_Jun_13_1559,MFTM_A_new1021,2021.2.3,59.75736122728947,
,,,,,,,,stim/Instruction_adaptive.png,conditions/adaptive.xlsx,test,0.6,0.6,0.6,-0.6,-0.6,right,R,,,,,0,1,1,1,0,53,53,30,,,,,,,,,,,,,,,,,,,,,,,,,,,,,,,,,,,,,,,,,,,,333.9692444000393,None,left,0,0.8031382999615744,334.46961690008175,335.9722400000319,334.46961690008175,335.4714734000154,334.46961690008175,335.4714734000154,334.46961690008175,335.4714734000154,334.46961690008175,335.4714734000154,334.46961690008175,335.4714734000154,335.45463759999257,335.95556849997956,335.45463759999257,335.95556849997956,335.45463759999257,335.95556849997956,335.45463759999257,335.95556849997956,335.45463759999257,335.95556849997956,335.45463759999257,335.95556849997956,335.45463759999257,335.95556849997956,335.45463759999257,335.95556849997956,334.46961690008175,None,335.95556849997956,337.4578871000558,1.0000000000000007,337.47432160004973,None,338.2263174999971,None,,,,,,,[[1.5]],2.520000000000002,0.6481481481481481,12005,001,2024_Jun_13_1559,MFTM_A_new1021,2021.2.3,59.75736122728947,
,,,,,,,,stim/Instruction_adaptive.png,conditions/adaptive.xlsx,test,-0.6,-0.6,-0.6,0.6,0.6,left,L,,,,,0,1,1,1,0,54,54,97,,,,,,,,,,,,,,,,,,,,,,,,,,,,,,,,,,,,,,,,,,,,338.7263713000575,None,right,0,1.9087202999508008,339.2277905000374,340.88165950006805,339.2277905000374,340.3786198999733,339.2277905000374,340.3786198999733,339.2277905000374,340.3786198999733,339.2277905000374,340.3786198999733,339.2277905000374,340.3786198999733,340.3620864000404,340.8627938000718,340.3620864000404,340.8627938000718,340.3620864000404,340.8627938000718,340.3620864000404,340.8627938000718,340.3620864000404,340.8627938000718,340.3620864000404,340.8627938000718,340.3620864000404,340.8627938000718,340.3620864000404,340.8627938000718,339.2277905000374,None,340.8627938000718,342.21488920005504,1.1500000000000008,342.23220359999686,None,342.98347990005277,None,,,,,,,[[1.35]],2.2700000000000014,0.6363636363636364,12005,001,2024_Jun_13_1559,MFTM_A_new1021,2021.2.3,59.75736122728947,
,,,,,,,,stim/Instruction_adaptive.png,conditions/adaptive.xlsx,test,-0.6,-0.6,-0.6,0.6,0.6,left,L,,,,,0,1,1,1,0,55,55,83,,,,,,,,,,,,,,,,,,,,,,,,,,,,,,,,,,,,,,,,,,,,343.48361080000177,None,left,1,1.8080842999042943,343.98491560004186,345.85460389999207,343.98491560004186,345.35326690005604,343.98491560004186,345.35326690005604,343.98491560004186,345.35326690005604,343.98491560004186,345.35326690005604,343.98491560004186,345.35326690005604,345.31964560004417,345.8206598000834,345.31964560004417,345.8206598000834,345.31964560004417,345.8206598000834,345.31964560004417,345.8206598000834,345.31964560004417,345.8206598000834,345.31964560004417,345.8206598000834,345.31964560004417,345.8206598000834,345.31964560004417,345.8206598000834,343.98491560004186,None,345.8206598000834,346.9724008999765,1.360000000000001,346.98891840002034,None,347.74087380000856,None,,,,,,,[[1.14]],2.3600000000000017,0.6428571428571429,12005,001,2024_Jun_13_1559,MFTM_A_new1021,2021.2.3,59.75736122728947,
,,,,,,,,stim/Instruction_adaptive.png,conditions/adaptive.xlsx,test,-0.6,-0.6,-0.6,0.6,0.6,left,L,,,,,0,1,1,1,0,56,56,35,,,,,,,,,,,,,,,,,,,,,,,,,,,,,,,,,,,,,,,,,,,,348.24153020000085,None,left,1,0.7237184999976307,348.7414139000466,350.5274902000092,348.7414139000466,350.027105199988,348.7414139000466,350.027105199988,348.7414139000466,350.027105199988,348.7414139000466,350.027105199988,348.7414139000466,350.027105199988,350.0100533000659,350.51062910002656,350.0100533000659,350.51062910002656,350.0100533000659,350.51062910002656,350.0100533000659,350.51062910002656,350.0100533000659,350.51062910002656,350.0100533000659,350.51062910002656,350.0100533000659,350.51062910002656,350.0100533000659,350.51062910002656,348.7414139000466,None,350.51062910002656,None,1.280000000000001,351.74583879997954,None,352.49706900003366,None,,,,,,,[[1.22]],2.4400000000000017,0.6491228070175439,12005,001,2024_Jun_13_1559,MFTM_A_new1021,2021.2.3,59.75736122728947,
,,,,,,,,stim/Instruction_adaptive.png,conditions/adaptive.xlsx,test,0.6,0.6,0.6,-0.6,-0.6,right,R,,,,,0,1,1,1,0,57,57,62,,,,,,,,,,,,,,,,,,,,,,,,,,,,,,,,,,,,,,,,,,,,352.99869020003825,None,right,1,0.796916100080125,353.4999265000224,355.2181091000093,353.4999265000224,354.7169887999771,353.4999265000224,354.7169887999771,353.4999265000224,354.7169887999771,353.4999265000224,354.7169887999771,353.4999265000224,354.7169887999771,354.68379649997223,355.1843818000052,354.68379649997223,355.1843818000052,354.68379649997223,355.1843818000052,354.68379649997223,355.1843818000052,354.68379649997223,355.1843818000052,354.68379649997223,355.1843818000052,354.68379649997223,355.1843818000052,354.68379649997223,355.1843818000052,353.4999265000224,None,355.1843818000052,356.48637709999457,1.2100000000000009,356.50309220002964,None,357.2555230000289,None,,,,,,,[[1.29]],2.520000000000002,0.6551724137931034,12005,001,2024_Jun_13_1559,MFTM_A_new1021,2021.2.3,59.75736122728947,
,,,,,,,,stim/Instruction_adaptive.png,conditions/adaptive.xlsx,test,0.6,0.6,0.6,-0.6,-0.6,right,R,,,,,0,1,1,1,0,58,58,90,,,,,,,,,,,,,,,,,,,,,,,,,,,,,,,,,,,,,,,,,,,,357.7554772000294,None,right,1,1.1774041000753641,358.25577879999764,359.9090486000059,358.25577879999764,359.4073680000147,358.25577879999764,359.4073680000147,358.25577879999764,359.4073680000147,358.25577879999764,359.4073680000147,358.25577879999764,359.4073680000147,359.3907136999769,359.8915323000401,359.3907136999769,359.8915323000401,359.3907136999769,359.8915323000401,359.3907136999769,359.8915323000401,359.3907136999769,359.8915323000401,359.3907136999769,359.8915323000401,359.3907136999769,359.8915323000401,359.3907136999769,359.8915323000401,358.25577879999764,None,359.8915323000401,361.2432429000037,1.1500000000000008,361.26016629999503,None,362.0118447999703,None,,,,,,,[[1.35]],2.580000000000002,0.6610169491525424,12005,001,2024_Jun_13_1559,MFTM_A_new1021,2021.2.3,59.75736122728947,
,,,,,,,,stim/Instruction_adaptive.png,conditions/adaptive.xlsx,test,-0.6,-0.6,-0.6,0.6,0.6,left,L,,,,,0,1,1,1,0,59,59,67,,,,,,,,,,,,,,,,,,,,,,,,,,,,,,,,,,,,,,,,,,,,362.5129257000517,None,left,1,0.5636594999814406,363.0136872000294,364.61516490008216,363.0136872000294,364.11456750007346,363.0136872000294,364.11456750007346,363.0136872000294,364.11456750007346,363.0136872000294,364.11456750007346,363.0136872000294,364.11456750007346,364.09797510004137,364.59881650004536,364.09797510004137,364.59881650004536,364.09797510004137,364.59881650004536,364.09797510004137,364.59881650004536,364.09797510004137,364.59881650004536,364.09797510004137,364.59881650004536,364.09797510004137,364.59881650004536,364.09797510004137,364.59881650004536,363.0136872000294,None,364.59881650004536,366.00068709999323,1.1000000000000008,366.0174032000359,None,366.76852749998216,None,,,,,,,[[1.4]],2.640000000000002,0.6666666666666666,12005,001,2024_Jun_13_1559,MFTM_A_new1021,2021.2.3,59.75736122728947,
,,,,,,,,stim/Instruction_adaptive.png,conditions/adaptive.xlsx,test,0.6,0.6,0.6,-0.6,-0.6,right,R,,,,,0,1,1,1,0,60,60,70,,,,,,,,,,,,,,,,,,,,,,,,,,,,,,,,,,,,,,,,,,,,367.27013189997524,None,left,0,0.7510742000304163,367.77005709998775,369.33961050002836,367.77005709998775,368.83913500001654,367.77005709998775,368.83913500001654,367.77005709998775,368.83913500001654,367.77005709998775,368.83913500001654,367.77005709998775,368.83913500001654,368.80629740003496,369.3063691999996,368.80629740003496,369.3063691999996,368.80629740003496,369.3063691999996,368.80629740003496,369.3063691999996,368.80629740003496,369.3063691999996,368.80629740003496,369.3063691999996,368.80629740003496,369.3063691999996,368.80629740003496,369.3063691999996,367.77005709998775,None,369.3063691999996,370.7582717000041,1.0600000000000007,370.7744219000451,None,371.52555820008274,None,,,,,,,[[1.44]],2.4700000000000015,0.6557377049180327,12005,001,2024_Jun_13_1559,MFTM_A_new1021,2021.2.3,59.75736122728947,
,,,,,,,,stim/Instruction_adaptive.png,conditions/adaptive.xlsx,test,0.6,0.6,0.6,-0.6,-0.6,right,R,,,,,0,1,1,1,0,61,61,42,,,,,,,,,,,,,,,,,,,,,,,,,,,,,,,,,,,,,,,,,,,,372.027892800048,None,right,1,0.4741827000398189,372.5272250000853,374.2298553000437,372.5272250000853,373.72977239999454,372.5272250000853,373.72977239999454,372.5272250000853,373.72977239999454,372.5272250000853,373.72977239999454,372.5272250000853,373.72977239999454,373.6960522000445,374.19641920004506,373.6960522000445,374.19641920004506,373.6960522000445,374.19641920004506,373.6960522000445,374.19641920004506,373.6960522000445,374.19641920004506,373.6960522000445,374.19641920004506,373.6960522000445,374.19641920004506,373.6960522000445,374.19641920004506,372.5272250000853,None,374.19641920004506,375.51511420006864,1.1900000000000008,375.53141619998496,None,376.284365599975,None,,,,,,,[[1.31]],2.530000000000002,0.6612903225806451,12005,001,2024_Jun_13_1559,MFTM_A_new1021,2021.2.3,59.75736122728947,
,,,,,,,,stim/Instruction_adaptive.png,conditions/adaptive.xlsx,test,0.6,0.6,0.6,-0.6,-0.6,right,R,,,,,0,1,1,1,0,62,62,6,,,,,,,,,,,,,,,,,,,,,,,,,,,,,,,,,,,,,,,,,,,,376.7839671000838,None,right,1,0.8048373999772593,377.2844093000749,378.93683680007234,377.2844093000749,378.43621090007946,377.2844093000749,378.43621090007946,377.2844093000749,378.43621090007946,377.2844093000749,378.43621090007946,377.2844093000749,378.43621090007946,378.40281560004223,378.90355320007075,378.40281560004223,378.90355320007075,378.40281560004223,378.90355320007075,378.40281560004223,378.90355320007075,378.40281560004223,378.90355320007075,378.40281560004223,378.90355320007075,378.40281560004223,378.90355320007075,378.40281560004223,378.90355320007075,377.2844093000749,None,378.90355320007075,380.27307850006036,1.1400000000000008,380.290339600062,None,381.0399765999755,None,,,,,,,[[1.36]],2.5900000000000016,0.6666666666666666,12005,001,2024_Jun_13_1559,MFTM_A_new1021,2021.2.3,59.75736122728947,
,,,,,,,,stim/Instruction_adaptive.png,conditions/adaptive.xlsx,test,-0.6,-0.6,-0.6,0.6,0.6,left,L,,,,,0,1,1,1,0,63,63,5,,,,,,,,,,,,,,,,,,,,,,,,,,,,,,,,,,,,,,,,,,,,381.54161090007983,None,right,0,1.2315482000121847,382.0420122999931,383.64327450003475,382.0420122999931,383.1432042000815,382.0420122999931,383.1432042000815,382.0420122999931,383.1432042000815,382.0420122999931,383.1432042000815,382.0420122999931,383.1432042000815,383.10973929998,383.6121579000028,383.10973929998,383.6121579000028,383.10973929998,383.6121579000028,383.10973929998,383.6121579000028,383.10973929998,383.6121579000028,383.10973929998,383.6121579000028,383.10973929998,383.6121579000028,383.10973929998,383.6121579000028,382.0420122999931,None,383.6121579000028,385.0300607000245,1.0900000000000007,385.04597840004135,None,385.7969764000736,None,,,,,,,[[1.41]],2.4200000000000017,0.65625,12005,001,2024_Jun_13_1559,MFTM_A_new1021,2021.2.3,59.75736122728947,
,,,,,,,,stim/Instruction_adaptive.png,conditions/adaptive.xlsx,test,-0.6,-0.6,-0.6,0.6,0.6,left,L,,,,,0,1,1,1,0,64,64,31,,,,,,,,,,,,,,,,,,,,,,,,,,,,,,,,,,,,,,,,,,,,386.2980760000646,None,left,1,1.4111544999759644,386.79878070007544,388.5351038000081,386.79878070007544,388.0348432000028,386.79878070007544,388.0348432000028,386.79878070007544,388.0348432000028,386.79878070007544,388.0348432000028,386.79878070007544,388.0348432000028,388.0178835000843,388.5179688000353,388.0178835000843,388.5179688000353,388.0178835000843,388.5179688000353,388.0178835000843,388.5179688000353,388.0178835000843,388.5179688000353,388.0178835000843,388.5179688000353,388.0178835000843,388.5179688000353,388.0178835000843,388.5179688000353,386.79878070007544,None,388.5179688000353,389.7870832000626,1.2300000000000009,389.80325970007107,None,390.5550093000056,None,,,,,,,[[1.27]],2.4800000000000018,0.6615384615384615,12005,001,2024_Jun_13_1559,MFTM_A_new1021,2021.2.3,59.75736122728947,
,,,,,,,,stim/Instruction_adaptive.png,conditions/adaptive.xlsx,test,-0.6,-0.6,-0.6,0.6,0.6,left,L,,,,,0,1,1,1,0,65,65,23,,,,,,,,,,,,,,,,,,,,,,,,,,,,,,,,,,,,,,,,,,,,391.05503120005596,None,left,1,1.2528190000448376,391.5571125000715,393.24195609998424,391.5571125000715,392.7415948000271,391.5571125000715,392.7415948000271,391.5571125000715,392.7415948000271,391.5571125000715,392.7415948000271,391.5571125000715,392.7415948000271,392.72435370006133,393.2253489000723,392.72435370006133,393.2253489000723,392.72435370006133,393.2253489000723,392.72435370006133,393.2253489000723,392.72435370006133,393.2253489000723,392.72435370006133,393.2253489000723,392.72435370006133,393.2253489000723,392.72435370006133,393.2253489000723,391.5571125000715,None,393.2253489000723,None,1.1800000000000008,394.56033640005626,None,395.31168050004635,None,,,,,,,[[1.32]],2.540000000000002,0.6666666666666666,12005,001,2024_Jun_13_1559,MFTM_A_new1021,2021.2.3,59.75736122728947,
,,,,,,,,stim/Instruction_adaptive.png,conditions/adaptive.xlsx,test,-0.6,-0.6,-0.6,0.6,0.6,left,L,,,,,0,1,1,1,0,66,66,49,,,,,,,,,,,,,,,,,,,,,,,,,,,,,,,,,,,,,,,,,,,,395.8122991999844,None,left,1,0.8652108999667689,396.312921200064,397.94992649997585,396.312921200064,397.4489038999891,396.312921200064,397.4489038999891,396.312921200064,397.4489038999891,396.312921200064,397.4489038999891,396.312921200064,397.4489038999891,397.4321481999941,397.9331314000301,397.4321481999941,397.9331314000301,397.4321481999941,397.9331314000301,397.4321481999941,397.9331314000301,397.4321481999941,397.9331314000301,397.4321481999941,397.9331314000301,397.4321481999941,397.9331314000301,397.4321481999941,397.9331314000301,396.312921200064,None,397.9331314000301,None,1.1300000000000008,399.3176107000327,None,400.0688500000397,None,,,,,,,[[1.37]],2.5900000000000016,0.6716417910447762,12005,001,2024_Jun_13_1559,MFTM_A_new1021,2021.2.3,59.75736122728947,
,,,,,,,,stim/Instruction_adaptive.png,conditions/adaptive.xlsx,test,-0.6,-0.6,-0.6,0.6,0.6,left,L,,,,,0,1,1,1,0,67,67,57,,,,,,,,,,,,,,,,,,,,,,,,,,,,,,,,,,,,,,,,,,,,400.5696106000105,None,left,1,0.57165299996268,401.07028340001125,402.67316310002934,401.07028340001125,402.17271700000856,401.07028340001125,402.17271700000856,401.07028340001125,402.17271700000856,401.07028340001125,402.17271700000856,401.07028340001125,402.17271700000856,402.138494700077,402.6402780000353,402.138494700077,402.6402780000353,402.138494700077,402.6402780000353,402.138494700077,402.6402780000353,402.138494700077,402.6402780000353,402.138494700077,402.6402780000353,402.138494700077,402.6402780000353,402.138494700077,402.6402780000353,401.07028340001125,None,402.6402780000353,404.0581198000582,1.0900000000000007,404.07474930002354,None,404.8259036000818,None,,,,,,,[[1.41]],2.640000000000002,0.6764705882352942,12005,001,2024_Jun_13_1559,MFTM_A_new1021,2021.2.3,59.75736122728947,
,,,,,,,,stim/Instruction_adaptive.png,conditions/adaptive.xlsx,test,-0.6,-0.6,-0.6,0.6,0.6,left,L,,,,,0,1,1,1,0,68,68,7,,,,,,,,,,,,,,,,,,,,,,,,,,,,,,,,,,,,,,,,,,,,405.32671040005516,None,left,1,1.37422749993857,405.8284471000079,407.3973199999891,405.8284471000079,406.89561110001523,405.8284471000079,406.89561110001523,405.8284471000079,406.89561110001523,405.8284471000079,406.89561110001523,405.8284471000079,406.89561110001523,406.86239270004444,407.3637506000232,406.86239270004444,407.3637506000232,406.86239270004444,407.3637506000232,406.86239270004444,407.3637506000232,406.86239270004444,407.3637506000232,406.86239270004444,407.3637506000232,406.86239270004444,407.3637506000232,406.86239270004444,407.3637506000232,405.8284471000079,None,407.3637506000232,408.8155573999975,1.0600000000000007,408.83255070005544,None,409.5837378000142,None,,,,,,,[[1.44]],2.680000000000002,0.6811594202898551,12005,001,2024_Jun_13_1559,MFTM_A_new1021,2021.2.3,59.75736122728947,
,,,,,,,,stim/Instruction_adaptive.png,conditions/adaptive.xlsx,test,0.6,0.6,0.6,-0.6,-0.6,right,R,,,,,0,1,1,1,0,69,69,78,,,,,,,,,,,,,,,,,,,,,,,,,,,,,,,,,,,,,,,,,,,,410.0837376000127,None,right,1,0.8340940000489354,410.58457569999155,412.1210632000584,410.58457569999155,411.61951310001314,410.58457569999155,411.61951310001314,410.58457569999155,411.61951310001314,410.58457569999155,411.61951310001314,410.58457569999155,411.61951310001314,411.60269379999954,412.10435380006675,411.60269379999954,412.10435380006675,411.60269379999954,412.10435380006675,411.60269379999954,412.10435380006675,411.60269379999954,412.10435380006675,411.60269379999954,412.10435380006675,411.60269379999954,412.10435380006675,411.60269379999954,412.10435380006675,410.58457569999155,None,412.10435380006675,None,1.0300000000000007,413.5890556999948,None,414.3401072000852,None,,,,,,,[[1.47]],2.730000000000002,0.6857142857142857,12005,001,2024_Jun_13_1559,MFTM_A_new1021,2021.2.3,59.75736122728947,
,,,,,,,,stim/Instruction_adaptive.png,conditions/adaptive.xlsx,test,0.6,0.6,0.6,-0.6,-0.6,right,R,,,,,0,1,1,1,0,70,70,48,,,,,,,,,,,,,,,,,,,,,,,,,,,,,,,,,,,,,,,,,,,,414.84095300000627,None,right,1,1.3254280000692233,415.3415984000312,416.8452100000577,415.3415984000312,416.3434713999741,415.3415984000312,416.3434713999741,415.3415984000312,416.3434713999741,415.3415984000312,416.3434713999741,415.3415984000312,416.3434713999741,416.3099334000144,416.8105598000111,416.3099334000144,416.8105598000111,416.3099334000144,416.8105598000111,416.3099334000144,416.8105598000111,416.3099334000144,416.8105598000111,416.3099334000144,416.8105598000111,416.3099334000144,416.8105598000111,416.3099334000144,416.8105598000111,415.3415984000312,None,416.8105598000111,418.32952560007107,0.9900000000000007,418.3463041000068,None,419.09830110007897,None,,,,,,,[[1.51]],2.7700000000000022,0.6901408450704225,12005,001,2024_Jun_13_1559,MFTM_A_new1021,2021.2.3,59.75736122728947,
,,,,,,,,stim/Instruction_adaptive.png,conditions/adaptive.xlsx,test,-0.6,-0.6,-0.6,0.6,0.6,left,L,,,,,0,1,1,1,0,71,71,1,,,,,,,,,,,,,,,,,,,,,,,,,,,,,,,,,,,,,,,,,,,,419.5994681000011,None,right,0,1.2476248000748456,420.09926950000226,421.5675885999808,420.09926950000226,421.0674199999776,420.09926950000226,421.0674199999776,420.09926950000226,421.0674199999776,420.09926950000226,421.0674199999776,420.09926950000226,421.0674199999776,421.0341803000774,421.53437220002525,421.0341803000774,421.53437220002525,421.0341803000774,421.53437220002525,421.0341803000774,421.53437220002525,421.0341803000774,421.53437220002525,421.0341803000774,421.53437220002525,421.0341803000774,421.53437220002525,421.0341803000774,421.53437220002525,420.09926950000226,None,421.53437220002525,423.08784489997197,0.9600000000000006,423.1029946000781,None,423.85594160004985,None,,,,,,,[[1.54]],2.650000000000002,0.6805555555555556,12005,001,2024_Jun_13_1559,MFTM_A_new1021,2021.2.3,59.75736122728947,
,,,,,,,,stim/Instruction_adaptive.png,conditions/adaptive.xlsx,test,-0.6,-0.6,-0.6,0.6,0.6,left,L,,,,,0,1,1,1,0,72,72,43,,,,,,,,,,,,,,,,,,,,,,,,,,,,,,,,,,,,,,,,,,,,424.35631439997815,None,left,1,0.9779616999439895,424.8566773000639,426.4083188000368,424.8566773000639,425.9083770000143,424.8566773000639,425.9083770000143,424.8566773000639,425.9083770000143,424.8566773000639,425.9083770000143,424.8566773000639,425.9083770000143,425.89104640006553,426.3917919000378,425.89104640006553,426.3917919000378,425.89104640006553,426.3917919000378,425.89104640006553,426.3917919000378,425.89104640006553,426.3917919000378,425.89104640006553,426.3917919000378,425.89104640006553,426.3917919000378,425.89104640006553,426.3917919000378,424.8566773000639,None,426.3917919000378,427.8454501000233,1.0500000000000007,427.86007499997504,None,428.61170500004664,None,,,,,,,[[1.45]],2.690000000000002,0.684931506849315,12005,001,2024_Jun_13_1559,MFTM_A_new1021,2021.2.3,59.75736122728947,
,,,,,,,,stim/Instruction_adaptive.png,conditions/adaptive.xlsx,test,-0.6,-0.6,-0.6,0.6,0.6,left,L,,,,,0,1,1,1,0,73,73,45,,,,,,,,,,,,,,,,,,,,,,,,,,,,,,,,,,,,,,,,,,,,429.11247519997414,None,left,1,1.1653891999740154,429.6138971999753,431.14990980003495,429.6138971999753,430.648142100079,429.6138971999753,430.648142100079,429.6138971999753,430.648142100079,429.6138971999753,430.648142100079,429.6138971999753,430.648142100079,430.6148309999844,431.1155634999741,430.6148309999844,431.1155634999741,430.6148309999844,431.1155634999741,430.6148309999844,431.1155634999741,430.6148309999844,431.1155634999741,430.6148309999844,431.1155634999741,430.6148309999844,431.1155634999741,430.6148309999844,431.1155634999741,429.6138971999753,None,431.1155634999741,432.6030512000434,1.0200000000000007,432.6179617000744,None,433.36944010003936,None,,,,,,,[[1.48]],2.730000000000002,0.6891891891891891,12005,001,2024_Jun_13_1559,MFTM_A_new1021,2021.2.3,59.75736122728947,
,,,,,,,,stim/Instruction_adaptive.png,conditions/adaptive.xlsx,test,0.6,0.6,0.6,-0.6,-0.6,right,R,,,,,0,1,1,1,0,74,74,16,,,,,,,,,,,,,,,,,,,,,,,,,,,,,,,,,,,,,,,,,,,,433.87077390006743,None,right,1,0.6086486000567675,434.37052650004625,435.8735648000147,434.37052650004625,435.37189080007374,434.37052650004625,435.37189080007374,434.37052650004625,435.37189080007374,434.37052650004625,435.37189080007374,434.37052650004625,435.37189080007374,435.3385907000629,435.8393535000505,435.3385907000629,435.8393535000505,435.3385907000629,435.8393535000505,435.3385907000629,435.8393535000505,435.3385907000629,435.8393535000505,435.3385907000629,435.8393535000505,435.3385907000629,435.8393535000505,435.3385907000629,435.8393535000505,434.37052650004625,None,435.8393535000505,437.3585456999717,0.9900000000000007,437.37583010003436,None,438.12722680007573,None,,,,,,,[[1.51]],2.7700000000000022,0.6933333333333334,12005,001,2024_Jun_13_1559,MFTM_A_new1021,2021.2.3,59.75736122728947,
,,,,,,,,stim/Instruction_adaptive.png,conditions/adaptive.xlsx,test,0.6,0.6,0.6,-0.6,-0.6,right,R,,,,,0,1,1,1,0,75,75,36,,,,,,,,,,,,,,,,,,,,,,,,,,,,,,,,,,,,,,,,,,,,438.6267801000504,None,left,0,1.1473958999849856,439.1276435999898,440.59699380001985,439.1276435999898,440.0961662000045,439.1276435999898,440.0961662000045,439.1276435999898,440.0961662000045,439.1276435999898,440.0961662000045,439.1276435999898,440.0961662000045,440.0624175000703,440.5638232000638,440.0624175000703,440.5638232000638,440.0624175000703,440.5638232000638,440.0624175000703,440.5638232000638,440.0624175000703,440.5638232000638,440.0624175000703,440.5638232000638,440.0624175000703,440.5638232000638,440.0624175000703,440.5638232000638,439.1276435999898,None,440.5638232000638,442.1158126000082,0.9600000000000006,442.1315694000805,None,442.8833293999778,None,,,,,,,[[1.54]],2.660000000000002,0.6842105263157895,12005,001,2024_Jun_13_1559,MFTM_A_new1021,2021.2.3,59.75736122728947,
,,,,,,,,stim/Instruction_adaptive.png,conditions/adaptive.xlsx,test,0.6,0.6,0.6,-0.6,-0.6,right,R,,,,,0,1,1,1,0,76,76,8,,,,,,,,,,,,,,,,,,,,,,,,,,,,,,,,,,,,,,,,,,,,443.3840639999835,None,left,0,1.5023635999532416,443.88482779997867,445.43705690000206,443.88482779997867,444.9363512999844,443.88482779997867,444.9363512999844,443.88482779997867,444.9363512999844,443.88482779997867,444.9363512999844,443.88482779997867,444.9363512999844,444.90304010000546,445.40460180002265,444.90304010000546,445.40460180002265,444.90304010000546,445.40460180002265,444.90304010000546,445.40460180002265,444.90304010000546,445.40460180002265,444.90304010000546,445.40460180002265,444.90304010000546,445.40460180002265,444.90304010000546,445.40460180002265,443.88482779997867,None,445.40460180002265,446.8725916000549,1.0400000000000007,446.8893370999722,None,447.64129340008367,None,,,,,,,[[1.46]],2.540000000000002,0.6753246753246753,12005,001,2024_Jun_13_1559,MFTM_A_new1021,2021.2.3,59.75736122728947,
,,,,,,,,stim/Instruction_adaptive.png,conditions/adaptive.xlsx,test,-0.6,-0.6,-0.6,0.6,0.6,left,L,,,,,0,1,1,1,0,77,77,39,,,,,,,,,,,,,,,,,,,,,,,,,,,,,,,,,,,,,,,,,,,,448.1419003000483,None,left,1,1.3932485000696033,448.6421401000116,450.2777036000043,448.6421401000116,449.7770944000222,448.6421401000116,449.7770944000222,448.6421401000116,449.7770944000222,448.6421401000116,449.7770944000222,448.6421401000116,449.7770944000222,449.7603350999998,450.2609677000437,449.7603350999998,450.2609677000437,449.7603350999998,450.2609677000437,449.7603350999998,450.2609677000437,449.7603350999998,450.2609677000437,449.7603350999998,450.2609677000437,449.7603350999998,450.2609677000437,449.7603350999998,450.2609677000437,448.6421401000116,None,450.2609677000437,451.63039790000767,1.1300000000000008,451.64623299997766,None,452.398429700057,None,,,,,,,[[1.37]],2.580000000000002,0.6794871794871795,12005,001,2024_Jun_13_1559,MFTM_A_new1021,2021.2.3,59.75736122728947,
,,,,,,,,stim/Instruction_adaptive.png,conditions/adaptive.xlsx,test,0.6,0.6,0.6,-0.6,-0.6,right,R,,,,,0,1,1,1,0,78,78,60,,,,,,,,,,,,,,,,,,,,,,,,,,,,,,,,,,,,,,,,,,,,452.89845780003816,None,left,0,0.6270022999960929,453.4006973999785,455.0013860000763,453.4006973999785,454.50084720004816,453.4006973999785,454.50084720004816,453.4006973999785,454.50084720004816,453.4006973999785,454.50084720004816,453.4006973999785,454.50084720004816,454.48434560000896,454.984662199975,454.48434560000896,454.984662199975,454.48434560000896,454.984662199975,454.48434560000896,454.984662199975,454.48434560000896,454.984662199975,454.48434560000896,454.984662199975,454.48434560000896,454.984662199975,454.48434560000896,454.984662199975,453.4006973999785,None,454.984662199975,456.3869925000472,1.1000000000000008,456.4036902000662,None,457.1555339000188,None,,,,,,,[[1.4]],2.4600000000000017,0.6708860759493671,12005,001,2024_Jun_13_1559,MFTM_A_new1021,2021.2.3,59.75736122728947,
,,,,,,,,stim/Instruction_adaptive.png,conditions/adaptive.xlsx,test,0.6,0.6,0.6,-0.6,-0.6,right,R,,,,,0,1,1,1,0,79,79,52,,,,,,,,,,,,,,,,,,,,,,,,,,,,,,,,,,,,,,,,,,,,457.6565320000518,None,right,1,0.6626143000321463,458.15691869996954,459.85894150007516,458.15691869996954,459.3593688000692,458.15691869996954,459.3593688000692,458.15691869996954,459.3593688000692,458.15691869996954,459.3593688000692,458.15691869996954,459.3593688000692,459.3422396000242,459.8423635000363,459.3422396000242,459.8423635000363,459.3422396000242,459.8423635000363,459.3422396000242,459.8423635000363,459.3422396000242,459.8423635000363,459.3422396000242,459.8423635000363,459.3422396000242,459.8423635000363,459.3422396000242,459.8423635000363,458.15691869996954,None,459.8423635000363,461.1443295000354,1.2000000000000008,461.1609551999718,None,461.91300749999937,None,,,,,,,[[1.3]],2.5000000000000018,0.675,12005,001,2024_Jun_13_1559,MFTM_A_new1021,2021.2.3,59.75736122728947,
,,,,,,,,stim/Instruction_adaptive.png,conditions/adaptive.xlsx,test,0.6,0.6,0.6,-0.6,-0.6,right,R,,,,,0,1,1,1,0,80,80,34,,,,,,,,,,,,,,,,,,,,,,,,,,,,,,,,,,,,,,,,,,,,462.41339700005483,None,left,0,1.305027800030075,462.9145922000753,464.582700900035,462.9145922000753,464.0821029000217,462.9145922000753,464.0821029000217,462.9145922000753,464.0821029000217,462.9145922000753,464.0821029000217,462.9145922000753,464.0821029000217,464.04921770002693,464.54997519997414,464.04921770002693,464.54997519997414,464.04921770002693,464.54997519997414,464.04921770002693,464.54997519997414,464.04921770002693,464.54997519997414,464.04921770002693,464.54997519997414,464.04921770002693,464.54997519997414,464.04921770002693,464.54997519997414,462.9145922000753,None,464.54997519997414,465.9019614000572,1.1600000000000008,465.9180370999966,None,466.66929900005925,None,,,,,,,[[1.34]],2.3800000000000017,0.6666666666666666,12005,001,2024_Jun_13_1559,MFTM_A_new1021,2021.2.3,59.75736122728947,
,,,,,,,,stim/Instruction_adaptive.png,conditions/adaptive.xlsx,test,-0.6,-0.6,-0.6,0.6,0.6,left,L,,,,,0,1,1,1,0,81,81,27,,,,,,,,,,,,,,,,,,,,,,,,,,,,,,,,,,,,,,,,,,,,467.17043739999644,None,left,1,1.1731016000267118,467.67068990005646,469.4410613999935,467.67068990005646,468.9391893000575,467.67068990005646,468.9391893000575,467.67068990005646,468.9391893000575,467.67068990005646,468.9391893000575,467.67068990005646,468.9391893000575,468.9058647999773,469.4067605000455,468.9058647999773,469.4067605000455,468.9058647999773,469.4067605000455,468.9058647999773,469.4067605000455,468.9058647999773,469.4067605000455,468.9058647999773,469.4067605000455,468.9058647999773,469.4067605000455,468.9058647999773,469.4067605000455,467.67068990005646,None,469.4067605000455,470.65885090001393,1.260000000000001,470.6751902999822,None,471.42636460007634,None,,,,,,,[[1.24]],2.4200000000000017,0.6707317073170732,12005,001,2024_Jun_13_1559,MFTM_A_new1021,2021.2.3,59.75736122728947,
,,,,,,,,stim/Instruction_adaptive.png,conditions/adaptive.xlsx,test,0.6,0.6,0.6,-0.6,-0.6,right,R,,,,,0,1,1,1,0,82,82,86,,,,,,,,,,,,,,,,,,,,,,,,,,,,,,,,,,,,,,,,,,,,471.9277525000507,None,right,1,1.1442226000363007,472.42806639999617,474.16433900000993,472.42806639999617,473.66303080006037,472.42806639999617,473.66303080006037,472.42806639999617,473.66303080006037,472.42806639999617,473.66303080006037,472.42806639999617,473.66303080006037,473.64649640000425,474.14713930001017,473.64649640000425,474.14713930001017,473.64649640000425,474.14713930001017,473.64649640000425,474.14713930001017,473.64649640000425,474.14713930001017,473.64649640000425,474.14713930001017,473.64649640000425,474.14713930001017,473.64649640000425,474.14713930001017,472.42806639999617,None,474.14713930001017,None,1.2300000000000009,475.4324282000307,None,476.183538399986,None,,,,,,,[[1.27]],2.4700000000000015,0.6746987951807228,12005,001,2024_Jun_13_1559,MFTM_A_new1021,2021.2.3,59.75736122728947,
,,,,,,,,stim/Instruction_adaptive.png,conditions/adaptive.xlsx,test,0.6,0.6,0.6,-0.6,-0.6,right,R,,,,,0,1,1,1,0,83,83,18,,,,,,,,,,,,,,,,,,,,,,,,,,,,,,,,,,,,,,,,,,,,476.6842131000012,None,right,1,1.1714798000175506,477.18494419998024,478.8875915000681,477.18494419998024,478.3872566000791,477.18494419998024,478.3872566000791,477.18494419998024,478.3872566000791,477.18494419998024,478.3872566000791,477.18494419998024,478.3872566000791,478.3539211000316,478.85483349999413,478.3539211000316,478.85483349999413,478.3539211000316,478.85483349999413,478.3539211000316,478.85483349999413,478.3539211000316,478.85483349999413,478.3539211000316,478.85483349999413,478.3539211000316,478.85483349999413,478.3539211000316,478.85483349999413,477.18494419998024,None,478.85483349999413,480.17295999999624,1.1900000000000008,480.1902448000619,None,480.94080069998745,None,,,,,,,[[1.31]],2.5000000000000018,0.6785714285714286,12005,001,2024_Jun_13_1559,MFTM_A_new1021,2021.2.3,59.75736122728947,
,,,,,,,,stim/Instruction_adaptive.png,conditions/adaptive.xlsx,test,-0.6,-0.6,-0.6,0.6,0.6,left,L,,,,,0,1,1,1,0,84,84,65,,,,,,,,,,,,,,,,,,,,,,,,,,,,,,,,,,,,,,,,,,,,481.4416463000234,None,right,0,1.6141639000270516,481.9419764999766,483.6111964000156,481.9419764999766,483.1106953000417,481.9419764999766,483.1106953000417,481.9419764999766,483.1106953000417,481.9419764999766,483.1106953000417,481.9419764999766,483.1106953000417,483.0787829000037,483.5781020000577,483.0787829000037,483.5781020000577,483.0787829000037,483.5781020000577,483.0787829000037,483.5781020000577,483.0787829000037,483.5781020000577,483.0787829000037,483.5781020000577,483.0787829000037,483.5781020000577,483.0787829000037,483.5781020000577,481.9419764999766,None,483.5781020000577,484.9300140000414,1.1600000000000008,484.9468639000552,None,485.6979960000608,None,,,,,,,[[1.34]],2.3900000000000015,0.6705882352941176,12005,001,2024_Jun_13_1559,MFTM_A_new1021,2021.2.3,59.75736122728947,
,,,,,,,,stim/Instruction_adaptive.png,conditions/adaptive.xlsx,test,0.6,0.6,0.6,-0.6,-0.6,right,R,,,,,0,1,1,1,0,85,85,68,,,,,,,,,,,,,,,,,,,,,,,,,,,,,,,,,,,,,,,,,,,,486.19980130007025,None,right,1,1.3042973999399692,486.7001765000168,488.4691718000686,486.7001765000168,487.9686554999789,486.7001765000168,487.9686554999789,486.7001765000168,487.9686554999789,486.7001765000168,487.9686554999789,486.7001765000168,487.9686554999789,487.93473800003994,488.43549499998335,487.93473800003994,488.43549499998335,487.93473800003994,488.43549499998335,487.93473800003994,488.43549499998335,487.93473800003994,488.43549499998335,487.93473800003994,488.43549499998335,487.93473800003994,488.43549499998335,487.93473800003994,488.43549499998335,486.7001765000168,None,488.43549499998335,489.6881395999808,1.260000000000001,489.70329850004055,None,490.45498260005843,None,,,,,,,[[1.24]],2.4300000000000015,0.6744186046511628,12005,001,2024_Jun_13_1559,MFTM_A_new1021,2021.2.3,59.75736122728947,
,,,,,,,,stim/Instruction_adaptive.png,conditions/adaptive.xlsx,test,0.6,0.6,0.6,-0.6,-0.6,right,R,,,,,0,1,1,1,0,86,86,28,,,,,,,,,,,,,,,,,,,,,,,,,,,,,,,,,,,,,,,,,,,,490.9557739000302,None,right,1,1.2588421000400558,491.45778609998524,493.1930911000818,491.45778609998524,492.6923084000591,491.45778609998524,492.6923084000591,491.45778609998524,492.6923084000591,491.45778609998524,492.6923084000591,491.45778609998524,492.6923084000591,492.65833320003003,493.15905080002267,492.65833320003003,493.15905080002267,492.65833320003003,493.15905080002267,492.65833320003003,493.15905080002267,492.65833320003003,493.15905080002267,492.65833320003003,493.15905080002267,492.65833320003003,493.15905080002267,492.65833320003003,493.15905080002267,491.45778609998524,None,493.15905080002267,494.44423450005706,1.2200000000000009,494.4623173000291,None,495.21303620003164,None,,,,,,,[[1.28]],2.4700000000000015,0.6781609195402298,12005,001,2024_Jun_13_1559,MFTM_A_new1021,2021.2.3,59.75736122728947,
,,,,,,,,stim/Instruction_adaptive.png,conditions/adaptive.xlsx,test,0.6,0.6,0.6,-0.6,-0.6,right,R,,,,,0,1,1,1,0,87,87,92,,,,,,,,,,,,,,,,,,,,,,,,,,,,,,,,,,,,,,,,,,,,495.7130202000262,None,right,1,1.0072313999990001,496.21349310001824,497.9172253999859,496.21349310001824,497.415801599971,496.21349310001824,497.415801599971,496.21349310001824,497.415801599971,496.21349310001824,497.415801599971,496.21349310001824,497.415801599971,497.3831983000273,497.88395799999125,497.3831983000273,497.88395799999125,497.3831983000273,497.88395799999125,497.3831983000273,497.88395799999125,497.3831983000273,497.88395799999125,497.3831983000273,497.88395799999125,497.3831983000273,497.88395799999125,497.3831983000273,497.88395799999125,496.21349310001824,None,497.88395799999125,499.20258570008446,1.1900000000000008,499.2188907000236,None,499.96935300005134,None,,,,,,,[[1.31]],2.5000000000000018,0.6818181818181818,12005,001,2024_Jun_13_1559,MFTM_A_new1021,2021.2.3,59.75736122728947,
,,,,,,,,stim/Instruction_adaptive.png,conditions/adaptive.xlsx,test,0.6,0.6,0.6,-0.6,-0.6,right,R,,,,,0,1,1,1,0,88,88,12,,,,,,,,,,,,,,,,,,,,,,,,,,,,,,,,,,,,,,,,,,,,500.47105330007616,None,right,1,0.9295527000213042,500.97095550002996,502.63991080003325,500.97095550002996,502.13957370002754,500.97095550002996,502.13957370002754,500.97095550002996,502.13957370002754,500.97095550002996,502.13957370002754,500.97095550002996,502.13957370002754,502.12250320008025,502.6241604000097,502.12250320008025,502.6241604000097,502.12250320008025,502.6241604000097,502.12250320008025,502.6241604000097,502.12250320008025,502.6241604000097,502.12250320008025,502.6241604000097,502.12250320008025,502.6241604000097,502.12250320008025,502.6241604000097,500.97095550002996,None,502.6073379999725,503.9598827000009,1.1600000000000008,503.9749762000283,None,504.72650360001717,None,,,,,,,[[1.34]],2.540000000000002,0.6853932584269663,12005,001,2024_Jun_13_1559,MFTM_A_new1021,2021.2.3,59.75736122728947,
,,,,,,,,stim/Instruction_adaptive.png,conditions/adaptive.xlsx,test,-0.6,-0.6,-0.6,0.6,0.6,left,L,,,,,0,1,1,1,0,89,89,69,,,,,,,,,,,,,,,,,,,,,,,,,,,,,,,,,,,,,,,,,,,,505.2272973000072,None,left,1,1.1405295999720693,505.7288364999695,507.36494990007486,505.7288364999695,506.8630431999918,505.7288364999695,506.8630431999918,505.7288364999695,506.8630431999918,505.7288364999695,506.8630431999918,505.7288364999695,506.8630431999918,506.8464083999861,507.34806860005483,506.8464083999861,507.34806860005483,506.8464083999861,507.34806860005483,506.8464083999861,507.34806860005483,506.8464083999861,507.34806860005483,506.8464083999861,507.34806860005483,506.8464083999861,507.34806860005483,506.8464083999861,507.34806860005483,505.7288364999695,None,507.34806860005483,None,1.1300000000000008,508.7326997000491,None,509.48486179998145,None,,,,,,,[[1.37]],2.570000000000002,0.6888888888888889,12005,001,2024_Jun_13_1559,MFTM_A_new1021,2021.2.3,59.75736122728947,
,,,,,,,,stim/Instruction_adaptive.png,conditions/adaptive.xlsx,test,0.6,0.6,0.6,-0.6,-0.6,right,R,,,,,0,1,1,1,0,90,90,56,,,,,,,,,,,,,,,,,,,,,,,,,,,,,,,,,,,,,,,,,,,,509.9853908000514,None,right,1,1.6155432000523433,510.4854444999946,512.1042485000798,510.4854444999946,511.6045035000425,510.4854444999946,511.6045035000425,510.4854444999946,511.6045035000425,510.4854444999946,511.6045035000425,510.4854444999946,511.6045035000425,511.58749409997836,512.0883646999719,511.58749409997836,512.0883646999719,511.58749409997836,512.0883646999719,511.58749409997836,512.0883646999719,511.58749409997836,512.0883646999719,511.58749409997836,512.0883646999719,511.58749409997836,512.0883646999719,511.58749409997836,512.0883646999719,510.4854444999946,None,512.0715697000269,513.4737473999849,1.1100000000000008,513.4896149000851,None,514.241948000039,None,,,,,,,[[1.39]],2.600000000000002,0.6923076923076923,12005,001,2024_Jun_13_1559,MFTM_A_new1021,2021.2.3,59.75736122728947,
,,,,,,,,stim/Instruction_adaptive.png,conditions/adaptive.xlsx,test,0.6,0.6,0.6,-0.6,-0.6,right,R,,,,,0,1,1,1,0,91,91,84,,,,,,,,,,,,,,,,,,,,,,,,,,,,,,,,,,,,,,,,,,,,514.7424995000474,None,right,1,1.4020802999148145,515.2430846000789,516.8449290000135,515.2430846000789,516.3441805000184,515.2430846000789,516.3441805000184,515.2430846000789,516.3441805000184,515.2430846000789,516.3441805000184,515.2430846000789,516.3441805000184,516.3108669000212,516.8125214000465,516.3108669000212,516.8125214000465,516.3108669000212,516.8125214000465,516.3108669000212,516.8125214000465,516.3108669000212,516.8125214000465,516.3108669000212,516.8125214000465,516.3108669000212,516.8125214000465,516.3108669000212,516.8125214000465,515.2430846000789,None,516.8125214000465,518.2310954000568,1.0900000000000007,518.2467851000838,None,518.9985584000824,None,,,,,,,[[1.41]],2.6300000000000017,0.6956521739130435,12005,001,2024_Jun_13_1559,MFTM_A_new1021,2021.2.3,59.75736122728947,
,,,,,,,,stim/Instruction_adaptive.png,conditions/adaptive.xlsx,test,0.6,0.6,0.6,-0.6,-0.6,right,R,,,,,0,1,1,1,0,92,92,72,,,,,,,,,,,,,,,,,,,,,,,,,,,,,,,,,,,,,,,,,,,,519.4997869000072,None,right,1,0.8457312000682577,519.9995962000685,521.5684696000535,519.9995962000685,521.0685803000815,519.9995962000685,521.0685803000815,519.9995962000685,521.0685803000815,519.9995962000685,521.0685803000815,519.9995962000685,521.0685803000815,521.0520380000817,521.5517881000414,521.0520380000817,521.5517881000414,521.0520380000817,521.5517881000414,521.0520380000817,521.5517881000414,521.0520380000817,521.5517881000414,521.0520380000817,521.5517881000414,521.0520380000817,521.5517881000414,521.0520380000817,521.5517881000414,519.9995962000685,None,521.5517881000414,None,1.0600000000000007,523.0049311000621,None,523.7560216999846,None,,,,,,,[[1.44]],2.660000000000002,0.6989247311827957,12005,001,2024_Jun_13_1559,MFTM_A_new1021,2021.2.3,59.75736122728947,
,,,,,,,,stim/Instruction_adaptive.png,conditions/adaptive.xlsx,test,-0.6,-0.6,-0.6,0.6,0.6,left,L,,,,,0,1,1,1,0,93,93,29,,,,,,,,,,,,,,,,,,,,,,,,,,,,,,,,,,,,,,,,,,,,524.2566363000078,None,right,0,0.6490805000066757,524.7568011999829,526.3098353000823,524.7568011999829,525.8081786000403,524.7568011999829,525.8081786000403,524.7568011999829,525.8081786000403,524.7568011999829,525.8081786000403,524.7568011999829,525.8081786000403,525.77499299997,526.2763042000588,525.77499299997,526.2763042000588,525.77499299997,526.2763042000588,525.77499299997,526.2763042000588,525.77499299997,526.2763042000588,525.77499299997,526.2763042000588,525.77499299997,526.2763042000588,525.77499299997,526.2763042000588,524.7568011999829,None,526.2763042000588,527.7456753000151,1.0400000000000007,527.7609627000056,None,528.5135099000763,None,,,,,,,[[1.46]],2.580000000000002,0.6914893617021277,12005,001,2024_Jun_13_1559,MFTM_A_new1021,2021.2.3,59.75736122728947,
