arrwidth1,arrwidth2,arrwidth3,arrwidth4,arrwidth5,keyb,type,orientation,instruction_image,block_filename,block_type,arrow11,arrow22,arrow33,arrow44,arrow55,keyb_3,orientation3,trials.thisRepN,trials.thisTrialN,trials.thisN,trials.thisIndex,trials_3.thisRepN,trials_3.thisTrialN,trials_3.thisN,trials_3.thisIndex,trials_2.thisRepN,trials_2.thisTrialN,trials_2.thisN,trials_2.thisIndex,welcome.started,welcome.stopped,key_resp.keys,key_resp.rt,key_resp.started,key_resp.stopped,instruction_example.started,instruction_example.stopped,key_resp_3.keys,key_resp_3.rt,key_resp_3.started,key_resp_3.stopped,instruction_task.started,instruction_task.stopped,key_resp_2.keys,key_resp_2.rt,key_resp_2.started,key_resp_2.stopped,text_2.started,text_2.stopped,A1.started,A1.stopped,A2.started,A2.stopped,A3.started,A3.stopped,A4.started,A4.stopped,A5.started,A5.stopped,key_resp_4.keys,key_resp_4.corr,key_resp_4.rt,key_resp_4.started,key_resp_4.stopped,fb.started,fb.stopped,instruction_block.started,instruction_block.stopped,key_resp_8.keys,key_resp_8.rt,key_resp_8.started,key_resp_8.stopped,text_8.started,text_8.stopped,key_resp_9.keys,key_resp_9.corr,key_resp_9.rt,text_5.started,text_5.stopped,A11_3.started,A11_3.stopped,A22_2.started,A22_2.stopped,A33_2.started,A33_2.stopped,A44_2.started,A44_2.stopped,A55_2.started,A55_2.stopped,M1_3.started,M1_3.stopped,M2_2.started,M2_2.stopped,M3_2.started,M3_2.stopped,M4_2.started,M4_2.stopped,M5_2.started,M5_2.stopped,M6_2.started,M6_2.stopped,M7_2.started,M7_2.stopped,M8_2.started,M8_2.stopped,key_resp_9.started,key_resp_9.stopped,fixation.started,fixation.stopped,ET,fb_3.started,fb_3.stopped,text_9.started,text_9.stopped,fb_4.started,fb_4.stopped,text_7.started,text_7.stopped,endtext.started,endtext.stopped,fixation_ITI,CCC,Acc,participant,session,date,expName,psychopyVersion,frameRate,
,,,,,,,,,,,,,,,,,,,,,,,,,,,,,,10.89850240002852,None,space,2.217188800103031,10.89850240002852,None,,,,,,,,,,,,,,,,,,,,,,,,,,,,,,,,,,,,,,,,,,,,,,,,,,,,,,,,,,,,,,,,,,,,,,,,,,,,,,,,,,,,,,,,,12008,001,2024_Jun_14_1702,MFTM_A_new1021,2021.2.3,59.92297499346521,
,,,,,,,,,,,,,,,,,,,,,,,,,,,,,,,,,,,,13.135828000027686,None,space,2.0120287999743596,13.135828000027686,None,,,,,,,,,,,,,,,,,,,,,,,,,,,,,,,,,,,,,,,,,,,,,,,,,,,,,,,,,,,,,,,,,,,,,,,,,,,,,,,,,,,12008,001,2024_Jun_14_1702,MFTM_A_new1021,2021.2.3,59.92297499346521,
,,,,,,,,,,,,,,,,,,,,,,,,,,,,,,,,,,,,,,,,,,15.171958099934272,None,space,6.487459799973294,15.171958099934272,None,,,,,,,,,,,,,,,,,,,,,,,,,,,,,,,,,,,,,,,,,,,,,,,,,,,,,,,,,,,,,,,,,,,,,,,,,,,,,12008,001,2024_Jun_14_1702,MFTM_A_new1021,2021.2.3,59.92297499346521,
-0.6,-0.6,-0.6,0.6,0.6,left,3:2,L,,,,,,,,,,,0,0,0,1,,,,,,,,,,,,,,,,,,,,,,,,,,,21.698719799984246,None,21.698719799984246,None,21.698719799984246,None,21.698719799984246,None,21.698719799984246,None,21.698719799984246,None,left,1,2.7370442000683397,21.698719799984246,None,24.469695799984038,None,,,,,,,,,,,,,,,,,,,,,,,,,,,,,,,,,,,,,,,,,,,,,,,,,,,,,,,,,,12008,001,2024_Jun_14_1702,MFTM_A_new1021,2021.2.3,59.92297499346521,
0.6,0.6,0.6,-0.6,-0.6,right,3:2,R,,,,,,,,,,,0,1,1,0,,,,,,,,,,,,,,,,,,,,,,,,,,,25.221745799994096,None,25.221745799994096,None,25.221745799994096,None,25.221745799994096,None,25.221745799994096,None,25.221745799994096,None,right,1,3.0137332000304013,25.221745799994096,None,28.258688100031577,None,,,,,,,,,,,,,,,,,,,,,,,,,,,,,,,,,,,,,,,,,,,,,,,,,,,,,,,,,,12008,001,2024_Jun_14_1702,MFTM_A_new1021,2021.2.3,59.92297499346521,
0.6,0.6,0.6,-0.6,-0.6,right,3:2,R,,,,,,,,,,,1,0,2,0,,,,,,,,,,,,,,,,,,,,,,,,,,,29.009674399974756,None,29.009674399974756,None,29.009674399974756,None,29.009674399974756,None,29.009674399974756,None,29.009674399974756,None,right,1,1.43414359993767,29.009674399974756,None,30.461755799944513,None,,,,,,,,,,,,,,,,,,,,,,,,,,,,,,,,,,,,,,,,,,,,,,,,,,,,,,,,,,12008,001,2024_Jun_14_1702,MFTM_A_new1021,2021.2.3,59.92297499346521,
-0.6,-0.6,-0.6,0.6,0.6,left,3:2,L,,,,,,,,,,,1,1,3,1,,,,,,,,,,,,,,,,,,,,,,,,,,,31.213046099990606,None,31.213046099990606,None,31.213046099990606,None,31.213046099990606,None,31.213046099990606,None,31.213046099990606,None,left,1,1.687093999935314,31.213046099990606,None,32.915657899924554,None,,,,,,,,,,,,,,,,,,,,,,,,,,,,,,,,,,,,,,,,,,,,,,,,,,,,,,,,,,12008,001,2024_Jun_14_1702,MFTM_A_new1021,2021.2.3,59.92297499346521,
,,,,,,,,stim/Instruction_mask.png,conditions/adaptive.xlsx,practice,-0.6,-0.6,-0.6,0.6,0.6,left,L,,,,,0,0,0,0,0,0,0,33,,,,,,,,,,,,,,,,,,,,,,,,,,,,,,,,,,,,,,33.96712009992916,None,space,18.13308399997186,33.96712009992916,None,52.212161600007676,None,right,0,2.5431843999540433,52.64553059998434,None,52.64553059998434,55.65003379993141,52.64553059998434,55.65003379993141,52.64553059998434,55.65003379993141,52.64553059998434,55.65003379993141,52.64553059998434,55.65003379993141,55.63374690001365,56.13403770001605,55.63374690001365,56.13403770001605,55.63374690001365,56.13403770001605,55.63374690001365,56.13403770001605,55.63374690001365,56.13403770001605,55.63374690001365,56.13403770001605,55.63374690001365,56.13403770001605,55.63374690001365,56.13403770001605,52.64553059998434,None,56.13403770001605,56.13403770001605,3,56.150633699959144,None,56.90209640003741,None,,,,,,,,,,12008,001,2024_Jun_14_1702,MFTM_A_new1021,2021.2.3,59.92297499346521,
,,,,,,,,stim/Instruction_mask.png,conditions/adaptive.xlsx,practice,0.6,0.6,0.6,-0.6,-0.6,right,R,,,,,0,0,0,0,0,1,1,44,,,,,,,,,,,,,,,,,,,,,,,,,,,,,,,,,,,,,,,,,,,,57.40335879998747,None,right,1,1.9643308999948204,57.90405789995566,59.90652179997414,57.90405789995566,59.407152500003576,57.90405789995566,59.407152500003576,57.90405789995566,59.407152500003576,57.90405789995566,59.407152500003576,57.90405789995566,59.407152500003576,59.38919549994171,59.88996499998029,59.38919549994171,59.88996499998029,59.38919549994171,59.88996499998029,59.38919549994171,59.88996499998029,59.38919549994171,59.88996499998029,59.38919549994171,59.88996499998029,59.38919549994171,59.88996499998029,59.38919549994171,59.88996499998029,57.90405789995566,None,59.88996499998029,61.39258029998746,1.5,61.4094608000014,None,62.160974200000055,None,,,,,,,,,,12008,001,2024_Jun_14_1702,MFTM_A_new1021,2021.2.3,59.92297499346521,
,,,,,,,,stim/Instruction_mask.png,conditions/adaptive.xlsx,practice,0.6,0.6,0.6,-0.6,-0.6,right,R,,,,,0,0,0,0,0,2,2,54,,,,,,,,,,,,,,,,,,,,,,,,,,,,,,,,,,,,,,,,,,,,62.66079340002034,None,right,1,1.1552887000143528,63.16124689998105,64.4638861999847,63.16124689998105,63.96263209998142,63.16124689998105,63.96263209998142,63.16124689998105,63.96263209998142,63.16124689998105,63.96263209998142,63.16124689998105,63.96263209998142,63.946123100002296,64.4469955000095,63.946123100002296,64.4469955000095,63.946123100002296,64.4469955000095,63.946123100002296,64.4469955000095,63.946123100002296,64.4469955000095,63.946123100002296,64.4469955000095,63.946123100002296,64.4469955000095,63.946123100002296,64.4469955000095,63.16124689998105,None,64.4469955000095,66.65059069998097,0.8,66.66711739997845,None,67.41836609994061,None,,,,,,,,,,12008,001,2024_Jun_14_1702,MFTM_A_new1021,2021.2.3,59.92297499346521,
,,,,,,,,stim/Instruction_mask.png,conditions/adaptive.xlsx,practice,0.6,0.6,0.6,-0.6,-0.6,right,R,,,,,0,0,0,0,0,3,3,78,,,,,,,,,,,,,,,,,,,,,,,,,,,,,,,,,,,,,,,,,,,,67.91905879997648,None,left,0,0.6895481001120061,68.41930670000147,69.17056100000627,68.41930670000147,68.66960349993315,68.41930670000147,68.66960349993315,68.41930670000147,68.66960349993315,68.41930670000147,68.66960349993315,68.41930670000147,68.66960349993315,68.65289509994909,69.15372589998879,68.65289509994909,69.15372589998879,68.65289509994909,69.15372589998879,68.65289509994909,69.15372589998879,68.65289509994909,69.15372589998879,68.65289509994909,69.15372589998879,68.65289509994909,69.15372589998879,68.65289509994909,69.15372589998879,68.41930670000147,None,69.15372589998879,71.90898469998501,3,71.92447600001469,None,72.67562310001813,None,,,,,,,,,,12008,001,2024_Jun_14_1702,MFTM_A_new1021,2021.2.3,59.92297499346521,
,,,,,,,,stim/Instruction_mask.png,conditions/adaptive.xlsx,practice,,,,,,,,,,,,0,0,0,0,,,,,,,,,,,,,,,,,,,,,,,,,,,,,,,,,,,,,,,,,,,,,,,,,,,,,,,,,,,,,,,,,,,,,,,,,,,,,,,,,,,,,,,,,,73.19297009997535,74.19464390003122,74.17949000000954,74.17949000000954,74.17949000000954,None,,,,12008,001,2024_Jun_14_1702,MFTM_A_new1021,2021.2.3,59.92297499346521,
,,,,,,,,stim/Instruction_adaptive.png,conditions/adaptive.xlsx,test,-0.6,-0.6,-0.6,0.6,0.6,left,L,,,,,0,1,1,1,0,0,0,37,,,,,,,,,,,,,,,,,,,,,,,,,,,,,,,,,,,,,,77.3658169999253,None,space,17.6075532999821,77.3658169999253,None,95.00859039998613,None,left,1,1.5434905000729486,95.50994699995499,None,95.50994699995499,98.51489430002403,95.50994699995499,98.51489430002403,95.50994699995499,98.51489430002403,95.50994699995499,98.51489430002403,95.50994699995499,98.51489430002403,98.48111639998388,98.98195299995132,98.48111639998388,98.98195299995132,98.48111639998388,98.98195299995132,98.48111639998388,98.98195299995132,98.48111639998388,98.98195299995132,98.48111639998388,98.98195299995132,98.48111639998388,98.98195299995132,98.48111639998388,98.98195299995132,95.50994699995499,None,98.99957769992761,98.99957769992761,3,99.01530630001798,None,99.76764079998247,None,,,,,,,0,6.000000000000005,1.0,12008,001,2024_Jun_14_1702,MFTM_A_new1021,2021.2.3,59.92297499346521,
,,,,,,,,stim/Instruction_adaptive.png,conditions/adaptive.xlsx,test,-0.6,-0.6,-0.6,0.6,0.6,left,L,,,,,0,1,1,1,0,1,1,7,,,,,,,,,,,,,,,,,,,,,,,,,,,,,,,,,,,,,,,,,,,,100.26745869999286,None,right,0,1.6455368000315502,100.76801080000587,101.51912960002664,100.76801080000587,101.01926650002133,100.76801080000587,101.01926650002133,100.76801080000587,101.01926650002133,100.76801080000587,101.01926650002133,100.76801080000587,101.01926650002133,101.00243759993464,101.5031544000376,101.00243759993464,101.5031544000376,101.00243759993464,101.5031544000376,101.00243759993464,101.5031544000376,101.00243759993464,101.5031544000376,101.00243759993464,101.5031544000376,101.00243759993464,101.5031544000376,101.00243759993464,101.5031544000376,100.76801080000587,None,101.5031544000376,102.43729090003762,0.25,102.45385920000263,None,103.20559939998202,None,,,,,,,[0.875],2.570000000000002,0.5,12008,001,2024_Jun_14_1702,MFTM_A_new1021,2021.2.3,59.92297499346521,
,,,,,,,,stim/Instruction_adaptive.png,conditions/adaptive.xlsx,test,0.6,0.6,0.6,-0.6,-0.6,right,R,,,,,0,1,1,1,0,2,2,12,,,,,,,,,,,,,,,,,,,,,,,,,,,,,,,,,,,,,,,,,,,,103.70658929995261,None,right,1,1.7822283999994397,104.20729769999161,105.82605099992361,104.20729769999161,105.32490160001907,104.20729769999161,105.32490160001907,104.20729769999161,105.32490160001907,104.20729769999161,105.32490160001907,104.20729769999161,105.32490160001907,105.2915503999684,105.79314880003221,105.2915503999684,105.79314880003221,105.2915503999684,105.79314880003221,105.2915503999684,105.79314880003221,105.2915503999684,105.79314880003221,105.2915503999684,105.79314880003221,105.2915503999684,105.79314880003221,105.2915503999684,105.79314880003221,104.20729769999161,None,105.79314880003221,106.84421559993643,1.1100000000000008,106.87654049997218,None,107.62835809995886,None,,,,,,,[1.04666667],3.3800000000000026,0.6666666666666666,12008,001,2024_Jun_14_1702,MFTM_A_new1021,2021.2.3,59.92297499346521,
,,,,,,,,stim/Instruction_adaptive.png,conditions/adaptive.xlsx,test,-0.6,-0.6,-0.6,0.6,0.6,left,L,,,,,0,1,1,1,0,3,3,45,,,,,,,,,,,,,,,,,,,,,,,,,,,,,,,,,,,,,,,,,,,,108.12992780003697,None,left,1,1.2879110999638215,108.62977340002544,109.76487269997597,108.62977340002544,109.2638561000349,108.62977340002544,109.2638561000349,108.62977340002544,109.2638561000349,108.62977340002544,109.2638561000349,108.62977340002544,109.2638561000349,109.24747960001696,109.7482941999333,109.24747960001696,109.7482941999333,109.24747960001696,109.7482941999333,109.24747960001696,109.7482941999333,109.24747960001696,109.7482941999333,109.24747960001696,109.7482941999333,109.24747960001696,109.7482941999333,109.24747960001696,109.7482941999333,108.62977340002544,None,109.7482941999333,110.99998979992233,0.6300000000000003,111.01673139992636,None,111.76790239999536,None,,,,,,,[1.2525],3.940000000000003,0.75,12008,001,2024_Jun_14_1702,MFTM_A_new1021,2021.2.3,59.92297499346521,
,,,,,,,,stim/Instruction_adaptive.png,conditions/adaptive.xlsx,test,0.6,0.6,0.6,-0.6,-0.6,right,R,,,,,0,1,1,1,0,4,4,52,,,,,,,,,,,,,,,,,,,,,,,,,,,,,,,,,,,,,,,,,,,,112.26873829995748,None,right,1,1.0128051999490708,112.76937250001356,113.70551250001881,112.76937250001356,113.20333639997989,112.76937250001356,113.20333639997989,112.76937250001356,113.20333639997989,112.76937250001356,113.20333639997989,112.76937250001356,113.20333639997989,113.18683359993156,113.6873131999746,113.18683359993156,113.6873131999746,113.18683359993156,113.6873131999746,113.18683359993156,113.6873131999746,113.18683359993156,113.6873131999746,113.18683359993156,113.6873131999746,113.18683359993156,113.6873131999746,113.18683359993156,113.6873131999746,112.76937250001356,None,113.6873131999746,115.10684739996213,0.43000000000000016,115.12380179995671,None,115.87492510001175,None,,,,,,,[1.416],4.370000000000004,0.8,12008,001,2024_Jun_14_1702,MFTM_A_new1021,2021.2.3,59.92297499346521,
,,,,,,,,stim/Instruction_adaptive.png,conditions/adaptive.xlsx,test,-0.6,-0.6,-0.6,0.6,0.6,left,L,,,,,0,1,1,1,0,5,5,51,,,,,,,,,,,,,,,,,,,,,,,,,,,,,,,,,,,,,,,,,,,,116.37534120003693,None,right,0,1.7307511999970302,116.87570259999484,117.7100559999235,116.87570259999484,117.2095845999429,116.87570259999484,117.2095845999429,116.87570259999484,117.2095845999429,116.87570259999484,117.2095845999429,116.87570259999484,117.2095845999429,117.17715170001611,117.67662869999185,117.17715170001611,117.67662869999185,117.17715170001611,117.67662869999185,117.17715170001611,117.67662869999185,117.17715170001611,117.67662869999185,117.17715170001611,117.67662869999185,117.17715170001611,117.67662869999185,117.17715170001611,117.67662869999185,116.87570259999484,None,117.67662869999185,119.22941279993393,0.32000000000000006,119.24576610000804,None,119.99776779999956,None,,,,,,,[1.54333333],3.5400000000000027,0.6666666666666666,12008,001,2024_Jun_14_1702,MFTM_A_new1021,2021.2.3,59.92297499346521,
,,,,,,,,stim/Instruction_adaptive.png,conditions/adaptive.xlsx,test,0.6,0.6,0.6,-0.6,-0.6,right,R,,,,,0,1,1,1,0,6,6,54,,,,,,,,,,,,,,,,,,,,,,,,,,,,,,,,,,,,,,,,,,,,120.49782079993747,None,left,0,2.1595604000613093,120.99840109993238,122.08407909993548,120.99840109993238,121.5827275000047,120.99840109993238,121.5827275000047,120.99840109993238,121.5827275000047,120.99840109993238,121.5827275000047,120.99840109993238,121.5827275000047,121.54920849995688,122.05062150000595,121.54920849995688,122.05062150000595,121.54920849995688,122.05062150000595,121.54920849995688,122.05062150000595,121.54920849995688,122.05062150000595,121.54920849995688,122.05062150000595,121.54920849995688,122.05062150000595,121.54920849995688,122.05062150000595,120.99840109993238,None,122.05062150000595,123.65424399997573,0.5700000000000003,123.66856529994402,None,124.42048820003401,None,,,,,,,[1.59857143],2.650000000000002,0.5714285714285714,12008,001,2024_Jun_14_1702,MFTM_A_new1021,2021.2.3,59.92297499346521,
,,,,,,,,stim/Instruction_adaptive.png,conditions/adaptive.xlsx,test,-0.6,-0.6,-0.6,0.6,0.6,left,L,,,,,0,1,1,1,0,7,7,63,,,,,,,,,,,,,,,,,,,,,,,,,,,,,,,,,,,,,,,,,,,,124.92108170001302,None,left,1,1.98506079998333,125.42175510001834,126.97413779993076,125.42175510001834,126.47340319992509,125.42175510001834,126.47340319992509,125.42175510001834,126.47340319992509,125.42175510001834,126.47340319992509,125.42175510001834,126.47340319992509,126.45762160001323,126.95803099998739,126.45762160001323,126.95803099998739,126.45762160001323,126.95803099998739,126.45762160001323,126.95803099998739,126.45762160001323,126.95803099998739,126.45762160001323,126.95803099998739,126.45762160001323,126.95803099998739,126.45762160001323,126.95803099998739,125.42175510001834,None,126.95803099998739,128.41104689997155,1.0500000000000007,128.4260246999329,None,129.17794850002974,None,,,,,,,[[1.45]],3.0200000000000022,0.625,12008,001,2024_Jun_14_1702,MFTM_A_new1021,2021.2.3,59.92297499346521,
,,,,,,,,stim/Instruction_adaptive.png,conditions/adaptive.xlsx,test,0.6,0.6,0.6,-0.6,-0.6,right,R,,,,,0,1,1,1,0,8,8,24,,,,,,,,,,,,,,,,,,,,,,,,,,,,,,,,,,,,,,,,,,,,129.67806679999921,None,right,1,1.9070100000826642,130.17940749996342,131.4990149999503,130.17940749996342,130.99670160003006,130.17940749996342,130.99670160003006,130.17940749996342,130.99670160003006,130.17940749996342,130.99670160003006,130.17940749996342,130.99670160003006,130.98010559997056,131.48082469997462,130.98010559997056,131.48082469997462,130.98010559997056,131.48082469997462,130.98010559997056,131.48082469997462,130.98010559997056,131.48082469997462,130.98010559997056,131.48082469997462,130.98010559997056,131.48082469997462,130.98010559997056,131.48082469997462,130.17940749996342,None,131.48082469997462,None,0.8100000000000005,133.083933899994,None,133.83535599999595,None,,,,,,,[1.59222222],3.3000000000000025,0.6666666666666666,12008,001,2024_Jun_14_1702,MFTM_A_new1021,2021.2.3,59.92297499346521,
,,,,,,,,stim/Instruction_adaptive.png,conditions/adaptive.xlsx,test,0.6,0.6,0.6,-0.6,-0.6,right,R,,,,,0,1,1,1,0,9,9,26,,,,,,,,,,,,,,,,,,,,,,,,,,,,,,,,,,,,,,,,,,,,134.33561299997382,None,left,0,1.8977216999046504,134.83662990003359,136.02124469995033,134.83662990003359,135.52123790001497,134.83662990003359,135.52123790001497,134.83662990003359,135.52123790001497,134.83662990003359,135.52123790001497,134.83662990003359,135.52123790001497,135.48689269996248,135.987746699946,135.48689269996248,135.987746699946,135.48689269996248,135.987746699946,135.48689269996248,135.987746699946,135.48689269996248,135.987746699946,135.48689269996248,135.987746699946,135.48689269996248,135.987746699946,135.48689269996248,135.987746699946,134.83662990003359,None,135.987746699946,137.6067571999738,0.6700000000000004,137.62354169995524,None,138.37523040000815,None,,,,,,,[1.616],2.660000000000002,0.6,12008,001,2024_Jun_14_1702,MFTM_A_new1021,2021.2.3,59.92297499346521,
,,,,,,,,stim/Instruction_adaptive.png,conditions/adaptive.xlsx,test,-0.6,-0.6,-0.6,0.6,0.6,left,L,,,,,0,1,1,1,0,10,10,99,,,,,,,,,,,,,,,,,,,,,,,,,,,,,,,,,,,,,,,,,,,,138.87579550000373,None,left,1,1.8944204000290483,139.37610570003744,140.9292258999776,139.37610570003744,140.4285974999657,139.37610570003744,140.4285974999657,139.37610570003744,140.4285974999657,139.37610570003744,140.4285974999657,139.37610570003744,140.4285974999657,140.39443789992947,140.89514609996695,140.39443789992947,140.89514609996695,140.39443789992947,140.89514609996695,140.39443789992947,140.89514609996695,140.39443789992947,140.89514609996695,140.39443789992947,140.89514609996695,140.39443789992947,140.89514609996695,140.39443789992947,140.89514609996695,139.37610570003744,None,140.89514609996695,142.36395020002965,1.0400000000000007,142.38074950000737,None,143.13192209997214,None,,,,,,,[[1.46]],2.920000000000002,0.6363636363636364,12008,001,2024_Jun_14_1702,MFTM_A_new1021,2021.2.3,59.92297499346521,
,,,,,,,,stim/Instruction_adaptive.png,conditions/adaptive.xlsx,test,0.6,0.6,0.6,-0.6,-0.6,right,R,,,,,0,1,1,1,0,11,11,50,,,,,,,,,,,,,,,,,,,,,,,,,,,,,,,,,,,,,,,,,,,,143.63400489999913,None,right,1,1.8008897999534383,144.1341902000131,145.51977739995345,144.1341902000131,145.0179457999766,144.1341902000131,145.0179457999766,144.1341902000131,145.0179457999766,144.1341902000131,145.0179457999766,144.1341902000131,145.0179457999766,144.98460229998454,145.48547990003135,144.98460229998454,145.48547990003135,144.98460229998454,145.48547990003135,144.98460229998454,145.48547990003135,144.98460229998454,145.48547990003135,144.98460229998454,145.48547990003135,144.98460229998454,145.48547990003135,144.98460229998454,145.48547990003135,144.1341902000131,None,145.48547990003135,147.10445879993495,0.8700000000000006,147.12104480003472,None,147.873751899926,None,,,,,,,[1.60416667],3.1200000000000023,0.6666666666666666,12008,001,2024_Jun_14_1702,MFTM_A_new1021,2021.2.3,59.92297499346521,
,,,,,,,,stim/Instruction_adaptive.png,conditions/adaptive.xlsx,test,0.6,0.6,0.6,-0.6,-0.6,right,R,,,,,0,1,1,1,0,12,12,32,,,,,,,,,,,,,,,,,,,,,,,,,,,,,,,,,,,,,,,,,,,,148.37316519999877,None,right,1,1.8611516000237316,148.873737399932,150.14305770001374,148.873737399932,149.64154460001737,148.873737399932,149.64154460001737,148.873737399932,149.64154460001737,148.873737399932,149.64154460001737,148.873737399932,149.64154460001737,149.6247994999867,150.1257864999352,149.6247994999867,150.1257864999352,149.6247994999867,150.1257864999352,149.6247994999867,150.1257864999352,149.6247994999867,150.1257864999352,149.6247994999867,150.1257864999352,149.6247994999867,150.1257864999352,149.6247994999867,150.1257864999352,148.873737399932,None,150.1257864999352,151.7449930999428,0.7600000000000005,151.76153289992362,None,152.51280080003198,None,,,,,,,[1.61461538],3.2900000000000027,0.6923076923076923,12008,001,2024_Jun_14_1702,MFTM_A_new1021,2021.2.3,59.92297499346521,
,,,,,,,,stim/Instruction_adaptive.png,conditions/adaptive.xlsx,test,0.6,0.6,0.6,-0.6,-0.6,right,R,,,,,0,1,1,1,0,13,13,22,,,,,,,,,,,,,,,,,,,,,,,,,,,,,,,,,,,,,,,,,,,,153.01341100002173,None,right,1,1.9731525999959558,153.5142501000082,154.69932549993973,153.5142501000082,154.19965740002226,153.5142501000082,154.19965740002226,153.5142501000082,154.19965740002226,153.5142501000082,154.19965740002226,153.5142501000082,154.19965740002226,154.16524090000894,154.66579729993828,154.16524090000894,154.66579729993828,154.16524090000894,154.66579729993828,154.16524090000894,154.66579729993828,154.16524090000894,154.66579729993828,154.16524090000894,154.66579729993828,154.16524090000894,154.66579729993828,154.16524090000894,154.66579729993828,153.5142501000082,None,154.66579729993828,156.3017591999378,0.6700000000000004,156.3182894999627,None,157.06980569998268,None,,,,,,,[1.63],3.4300000000000024,0.7142857142857143,12008,001,2024_Jun_14_1702,MFTM_A_new1021,2021.2.3,59.92297499346521,
,,,,,,,,stim/Instruction_adaptive.png,conditions/adaptive.xlsx,test,-0.6,-0.6,-0.6,0.6,0.6,left,L,,,,,0,1,1,1,0,14,14,41,,,,,,,,,,,,,,,,,,,,,,,,,,,,,,,,,,,,,,,,,,,,157.57024499995168,None,left,1,2.031592300045304,158.07184889994096,159.18977569998242,158.07184889994096,158.68866719992366,158.07184889994096,158.68866719992366,158.07184889994096,158.68866719992366,158.07184889994096,158.68866719992366,158.07184889994096,158.68866719992366,158.65586639998946,159.15661990002263,158.65586639998946,159.15661990002263,158.65586639998946,159.15661990002263,158.65586639998946,159.15661990002263,158.65586639998946,159.15661990002263,158.65586639998946,159.15661990002263,158.65586639998946,159.15661990002263,158.65586639998946,159.15661990002263,158.07184889994096,None,159.15661990002263,160.80867439997382,0.6100000000000003,160.84190649993252,None,161.59352550003678,None,,,,,,,[1.64733333],3.5600000000000027,0.7333333333333333,12008,001,2024_Jun_14_1702,MFTM_A_new1021,2021.2.3,59.92297499346521,
,,,,,,,,stim/Instruction_adaptive.png,conditions/adaptive.xlsx,test,-0.6,-0.6,-0.6,0.6,0.6,left,L,,,,,0,1,1,1,0,15,15,27,,,,,,,,,,,,,,,,,,,,,,,,,,,,,,,,,,,,,,,,,,,,162.09359159995802,None,right,0,2.1086405999958515,162.59462410002016,163.66328969993629,162.59462410002016,163.1625523000257,162.59462410002016,163.1625523000257,162.59462410002016,163.1625523000257,162.59462410002016,163.1625523000257,162.59462410002016,163.1625523000257,163.14588299999014,163.64678880001884,163.14588299999014,163.64678880001884,163.14588299999014,163.64678880001884,163.14588299999014,163.64678880001884,163.14588299999014,163.64678880001884,163.14588299999014,163.64678880001884,163.14588299999014,163.64678880001884,163.14588299999014,163.64678880001884,162.59462410002016,None,163.63018799992278,165.29941380000673,0.5600000000000003,165.33151619997807,None,166.0836955999257,None,,,,,,,[1.665625],3.2200000000000024,0.6875,12008,001,2024_Jun_14_1702,MFTM_A_new1021,2021.2.3,59.92297499346521,
,,,,,,,,stim/Instruction_adaptive.png,conditions/adaptive.xlsx,test,-0.6,-0.6,-0.6,0.6,0.6,left,L,,,,,0,1,1,1,0,16,16,73,,,,,,,,,,,,,,,,,,,,,,,,,,,,,,,,,,,,,,,,,,,,166.5838513999479,None,left,1,2.6176656000316143,167.0856040000217,168.30371310003102,167.0856040000217,167.8032086000312,167.0856040000217,167.8032086000312,167.0856040000217,167.8032086000312,167.0856040000217,167.8032086000312,167.0856040000217,167.8032086000312,167.78562879993115,168.28753740002867,167.78562879993115,168.28753740002867,167.78562879993115,168.28753740002867,167.78562879993115,168.28753740002867,167.78562879993115,168.28753740002867,167.78562879993115,168.28753740002867,167.78562879993115,168.28753740002867,167.78562879993115,168.28753740002867,167.0856040000217,None,168.28753740002867,None,0.7100000000000004,169.97230219992343,None,170.72333389997948,None,,,,,,,[1.67294118],3.3500000000000023,0.7058823529411765,12008,001,2024_Jun_14_1702,MFTM_A_new1021,2021.2.3,59.92297499346521,
,,,,,,,,stim/Instruction_adaptive.png,conditions/adaptive.xlsx,test,-0.6,-0.6,-0.6,0.6,0.6,left,L,,,,,0,1,1,1,0,17,17,15,,,,,,,,,,,,,,,,,,,,,,,,,,,,,,,,,,,,,,,,,,,,171.22430290002376,None,right,0,2.8744532000273466,171.72523819992784,172.8767841999652,171.72523819992784,172.37580909999087,171.72523819992784,172.37580909999087,171.72523819992784,172.37580909999087,171.72523819992784,172.37580909999087,171.72523819992784,172.37580909999087,172.35908460000064,172.85994180000853,172.35908460000064,172.85994180000853,172.35908460000064,172.85994180000853,172.35908460000064,172.85994180000853,172.35908460000064,172.85994180000853,172.35908460000064,172.85994180000853,172.35908460000064,172.85994180000853,172.35908460000064,172.85994180000853,171.72523819992784,None,172.85994180000853,174.6291721999878,0.6500000000000004,174.64623019995634,None,175.39789809996728,None,,,,,,,[1.68277778],3.0100000000000025,0.6666666666666666,12008,001,2024_Jun_14_1702,MFTM_A_new1021,2021.2.3,59.92297499346521,
,,,,,,,,stim/Instruction_adaptive.png,conditions/adaptive.xlsx,test,0.6,0.6,0.6,-0.6,-0.6,right,R,,,,,0,1,1,1,0,18,18,98,,,,,,,,,,,,,,,,,,,,,,,,,,,,,,,,,,,,,,,,,,,,175.89933599997312,None,right,1,1.4409911000402644,176.39884959999472,177.71816149994265,176.39884959999472,177.2340173999546,176.39884959999472,177.2340173999546,176.39884959999472,177.2340173999546,176.39884959999472,177.2340173999546,176.39884959999472,177.2340173999546,177.20010829996318,177.7015958999982,177.20010829996318,177.7015958999982,177.20010829996318,177.7015958999982,177.20010829996318,177.7015958999982,177.20010829996318,177.7015958999982,177.20010829996318,177.7015958999982,177.20010829996318,177.7015958999982,177.20010829996318,177.7015958999982,176.39884959999472,None,177.7015958999982,179.38794909999706,0.8200000000000005,179.4026554999873,None,180.15439989999868,None,,,,,,,[[1.68]],3.1400000000000023,0.6842105263157895,12008,001,2024_Jun_14_1702,MFTM_A_new1021,2021.2.3,59.92297499346521,
,,,,,,,,stim/Instruction_adaptive.png,conditions/adaptive.xlsx,test,0.6,0.6,0.6,-0.6,-0.6,right,R,,,,,0,1,1,1,0,19,19,96,,,,,,,,,,,,,,,,,,,,,,,,,,,,,,,,,,,,,,,,,,,,180.65504680003505,None,right,1,1.5798123999265954,181.15590919996612,182.40766369993798,181.15590919996612,181.90772429993376,181.15590919996612,181.90772429993376,181.15590919996612,181.90772429993376,181.15590919996612,181.90772429993376,181.15590919996612,181.90772429993376,181.8902144000167,182.39108430000488,181.8902144000167,182.39108430000488,181.8902144000167,182.39108430000488,181.8902144000167,182.39108430000488,181.8902144000167,182.39108430000488,181.8902144000167,182.39108430000488,181.8902144000167,182.39108430000488,181.8902144000167,182.39108430000488,181.15590919996612,None,182.39108430000488,184.07763169996906,0.7500000000000004,184.09357809997164,None,184.84466289996635,None,,,,,,,[1.686],3.2500000000000027,0.7,12008,001,2024_Jun_14_1702,MFTM_A_new1021,2021.2.3,59.92297499346521,
,,,,,,,,stim/Instruction_adaptive.png,conditions/adaptive.xlsx,test,0.6,0.6,0.6,-0.6,-0.6,right,R,,,,,0,1,1,1,0,20,20,8,,,,,,,,,,,,,,,,,,,,,,,,,,,,,,,,,,,,,,,,,,,,185.34627999993972,None,right,1,1.8253894000081345,185.84647480002604,187.0489743000362,185.84647480002604,186.5474332999438,185.84647480002604,186.5474332999438,185.84647480002604,186.5474332999438,185.84647480002604,186.5474332999438,185.84647480002604,186.5474332999438,186.51392940001097,187.01532659993973,186.51392940001097,187.01532659993973,186.51392940001097,187.01532659993973,186.51392940001097,187.01532659993973,186.51392940001097,187.01532659993973,186.51392940001097,187.01532659993973,186.51392940001097,187.01532659993973,186.51392940001097,187.01532659993973,185.84647480002604,None,187.01532659993973,188.71722260001116,0.6900000000000004,188.73378579993732,None,189.4851500999648,None,,,,,,,[1.69190476],3.3500000000000023,0.7142857142857143,12008,001,2024_Jun_14_1702,MFTM_A_new1021,2021.2.3,59.92297499346521,
,,,,,,,,stim/Instruction_adaptive.png,conditions/adaptive.xlsx,test,0.6,0.6,0.6,-0.6,-0.6,right,R,,,,,0,1,1,1,0,21,21,6,,,,,,,,,,,,,,,,,,,,,,,,,,,,,,,,,,,,,,,,,,,,189.98658639995847,None,right,1,1.7211245000362396,190.486774399993,191.63817129994277,190.486774399993,191.13758400001097,190.486774399993,191.13758400001097,190.486774399993,191.13758400001097,190.486774399993,191.13758400001097,190.486774399993,191.13758400001097,191.12085359997582,191.6213529999368,191.12085359997582,191.6213529999368,191.12085359997582,191.6213529999368,191.12085359997582,191.6213529999368,191.12085359997582,191.6213529999368,191.12085359997582,191.6213529999368,191.12085359997582,191.6213529999368,191.12085359997582,191.6213529999368,190.486774399993,None,191.6213529999368,193.3242683999706,0.6500000000000004,193.3409515999956,None,194.0920524999965,None,,,,,,,[1.69909091],3.4400000000000026,0.7272727272727273,12008,001,2024_Jun_14_1702,MFTM_A_new1021,2021.2.3,59.92297499346521,
,,,,,,,,stim/Instruction_adaptive.png,conditions/adaptive.xlsx,test,-0.6,-0.6,-0.6,0.6,0.6,left,L,,,,,0,1,1,1,0,22,22,79,,,,,,,,,,,,,,,,,,,,,,,,,,,,,,,,,,,,,,,,,,,,194.59372479992453,None,None,0,0,195.09343729994725,196.21173199999612,195.09343729994725,195.71099789999425,195.09343729994725,195.71099789999425,195.09343729994725,195.71099789999425,195.09343729994725,195.71099789999425,195.09343729994725,195.71099789999425,195.67797089996748,196.1787379999878,195.67797089996748,196.1787379999878,195.67797089996748,196.1787379999878,195.67797089996748,196.1787379999878,195.67797089996748,196.1787379999878,195.67797089996748,196.1787379999878,195.67797089996748,196.1787379999878,195.67797089996748,196.1787379999878,195.09343729994725,None,196.1787379999878,198.58302999997977,0.6100000000000003,198.6175262000179,None,199.36682300001848,None,,,,,,,[[2.39]],3.190000000000002,0.6956521739130435,12008,001,2024_Jun_14_1702,MFTM_A_new1021,2021.2.3,59.92297499346521,
,,,,,,,,stim/Instruction_adaptive.png,conditions/adaptive.xlsx,test,0.6,0.6,0.6,-0.6,-0.6,right,R,,,,,0,1,1,1,0,23,23,68,,,,,,,,,,,,,,,,,,,,,,,,,,,,,,,,,,,,,,,,,,,,199.86927699996158,None,right,1,2.3121571999508888,200.3681716999272,201.60344610002358,200.3681716999272,201.10357010003645,200.3681716999272,201.10357010003645,200.3681716999272,201.10357010003645,200.3681716999272,201.10357010003645,200.3681716999272,201.10357010003645,201.0696582000237,201.56985600001644,201.0696582000237,201.56985600001644,201.0696582000237,201.56985600001644,201.0696582000237,201.56985600001644,201.0696582000237,201.56985600001644,201.0696582000237,201.56985600001644,201.0696582000237,201.56985600001644,201.0696582000237,201.56985600001644,200.3681716999272,None,201.56985600001644,203.28984119999222,0.7200000000000004,203.30655280000065,None,204.05733330000658,None,,,,,,,[1.71041667],3.2800000000000025,0.7083333333333334,12008,001,2024_Jun_14_1702,MFTM_A_new1021,2021.2.3,59.92297499346521,
,,,,,,,,stim/Instruction_adaptive.png,conditions/adaptive.xlsx,test,0.6,0.6,0.6,-0.6,-0.6,right,R,,,,,0,1,1,1,0,24,24,90,,,,,,,,,,,,,,,,,,,,,,,,,,,,,,,,,,,,,,,,,,,,204.55841299996246,None,right,1,1.9164638000074774,205.05991760001052,206.2438070999924,205.05991760001052,205.74307710002176,205.05991760001052,205.74307710002176,205.05991760001052,205.74307710002176,205.05991760001052,205.74307710002176,205.05991760001052,205.74307710002176,205.72724149993155,206.2271091999719,205.72724149993155,206.2271091999719,205.72724149993155,206.2271091999719,205.72724149993155,206.2271091999719,205.72724149993155,206.2271091999719,205.72724149993155,206.2271091999719,205.72724149993155,206.2271091999719,205.72724149993155,206.2271091999719,205.05991760001052,None,206.2271091999719,207.94704719993751,0.6800000000000004,207.96326470002532,None,208.71413929993287,None,,,,,,,[1.7148],3.3600000000000025,0.72,12008,001,2024_Jun_14_1702,MFTM_A_new1021,2021.2.3,59.92297499346521,
,,,,,,,,stim/Instruction_adaptive.png,conditions/adaptive.xlsx,test,0.6,0.6,0.6,-0.6,-0.6,right,R,,,,,0,1,1,1,0,25,25,92,,,,,,,,,,,,,,,,,,,,,,,,,,,,,,,,,,,,,,,,,,,,209.21548040001653,None,right,1,1.189230400021188,209.71561019995715,210.8676280999789,209.71561019995715,210.36641579994466,209.71561019995715,210.36641579994466,209.71561019995715,210.36641579994466,209.71561019995715,210.36641579994466,209.71561019995715,210.36641579994466,210.334440000006,210.83456280000973,210.334440000006,210.83456280000973,210.334440000006,210.83456280000973,210.334440000006,210.83456280000973,210.334440000006,210.83456280000973,210.334440000006,210.83456280000973,210.334440000006,210.83456280000973,210.334440000006,210.83456280000973,209.71561019995715,None,210.83456280000973,212.5529557999689,0.6400000000000003,212.58707040001173,None,213.33858370000962,None,,,,,,,[1.72038462],3.4400000000000026,0.7307692307692307,12008,001,2024_Jun_14_1702,MFTM_A_new1021,2021.2.3,59.92297499346521,
,,,,,,,,stim/Instruction_adaptive.png,conditions/adaptive.xlsx,test,0.6,0.6,0.6,-0.6,-0.6,right,R,,,,,0,1,1,1,0,26,26,36,,,,,,,,,,,,,,,,,,,,,,,,,,,,,,,,,,,,,,,,,,,,213.83832510001957,None,right,1,1.8046264000004157,214.34006690001115,215.45843140000943,214.34006690001115,214.95704759994987,214.34006690001115,214.95704759994987,214.34006690001115,214.95704759994987,214.34006690001115,214.95704759994987,214.34006690001115,214.95704759994987,214.94005149998702,215.4414871999761,214.94005149998702,215.4414871999761,214.94005149998702,215.4414871999761,214.94005149998702,215.4414871999761,214.94005149998702,215.4414871999761,214.94005149998702,215.4414871999761,214.94005149998702,215.4414871999761,214.94005149998702,215.4414871999761,214.34006690001115,None,215.4414871999761,None,0.6100000000000003,217.17869359999895,None,217.92780279996805,None,,,,,,,[1.72666667],3.5100000000000025,0.7407407407407407,12008,001,2024_Jun_14_1702,MFTM_A_new1021,2021.2.3,59.92297499346521,
,,,,,,,,stim/Instruction_adaptive.png,conditions/adaptive.xlsx,test,0.6,0.6,0.6,-0.6,-0.6,right,R,,,,,0,1,1,1,0,27,27,84,,,,,,,,,,,,,,,,,,,,,,,,,,,,,,,,,,,,,,,,,,,,218.42969869996887,None,right,1,1.8062413999577984,218.9302514999872,220.01459689997137,218.9302514999872,219.51454010000452,218.9302514999872,219.51454010000452,218.9302514999872,219.51454010000452,218.9302514999872,219.51454010000452,218.9302514999872,219.51454010000452,219.4978879999835,219.9977655999828,219.4978879999835,219.9977655999828,219.4978879999835,219.9977655999828,219.4978879999835,219.9977655999828,219.4978879999835,219.9977655999828,219.4978879999835,219.9977655999828,219.4978879999835,219.9977655999828,219.4978879999835,219.9977655999828,218.9302514999872,None,219.9977655999828,221.73365459998604,0.5800000000000003,221.7502471000189,None,222.50169559998903,None,,,,,,,[1.73357143],3.570000000000003,0.75,12008,001,2024_Jun_14_1702,MFTM_A_new1021,2021.2.3,59.92297499346521,
,,,,,,,,stim/Instruction_adaptive.png,conditions/adaptive.xlsx,test,0.6,0.6,0.6,-0.6,-0.6,right,R,,,,,0,1,1,1,0,28,28,48,,,,,,,,,,,,,,,,,,,,,,,,,,,,,,,,,,,,,,,,,,,,223.00323519995436,None,right,1,1.5302269000094384,223.5030689999694,224.5553783000214,223.5030689999694,224.05465970002115,223.5030689999694,224.05465970002115,223.5030689999694,224.05465970002115,223.5030689999694,224.05465970002115,223.5030689999694,224.05465970002115,224.03822540002875,224.538045699941,224.03822540002875,224.538045699941,224.03822540002875,224.538045699941,224.03822540002875,224.538045699941,224.03822540002875,224.538045699941,224.03822540002875,224.538045699941,224.03822540002875,224.538045699941,224.03822540002875,224.538045699941,223.5030689999694,None,224.538045699941,226.29221310000867,0.5500000000000003,226.30700509995222,None,227.0585133000277,None,,,,,,,[1.74103448],3.6300000000000026,0.7586206896551724,12008,001,2024_Jun_14_1702,MFTM_A_new1021,2021.2.3,59.92297499346521,
,,,,,,,,stim/Instruction_adaptive.png,conditions/adaptive.xlsx,test,-0.6,-0.6,-0.6,0.6,0.6,left,L,,,,,0,1,1,1,0,29,29,13,,,,,,,,,,,,,,,,,,,,,,,,,,,,,,,,,,,,,,,,,,,,227.5594539999729,None,right,0,1.5572508999612182,228.05988069996238,229.09535309998319,228.05988069996238,228.59503029996995,228.05988069996238,228.59503029996995,228.05988069996238,228.59503029996995,228.05988069996238,228.59503029996995,228.05988069996238,228.59503029996995,228.57840490003582,229.079005699954,228.57840490003582,229.079005699954,228.57840490003582,229.079005699954,228.57840490003582,229.079005699954,228.57840490003582,229.079005699954,228.57840490003582,229.079005699954,228.57840490003582,229.079005699954,228.57840490003582,229.079005699954,228.05988069996238,None,229.079005699954,230.83078039996326,0.5300000000000002,230.84757919993717,None,231.59951640001964,None,,,,,,,[1.74866667],3.4600000000000026,0.7333333333333333,12008,001,2024_Jun_14_1702,MFTM_A_new1021,2021.2.3,59.92297499346521,
,,,,,,,,stim/Instruction_adaptive.png,conditions/adaptive.xlsx,test,0.6,0.6,0.6,-0.6,-0.6,right,R,,,,,0,1,1,1,0,30,30,42,,,,,,,,,,,,,,,,,,,,,,,,,,,,,,,,,,,,,,,,,,,,232.10005020000972,None,right,1,1.3130989000201225,232.60030459996779,233.7024549000198,232.60030459996779,233.20103709993418,232.60030459996779,233.20103709993418,232.60030459996779,233.20103709993418,232.60030459996779,233.20103709993418,232.60030459996779,233.20103709993418,233.18432529992424,233.68501679995097,233.18432529992424,233.68501679995097,233.18432529992424,233.68501679995097,233.18432529992424,233.68501679995097,233.18432529992424,233.68501679995097,233.18432529992424,233.68501679995097,233.18432529992424,233.68501679995097,233.18432529992424,233.68501679995097,232.60030459996779,None,233.68501679995097,235.43848050001543,0.6000000000000003,235.45455869997386,None,236.20669759996235,None,,,,,,,[1.75354839],3.5200000000000027,0.7419354838709677,12008,001,2024_Jun_14_1702,MFTM_A_new1021,2021.2.3,59.92297499346521,
,,,,,,,,stim/Instruction_adaptive.png,conditions/adaptive.xlsx,test,-0.6,-0.6,-0.6,0.6,0.6,left,L,,,,,0,1,1,1,0,31,31,9,,,,,,,,,,,,,,,,,,,,,,,,,,,,,,,,,,,,,,,,,,,,236.70685419999063,None,right,0,2.114136299933307,237.20708029996604,238.29186440003105,237.20708029996604,237.7917146999389,237.20708029996604,237.7917146999389,237.20708029996604,237.7917146999389,237.20708029996604,237.7917146999389,237.20708029996604,237.7917146999389,237.75795689993538,238.25855739996769,237.75795689993538,238.25855739996769,237.75795689993538,238.25855739996769,237.75795689993538,238.25855739996769,237.75795689993538,238.25855739996769,237.75795689993538,238.25855739996769,237.75795689993538,238.25855739996769,237.75795689993538,238.25855739996769,237.20708029996604,None,238.25855739996769,240.02881920000073,0.5700000000000003,240.04438560002018,None,240.79580429999623,None,,,,,,,[1.7590625],3.3500000000000023,0.71875,12008,001,2024_Jun_14_1702,MFTM_A_new1021,2021.2.3,59.92297499346521,
,,,,,,,,stim/Instruction_adaptive.png,conditions/adaptive.xlsx,test,-0.6,-0.6,-0.6,0.6,0.6,left,L,,,,,0,1,1,1,0,32,32,49,,,,,,,,,,,,,,,,,,,,,,,,,,,,,,,,,,,,,,,,,,,,241.2965234000003,None,right,0,2.2360534999752417,241.7979429999832,242.94995519996155,241.7979429999832,242.44820500002243,241.7979429999832,242.44820500002243,241.7979429999832,242.44820500002243,241.7979429999832,242.44820500002243,241.7979429999832,242.44820500002243,242.43148989998735,242.93312159995548,242.43148989998735,242.93312159995548,242.43148989998735,242.93312159995548,242.43148989998735,242.93312159995548,242.43148989998735,242.93312159995548,242.43148989998735,242.93312159995548,242.43148989998735,242.93312159995548,242.43148989998735,242.93312159995548,241.7979429999832,None,242.93312159995548,244.70177929999772,0.6500000000000004,244.71836850000545,None,245.46949789999053,None,,,,,,,[1.76181818],3.1600000000000024,0.696969696969697,12008,001,2024_Jun_14_1702,MFTM_A_new1021,2021.2.3,59.92297499346521,
,,,,,,,,stim/Instruction_adaptive.png,conditions/adaptive.xlsx,test,-0.6,-0.6,-0.6,0.6,0.6,left,L,,,,,0,1,1,1,0,33,33,71,,,,,,,,,,,,,,,,,,,,,,,,,,,,,,,,,,,,,,,,,,,,245.97160679998342,None,left,1,1.5617295000702143,246.47171960002743,247.72414619999472,246.47171960002743,247.22192099993117,246.47171960002743,247.22192099993117,246.47171960002743,247.22192099993117,246.47171960002743,247.22192099993117,246.47171960002743,247.22192099993117,247.18876249995083,247.68942319997586,247.18876249995083,247.68942319997586,247.18876249995083,247.68942319997586,247.18876249995083,247.68942319997586,247.18876249995083,247.68942319997586,247.18876249995083,247.68942319997586,247.18876249995083,247.68942319997586,247.18876249995083,247.68942319997586,246.47171960002743,None,247.68942319997586,249.4596202999819,0.7400000000000004,249.47542129992507,None,250.2269317000173,None,,,,,,,[[1.76]],3.230000000000002,0.7058823529411765,12008,001,2024_Jun_14_1702,MFTM_A_new1021,2021.2.3,59.92297499346521,
,,,,,,,,stim/Instruction_adaptive.png,conditions/adaptive.xlsx,test,-0.6,-0.6,-0.6,0.6,0.6,left,L,,,,,0,1,1,1,0,34,34,17,,,,,,,,,,,,,,,,,,,,,,,,,,,,,,,,,,,,,,,,,,,,250.72856489999685,None,right,0,3.0779903000220656,251.2283810999943,252.43071729992516,251.2283810999943,251.93006719998084,251.2283810999943,251.93006719998084,251.2283810999943,251.93006719998084,251.2283810999943,251.93006719998084,251.2283810999943,251.93006719998084,251.9126592000248,252.41340309998486,251.9126592000248,252.41340309998486,251.9126592000248,252.41340309998486,251.9126592000248,252.41340309998486,251.9126592000248,252.41340309998486,251.9126592000248,252.41340309998486,251.9126592000248,252.41340309998486,251.9126592000248,252.41340309998486,251.2283810999943,None,252.41340309998486,254.33440079994034,0.7000000000000004,254.34918419993483,None,255.10152279993054,None,,,,,,,[1.76285714],3.0400000000000023,0.6857142857142857,12008,001,2024_Jun_14_1702,MFTM_A_new1021,2021.2.3,59.92297499346521,
,,,,,,,,stim/Instruction_adaptive.png,conditions/adaptive.xlsx,test,-0.6,-0.6,-0.6,0.6,0.6,left,L,,,,,0,1,1,1,0,35,35,93,,,,,,,,,,,,,,,,,,,,,,,,,,,,,,,,,,,,,,,,,,,,255.60203629999887,None,right,0,2.8920750999823213,256.1022302999627,257.40408689994365,256.1022302999627,256.9034117999254,256.1022302999627,256.9034117999254,256.1022302999627,256.9034117999254,256.1022302999627,256.9034117999254,256.1022302999627,256.9034117999254,256.8867937999312,257.38733229995705,256.8867937999312,257.38733229995705,256.8867937999312,257.38733229995705,256.8867937999312,257.38733229995705,256.8867937999312,257.38733229995705,256.8867937999312,257.38733229995705,256.8867937999312,257.38733229995705,256.8867937999312,257.38733229995705,256.1022302999627,None,257.38733229995705,259.0908937000204,0.8000000000000005,259.1075635999441,None,259.8579028999666,None,,,,,,,[[1.7]],2.830000000000002,0.6666666666666666,12008,001,2024_Jun_14_1702,MFTM_A_new1021,2021.2.3,59.92297499346521,
,,,,,,,,stim/Instruction_adaptive.png,conditions/adaptive.xlsx,test,-0.6,-0.6,-0.6,0.6,0.6,left,L,,,,,0,1,1,1,0,36,36,47,,,,,,,,,,,,,,,,,,,,,,,,,,,,,,,,,,,,,,,,,,,,260.3596481999848,None,left,1,1.4063386999769136,260.8601063999813,262.29470159998164,260.8601063999813,261.79417529993225,260.8601063999813,261.79417529993225,260.8601063999813,261.79417529993225,260.8601063999813,261.79417529993225,260.8601063999813,261.79417529993225,261.7774642999284,262.2781113999663,261.7774642999284,262.2781113999663,261.7774642999284,262.2781113999663,261.7774642999284,262.2781113999663,261.7774642999284,262.2781113999663,261.7774642999284,262.2781113999663,261.7774642999284,262.2781113999663,261.7774642999284,262.2781113999663,260.8601063999813,None,262.2781113999663,263.8482299000025,0.9300000000000006,263.86398799996823,None,264.6159160999814,None,,,,,,,[[1.57]],2.910000000000002,0.6756756756756757,12008,001,2024_Jun_14_1702,MFTM_A_new1021,2021.2.3,59.92297499346521,
,,,,,,,,stim/Instruction_adaptive.png,conditions/adaptive.xlsx,test,-0.6,-0.6,-0.6,0.6,0.6,left,L,,,,,0,1,1,1,0,37,37,85,,,,,,,,,,,,,,,,,,,,,,,,,,,,,,,,,,,,,,,,,,,,265.1165500000352,None,right,0,2.241900499910116,265.61644330003764,267.00191110000014,265.61644330003764,266.50120759999845,265.61644330003764,266.50120759999845,265.61644330003764,266.50120759999845,265.61644330003764,266.50120759999845,265.61644330003764,266.50120759999845,266.4843540999573,266.98541029996704,266.4843540999573,266.98541029996704,266.4843540999573,266.98541029996704,266.4843540999573,266.98541029996704,266.4843540999573,266.98541029996704,266.4843540999573,266.98541029996704,266.4843540999573,266.98541029996704,266.4843540999573,266.98541029996704,265.61644330003764,None,266.98541029996704,268.60523829993326,0.8800000000000006,268.621105600032,None,269.3722207000246,None,,,,,,,[[1.62]],2.690000000000002,0.6578947368421053,12008,001,2024_Jun_14_1702,MFTM_A_new1021,2021.2.3,59.92297499346521,
,,,,,,,,stim/Instruction_adaptive.png,conditions/adaptive.xlsx,test,-0.6,-0.6,-0.6,0.6,0.6,left,L,,,,,0,1,1,1,0,38,38,29,,,,,,,,,,,,,,,,,,,,,,,,,,,,,,,,,,,,,,,,,,,,269.8737109999638,None,left,1,2.859756199992262,270.3746689999243,271.9096734999912,270.3746689999243,271.40999209997244,270.3746689999243,271.40999209997244,270.3746689999243,271.40999209997244,270.3746689999243,271.40999209997244,270.3746689999243,271.40999209997244,271.3757882999489,271.8759147999808,271.3757882999489,271.8759147999808,271.3757882999489,271.8759147999808,271.3757882999489,271.8759147999808,271.3757882999489,271.8759147999808,271.3757882999489,271.8759147999808,271.3757882999489,271.8759147999808,271.3757882999489,271.8759147999808,270.3746689999243,None,271.8759147999808,273.3615480000153,1.0200000000000007,273.37827819993254,None,274.13017769996077,None,,,,,,,[[1.48]],2.7700000000000022,0.6666666666666666,12008,001,2024_Jun_14_1702,MFTM_A_new1021,2021.2.3,59.92297499346521,
,,,,,,,,stim/Instruction_adaptive.png,conditions/adaptive.xlsx,test,-0.6,-0.6,-0.6,0.6,0.6,left,L,,,,,0,1,1,1,0,39,39,61,,,,,,,,,,,,,,,,,,,,,,,,,,,,,,,,,,,,,,,,,,,,274.6301296999445,None,right,0,2.254804600030184,275.131219199975,276.600950299995,275.131219199975,276.09977249999065,275.131219199975,276.09977249999065,275.131219199975,276.09977249999065,275.131219199975,276.09977249999065,275.131219199975,276.09977249999065,276.06581569998525,276.566495200037,276.06581569998525,276.566495200037,276.06581569998525,276.566495200037,276.06581569998525,276.566495200037,276.06581569998525,276.566495200037,276.06581569998525,276.566495200037,276.06581569998525,276.566495200037,276.06581569998525,276.566495200037,275.131219199975,None,276.566495200037,278.1188755999319,0.9600000000000006,278.13576159998775,None,278.8871830999851,None,,,,,,,[[1.54]],2.540000000000002,0.65,12008,001,2024_Jun_14_1702,MFTM_A_new1021,2021.2.3,59.92297499346521,
,,,,,,,,stim/Instruction_adaptive.png,conditions/adaptive.xlsx,test,0.6,0.6,0.6,-0.6,-0.6,right,R,,,,,0,1,1,1,0,40,40,30,,,,,,,,,,,,,,,,,,,,,,,,,,,,,,,,,,,,,,,,,,,,279.3872141999891,None,right,1,1.8428329000016674,279.8881892999634,281.5236506999936,279.8881892999634,281.02331209997647,279.8881892999634,281.02331209997647,279.8881892999634,281.02331209997647,279.8881892999634,281.02331209997647,279.8881892999634,281.02331209997647,281.0066697000293,281.5081819000188,281.0066697000293,281.5081819000188,281.0066697000293,281.5081819000188,281.0066697000293,281.5081819000188,281.0066697000293,281.5081819000188,281.0066697000293,281.5081819000188,281.0066697000293,281.5081819000188,281.0066697000293,281.5081819000188,279.8881892999634,None,281.5081819000188,None,1.1300000000000008,282.89263749995735,None,283.64471659995615,None,,,,,,,[[1.37]],2.6300000000000017,0.6585365853658537,12008,001,2024_Jun_14_1702,MFTM_A_new1021,2021.2.3,59.92297499346521,
,,,,,,,,stim/Instruction_adaptive.png,conditions/adaptive.xlsx,test,-0.6,-0.6,-0.6,0.6,0.6,left,L,,,,,0,1,1,1,0,41,41,95,,,,,,,,,,,,,,,,,,,,,,,,,,,,,,,,,,,,,,,,,,,,284.1454101999989,None,left,1,1.813619300024584,284.6450975999469,286.21518669999205,284.6450975999469,285.714448899962,284.6450975999469,285.714448899962,284.6450975999469,285.714448899962,284.6450975999469,285.714448899962,284.6450975999469,285.714448899962,285.6806804999942,286.18099389993586,285.6806804999942,286.18099389993586,285.6806804999942,286.18099389993586,285.6806804999942,286.18099389993586,285.6806804999942,286.18099389993586,285.6806804999942,286.18099389993586,285.6806804999942,286.18099389993586,285.6806804999942,286.18099389993586,284.6450975999469,None,286.18099389993586,287.6337114999769,1.0600000000000007,287.6496086999541,None,288.40101449994836,None,,,,,,,[[1.44]],2.700000000000002,0.6666666666666666,12008,001,2024_Jun_14_1702,MFTM_A_new1021,2021.2.3,59.92297499346521,
,,,,,,,,stim/Instruction_adaptive.png,conditions/adaptive.xlsx,test,0.6,0.6,0.6,-0.6,-0.6,right,R,,,,,0,1,1,1,0,42,42,38,,,,,,,,,,,,,,,,,,,,,,,,,,,,,,,,,,,,,,,,,,,,288.9035687999567,None,right,1,2.5284600999439135,289.40218420000747,290.92244150000624,289.40218420000747,290.4211218999699,289.40218420000747,290.4211218999699,289.40218420000747,290.4211218999699,289.40218420000747,290.4211218999699,289.40218420000747,290.4211218999699,290.4041900000302,290.90582839993294,290.4041900000302,290.90582839993294,290.4041900000302,290.90582839993294,290.4041900000302,290.90582839993294,290.4041900000302,290.90582839993294,290.4041900000302,290.90582839993294,290.4041900000302,290.90582839993294,290.4041900000302,290.90582839993294,289.40218420000747,None,290.8889339999296,292.3901656999951,1.0100000000000007,292.40695079998113,None,293.1579595999792,None,,,,,,,[[1.49]],2.7700000000000022,0.6744186046511628,12008,001,2024_Jun_14_1702,MFTM_A_new1021,2021.2.3,59.92297499346521,
,,,,,,,,stim/Instruction_adaptive.png,conditions/adaptive.xlsx,test,-0.6,-0.6,-0.6,0.6,0.6,left,L,,,,,0,1,1,1,0,43,43,59,,,,,,,,,,,,,,,,,,,,,,,,,,,,,,,,,,,,,,,,,,,,293.659592699958,None,right,0,2.1792198999319226,294.159696699935,295.6283258999465,294.159696699935,295.1275740999263,294.159696699935,295.1275740999263,294.159696699935,295.1275740999263,294.159696699935,295.1275740999263,294.159696699935,295.1275740999263,295.11079890001565,295.61206249997485,295.11079890001565,295.61206249997485,295.11079890001565,295.61206249997485,295.11079890001565,295.61206249997485,295.11079890001565,295.61206249997485,295.11079890001565,295.61206249997485,295.11079890001565,295.61206249997485,295.11079890001565,295.61206249997485,294.159696699935,None,295.5961258999305,297.14747229998466,0.9600000000000006,297.16482820000965,None,297.91602280002553,None,,,,,,,[[1.54]],2.580000000000002,0.6590909090909091,12008,001,2024_Jun_14_1702,MFTM_A_new1021,2021.2.3,59.92297499346521,
,,,,,,,,stim/Instruction_adaptive.png,conditions/adaptive.xlsx,test,0.6,0.6,0.6,-0.6,-0.6,right,R,,,,,0,1,1,1,0,44,44,70,,,,,,,,,,,,,,,,,,,,,,,,,,,,,,,,,,,,,,,,,,,,298.4159690999659,None,right,1,1.9502019000938162,298.91681049996987,300.5196660000365,298.91681049996987,300.01852569996845,298.91681049996987,300.01852569996845,298.91681049996987,300.01852569996845,298.91681049996987,300.01852569996845,298.91681049996987,300.01852569996845,300.00191550003365,300.50257729995064,300.00191550003365,300.50257729995064,300.00191550003365,300.50257729995064,300.00191550003365,300.50257729995064,300.00191550003365,300.50257729995064,300.00191550003365,300.50257729995064,300.00191550003365,300.50257729995064,300.00191550003365,300.50257729995064,298.91681049996987,None,300.50257729995064,301.9045674999943,1.1000000000000008,301.9213298999239,None,302.67316070001107,None,,,,,,,[[1.4]],2.650000000000002,0.6666666666666666,12008,001,2024_Jun_14_1702,MFTM_A_new1021,2021.2.3,59.92297499346521,
,,,,,,,,stim/Instruction_adaptive.png,conditions/adaptive.xlsx,test,0.6,0.6,0.6,-0.6,-0.6,right,R,,,,,0,1,1,1,0,45,45,10,,,,,,,,,,,,,,,,,,,,,,,,,,,,,,,,,,,,,,,,,,,,303.17405339994,None,right,1,1.3293558000586927,303.6740526999347,305.22751909994986,303.6740526999347,304.72579419997055,303.6740526999347,304.72579419997055,303.6740526999347,304.72579419997055,303.6740526999347,304.72579419997055,303.6740526999347,304.72579419997055,304.7088363999501,305.2095556999557,304.7088363999501,305.2095556999557,304.7088363999501,305.2095556999557,304.7088363999501,305.2095556999557,304.7088363999501,305.2095556999557,304.7088363999501,305.2095556999557,304.7088363999501,305.2095556999557,304.7088363999501,305.2095556999557,303.6740526999347,None,305.2095556999557,306.66158329998143,1.0500000000000007,306.678533499944,None,307.4297694999259,None,,,,,,,[[1.45]],2.7100000000000017,0.6739130434782609,12008,001,2024_Jun_14_1702,MFTM_A_new1021,2021.2.3,59.92297499346521,
,,,,,,,,stim/Instruction_adaptive.png,conditions/adaptive.xlsx,test,-0.6,-0.6,-0.6,0.6,0.6,left,L,,,,,0,1,1,1,0,46,46,31,,,,,,,,,,,,,,,,,,,,,,,,,,,,,,,,,,,,,,,,,,,,307.93061779998243,None,right,0,3.163884700043127,308.43145909998566,309.95099039992783,308.43145909998566,309.4496500999667,308.43145909998566,309.4496500999667,308.43145909998566,309.4496500999667,308.43145909998566,309.4496500999667,308.43145909998566,309.4496500999667,309.415753499954,309.9175667000236,309.415753499954,309.9175667000236,309.415753499954,309.9175667000236,309.415753499954,309.9175667000236,309.415753499954,309.9175667000236,309.415753499954,309.9175667000236,309.415753499954,309.9175667000236,309.415753499954,309.9175667000236,308.43145909998566,None,309.9175667000236,311.61915449996013,1.0100000000000007,311.63582650001626,None,312.3870828000363,None,,,,,,,[[1.49]],2.530000000000002,0.6595744680851063,12008,001,2024_Jun_14_1702,MFTM_A_new1021,2021.2.3,59.92297499346521,
,,,,,,,,stim/Instruction_adaptive.png,conditions/adaptive.xlsx,test,0.6,0.6,0.6,-0.6,-0.6,right,R,,,,,0,1,1,1,0,47,47,58,,,,,,,,,,,,,,,,,,,,,,,,,,,,,,,,,,,,,,,,,,,,312.88785389997065,None,right,1,1.0546077000908554,313.388577500009,315.0423451999668,313.388577500009,314.54147369996645,313.388577500009,314.54147369996645,313.388577500009,314.54147369996645,313.388577500009,314.54147369996645,313.388577500009,314.54147369996645,314.50780180003494,315.0081409999402,314.50780180003494,315.0081409999402,314.50780180003494,315.0081409999402,314.50780180003494,315.0081409999402,314.50780180003494,315.0081409999402,314.50780180003494,315.0081409999402,314.50780180003494,315.0081409999402,314.50780180003494,315.0081409999402,313.388577500009,None,315.0081409999402,316.3778615000192,1.1400000000000008,316.3930805999553,None,317.14429209998343,None,,,,,,,[[1.36]],2.5900000000000016,0.6666666666666666,12008,001,2024_Jun_14_1702,MFTM_A_new1021,2021.2.3,59.92297499346521,
,,,,,,,,stim/Instruction_adaptive.png,conditions/adaptive.xlsx,test,-0.6,-0.6,-0.6,0.6,0.6,left,L,,,,,0,1,1,1,0,48,48,67,,,,,,,,,,,,,,,,,,,,,,,,,,,,,,,,,,,,,,,,,,,,317.6449864000315,None,right,0,2.777841300005093,318.14577429997735,319.7482242999831,318.14577429997735,319.2481685000239,318.14577429997735,319.2481685000239,318.14577429997735,319.2481685000239,318.14577429997735,319.2481685000239,318.14577429997735,319.2481685000239,319.2141239999328,319.7148905999493,319.2141239999328,319.7148905999493,319.2141239999328,319.7148905999493,319.2141239999328,319.7148905999493,319.2141239999328,319.7148905999493,319.2141239999328,319.7148905999493,319.2141239999328,319.7148905999493,319.2141239999328,319.7148905999493,318.14577429997735,None,319.7148905999493,321.13345319998916,1.0900000000000007,321.1500937999226,None,321.90261450002436,None,,,,,,,[[1.41]],2.4000000000000017,0.6530612244897959,12008,001,2024_Jun_14_1702,MFTM_A_new1021,2021.2.3,59.92297499346521,
,,,,,,,,stim/Instruction_adaptive.png,conditions/adaptive.xlsx,test,0.6,0.6,0.6,-0.6,-0.6,right,R,,,,,0,1,1,1,0,49,49,82,,,,,,,,,,,,,,,,,,,,,,,,,,,,,,,,,,,,,,,,,,,,322.4021999000106,None,right,1,2.49260829994455,322.9030394000001,324.65539299999364,322.9030394000001,324.15485839999747,322.9030394000001,324.15485839999747,322.9030394000001,324.15485839999747,322.9030394000001,324.15485839999747,322.9030394000001,324.15485839999747,324.1385253999615,324.6389854999725,324.1385253999615,324.6389854999725,324.1385253999615,324.6389854999725,324.1385253999615,324.6389854999725,324.1385253999615,324.6389854999725,324.1385253999615,324.6389854999725,324.1385253999615,324.6389854999725,324.1385253999615,324.6389854999725,322.9030394000001,None,324.6389854999725,325.8909408999607,1.2500000000000009,325.9074151000241,None,326.65983729995787,None,,,,,,,[[1.25]],2.4700000000000015,0.66,12008,001,2024_Jun_14_1702,MFTM_A_new1021,2021.2.3,59.92297499346521,
,,,,,,,,stim/Instruction_adaptive.png,conditions/adaptive.xlsx,test,0.6,0.6,0.6,-0.6,-0.6,right,R,,,,,0,1,1,1,0,50,50,78,,,,,,,,,,,,,,,,,,,,,,,,,,,,,,,,,,,,,,,,,,,,327.16023639997,None,left,0,2.8066047999309376,327.660944400006,329.36302259995136,327.660944400006,328.86205859994516,327.660944400006,328.86205859994516,327.660944400006,328.86205859994516,327.660944400006,328.86205859994516,327.660944400006,328.86205859994516,328.8285398000153,329.3292803999502,328.8285398000153,329.3292803999502,328.8285398000153,329.3292803999502,328.8285398000153,329.3292803999502,328.8285398000153,329.3292803999502,328.8285398000153,329.3292803999502,328.8285398000153,329.3292803999502,328.8285398000153,329.3292803999502,327.660944400006,None,329.3292803999502,330.6485238999594,1.1900000000000008,330.6638969000196,None,331.4157618000172,None,,,,,,,[[1.31]],2.2700000000000014,0.6470588235294118,12008,001,2024_Jun_14_1702,MFTM_A_new1021,2021.2.3,59.92297499346521,
,,,,,,,,stim/Instruction_adaptive.png,conditions/adaptive.xlsx,test,-0.6,-0.6,-0.6,0.6,0.6,left,L,,,,,0,1,1,1,0,51,51,33,,,,,,,,,,,,,,,,,,,,,,,,,,,,,,,,,,,,,,,,,,,,331.9165664999746,None,left,1,2.0586571000749245,332.41727939993143,334.28707089996897,332.41727939993143,333.78596799995285,332.41727939993143,333.78596799995285,332.41727939993143,333.78596799995285,332.41727939993143,333.78596799995285,332.41727939993143,333.78596799995285,333.75273670000024,334.25340729998425,333.75273670000024,334.25340729998425,333.75273670000024,334.25340729998425,333.75273670000024,334.25340729998425,333.75273670000024,334.25340729998425,333.75273670000024,334.25340729998425,333.75273670000024,334.25340729998425,333.75273670000024,334.25340729998425,332.41727939993143,None,334.25340729998425,335.40608739992604,1.360000000000001,335.4222137000179,None,336.17386550002266,None,,,,,,,[[1.14]],2.3400000000000016,0.6538461538461539,12008,001,2024_Jun_14_1702,MFTM_A_new1021,2021.2.3,59.92297499346521,
,,,,,,,,stim/Instruction_adaptive.png,conditions/adaptive.xlsx,test,0.6,0.6,0.6,-0.6,-0.6,right,R,,,,,0,1,1,1,0,52,52,76,,,,,,,,,,,,,,,,,,,,,,,,,,,,,,,,,,,,,,,,,,,,336.67415690002963,None,right,1,1.6616881000809371,337.17433910002,338.97708809992764,337.17433910002,338.4765981999226,337.17433910002,338.4765981999226,337.17433910002,338.4765981999226,337.17433910002,338.4765981999226,337.17433910002,338.4765981999226,338.4597392999567,338.9606215999229,338.4597392999567,338.9606215999229,338.4597392999567,338.9606215999229,338.4597392999567,338.9606215999229,338.4597392999567,338.9606215999229,338.4597392999567,338.9606215999229,338.4597392999567,338.9606215999229,338.4597392999567,338.9606215999229,337.17433910002,None,338.9606215999229,340.16317780001555,1.300000000000001,340.17909440002404,None,340.93081639998127,None,,,,,,,[[1.2]],2.410000000000002,0.660377358490566,12008,001,2024_Jun_14_1702,MFTM_A_new1021,2021.2.3,59.92297499346521,
,,,,,,,,stim/Instruction_adaptive.png,conditions/adaptive.xlsx,test,-0.6,-0.6,-0.6,0.6,0.6,left,L,,,,,0,1,1,1,0,53,53,87,,,,,,,,,,,,,,,,,,,,,,,,,,,,,,,,,,,,,,,,,,,,341.4308561999351,None,right,0,2.1051361999707296,341.931503299973,343.68428419996053,341.931503299973,343.1840489000315,341.931503299973,343.1840489000315,341.931503299973,343.1840489000315,341.931503299973,343.1840489000315,341.931503299973,343.1840489000315,343.15051549999043,343.65178419998847,343.15051549999043,343.65178419998847,343.15051549999043,343.65178419998847,343.15051549999043,343.65178419998847,343.15051549999043,343.65178419998847,343.15051549999043,343.65178419998847,343.15051549999043,343.65178419998847,343.15051549999043,343.65178419998847,341.931503299973,None,343.65178419998847,344.919471399975,1.2400000000000009,344.9367363000056,None,345.6874019999523,None,,,,,,,[[1.26]],2.2200000000000015,0.6481481481481481,12008,001,2024_Jun_14_1702,MFTM_A_new1021,2021.2.3,59.92297499346521,
,,,,,,,,stim/Instruction_adaptive.png,conditions/adaptive.xlsx,test,0.6,0.6,0.6,-0.6,-0.6,right,R,,,,,0,1,1,1,0,54,54,14,,,,,,,,,,,,,,,,,,,,,,,,,,,,,,,,,,,,,,,,,,,,346.1886738999747,None,right,1,1.9546623999485746,346.6893159999745,348.6085065000225,346.6893159999745,348.10770379996393,346.6893159999745,348.10770379996393,346.6893159999745,348.10770379996393,346.6893159999745,348.10770379996393,346.6893159999745,348.10770379996393,348.07418140000664,348.5756827000296,348.07418140000664,348.5756827000296,348.07418140000664,348.5756827000296,348.07418140000664,348.5756827000296,348.07418140000664,348.5756827000296,348.07418140000664,348.5756827000296,348.07418140000664,348.5756827000296,348.07418140000664,348.5756827000296,346.6893159999745,None,348.5756827000296,349.67732669995166,1.410000000000001,349.6936853999505,None,350.4445007999893,None,,,,,,,[[1.09]],2.290000000000002,0.6545454545454545,12008,001,2024_Jun_14_1702,MFTM_A_new1021,2021.2.3,59.92297499346521,
,,,,,,,,stim/Instruction_adaptive.png,conditions/adaptive.xlsx,test,-0.6,-0.6,-0.6,0.6,0.6,left,L,,,,,0,1,1,1,0,55,55,21,,,,,,,,,,,,,,,,,,,,,,,,,,,,,,,,,,,,,,,,,,,,350.94516509992536,None,left,1,2.1506143000442535,351.44596689997707,353.29897210001945,351.44596689997707,352.79810429993086,351.44596689997707,352.79810429993086,351.44596689997707,352.79810429993086,351.44596689997707,352.79810429993086,351.44596689997707,352.79810429993086,352.78158750000875,353.28210860001855,352.78158750000875,353.28210860001855,352.78158750000875,353.28210860001855,352.78158750000875,353.28210860001855,352.78158750000875,353.28210860001855,352.78158750000875,353.28210860001855,352.78158750000875,353.28210860001855,352.78158750000875,353.28210860001855,351.44596689997707,None,353.28210860001855,354.4339590999298,1.350000000000001,354.4506343000103,None,355.2024267000379,None,,,,,,,[[1.15]],2.3500000000000014,0.6607142857142857,12008,001,2024_Jun_14_1702,MFTM_A_new1021,2021.2.3,59.92297499346521,
,,,,,,,,stim/Instruction_adaptive.png,conditions/adaptive.xlsx,test,0.6,0.6,0.6,-0.6,-0.6,right,R,,,,,0,1,1,1,0,56,56,28,,,,,,,,,,,,,,,,,,,,,,,,,,,,,,,,,,,,,,,,,,,,355.7035945999669,None,right,1,1.6085484999930486,356.20440349995624,358.00571689999197,356.20440349995624,357.5050248999614,356.20440349995624,357.5050248999614,356.20440349995624,357.5050248999614,356.20440349995624,357.5050248999614,356.20440349995624,357.5050248999614,357.47173430002294,357.9733801999828,357.47173430002294,357.9733801999828,357.47173430002294,357.9733801999828,357.47173430002294,357.9733801999828,357.47173430002294,357.9733801999828,357.47173430002294,357.9733801999828,357.47173430002294,357.9733801999828,357.47173430002294,357.9733801999828,356.20440349995624,None,357.9733801999828,359.1920322999358,1.290000000000001,359.20809269999154,None,359.9595674999291,None,,,,,,,[[1.21]],2.410000000000002,0.6666666666666666,12008,001,2024_Jun_14_1702,MFTM_A_new1021,2021.2.3,59.92297499346521,
,,,,,,,,stim/Instruction_adaptive.png,conditions/adaptive.xlsx,test,-0.6,-0.6,-0.6,0.6,0.6,left,L,,,,,0,1,1,1,0,57,57,91,,,,,,,,,,,,,,,,,,,,,,,,,,,,,,,,,,,,,,,,,,,,360.45963289996143,None,right,0,2.41224939993117,360.96026179997716,362.71414509997703,360.96026179997716,362.2121836999431,360.96026179997716,362.2121836999431,360.96026179997716,362.2121836999431,360.96026179997716,362.2121836999431,360.96026179997716,362.2121836999431,362.17972310003825,362.6803344000364,362.17972310003825,362.6803344000364,362.17972310003825,362.6803344000364,362.17972310003825,362.6803344000364,362.17972310003825,362.6803344000364,362.17972310003825,362.6803344000364,362.17972310003825,362.6803344000364,362.17972310003825,362.6803344000364,360.96026179997716,None,362.6803344000364,363.94807399995625,1.2400000000000009,363.9648605999537,None,364.7166177999461,None,,,,,,,[[1.26]],2.2400000000000015,0.6551724137931034,12008,001,2024_Jun_14_1702,MFTM_A_new1021,2021.2.3,59.92297499346521,
,,,,,,,,stim/Instruction_adaptive.png,conditions/adaptive.xlsx,test,0.6,0.6,0.6,-0.6,-0.6,right,R,,,,,0,1,1,1,0,58,58,4,,,,,,,,,,,,,,,,,,,,,,,,,,,,,,,,,,,,,,,,,,,,365.21685369999614,None,right,1,2.2074181999778375,365.7175589000108,367.62062739999965,365.7175589000108,367.1210352999624,365.7175589000108,367.1210352999624,365.7175589000108,367.1210352999624,365.7175589000108,367.1210352999624,365.7175589000108,367.1210352999624,367.08626489993185,367.5878966000164,367.08626489993185,367.5878966000164,367.08626489993185,367.5878966000164,367.08626489993185,367.5878966000164,367.08626489993185,367.5878966000164,367.08626489993185,367.5878966000164,367.08626489993185,367.5878966000164,367.08626489993185,367.5878966000164,365.7175589000108,None,367.5878966000164,368.70673460001126,1.390000000000001,368.7215187000111,None,369.4730806000298,None,,,,,,,[[1.11]],2.3000000000000016,0.6610169491525424,12008,001,2024_Jun_14_1702,MFTM_A_new1021,2021.2.3,59.92297499346521,
,,,,,,,,stim/Instruction_adaptive.png,conditions/adaptive.xlsx,test,-0.6,-0.6,-0.6,0.6,0.6,left,L,,,,,0,1,1,1,0,59,59,65,,,,,,,,,,,,,,,,,,,,,,,,,,,,,,,,,,,,,,,,,,,,369.9751826999709,None,left,1,2.0175196999916807,370.4754687999375,372.3274320999626,370.4754687999375,371.82671299995854,370.4754687999375,371.82671299995854,370.4754687999375,371.82671299995854,370.4754687999375,371.82671299995854,370.4754687999375,371.82671299995854,371.79447439999785,372.2952287000371,371.79447439999785,372.2952287000371,371.79447439999785,372.2952287000371,371.79447439999785,372.2952287000371,371.79447439999785,372.2952287000371,371.79447439999785,372.2952287000371,371.79447439999785,372.2952287000371,371.79447439999785,372.2952287000371,370.4754687999375,None,372.2952287000371,373.46323659992777,1.340000000000001,373.47998950001784,None,374.23103959998116,None,,,,,,,[[1.16]],2.3600000000000017,0.6666666666666666,12008,001,2024_Jun_14_1702,MFTM_A_new1021,2021.2.3,59.92297499346521,
,,,,,,,,stim/Instruction_adaptive.png,conditions/adaptive.xlsx,test,-0.6,-0.6,-0.6,0.6,0.6,left,L,,,,,0,1,1,1,0,60,60,89,,,,,,,,,,,,,,,,,,,,,,,,,,,,,,,,,,,,,,,,,,,,374.7318140999414,None,left,1,2.0050702000735328,375.23178839997854,377.018065799959,375.23178839997854,376.51702100003604,375.23178839997854,376.51702100003604,375.23178839997854,376.51702100003604,375.23178839997854,376.51702100003604,375.23178839997854,376.51702100003604,376.50144509994425,377.00124539993703,376.50144509994425,377.00124539993703,376.50144509994425,377.00124539993703,376.50144509994425,377.00124539993703,376.50144509994425,377.00124539993703,376.50144509994425,377.00124539993703,376.50144509994425,377.00124539993703,376.50144509994425,377.00124539993703,375.23178839997854,None,377.00124539993703,378.22071050002705,1.280000000000001,378.2364768999396,None,378.98765419994015,None,,,,,,,[[1.22]],2.410000000000002,0.6721311475409836,12008,001,2024_Jun_14_1702,MFTM_A_new1021,2021.2.3,59.92297499346521,
,,,,,,,,stim/Instruction_adaptive.png,conditions/adaptive.xlsx,test,0.6,0.6,0.6,-0.6,-0.6,right,R,,,,,0,1,1,1,0,61,61,88,,,,,,,,,,,,,,,,,,,,,,,,,,,,,,,,,,,,,,,,,,,,379.48801780003123,None,right,1,1.6404892000136897,379.9889319000067,381.74184429994784,379.9889319000067,381.2409821000183,379.9889319000067,381.2409821000183,379.9889319000067,381.2409821000183,379.9889319000067,381.2409821000183,379.9889319000067,381.2409821000183,381.2075491999276,381.7094710000092,381.2075491999276,381.7094710000092,381.2075491999276,381.7094710000092,381.2075491999276,381.7094710000092,381.2075491999276,381.7094710000092,381.2075491999276,381.7094710000092,381.2075491999276,381.7094710000092,381.2075491999276,381.7094710000092,379.9889319000067,None,381.7094710000092,382.97697319998406,1.2400000000000009,382.99359349999577,None,383.7447496999521,None,,,,,,,[[1.26]],2.4600000000000017,0.6774193548387096,12008,001,2024_Jun_14_1702,MFTM_A_new1021,2021.2.3,59.92297499346521,
,,,,,,,,stim/Instruction_adaptive.png,conditions/adaptive.xlsx,test,0.6,0.6,0.6,-0.6,-0.6,right,R,,,,,0,1,1,1,0,62,62,74,,,,,,,,,,,,,,,,,,,,,,,,,,,,,,,,,,,,,,,,,,,,384.2453633999685,None,right,1,1.7535140999825671,384.74760789994616,386.44881660002284,384.74760789994616,385.94817879993934,384.74760789994616,385.94817879993934,384.74760789994616,385.94817879993934,384.74760789994616,385.94817879993934,384.74760789994616,385.94817879993934,385.9321674000239,386.43217239994556,385.9321674000239,386.43217239994556,385.9321674000239,386.43217239994556,385.9321674000239,386.43217239994556,385.9321674000239,386.43217239994556,385.9321674000239,386.43217239994556,385.9321674000239,386.43217239994556,385.9321674000239,386.43217239994556,384.74760789994616,None,386.43217239994556,387.735126900021,1.2000000000000008,387.75079880002886,None,388.50267349998467,None,,,,,,,[[1.3]],2.5100000000000016,0.6825396825396826,12008,001,2024_Jun_14_1702,MFTM_A_new1021,2021.2.3,59.92297499346521,
,,,,,,,,stim/Instruction_adaptive.png,conditions/adaptive.xlsx,test,0.6,0.6,0.6,-0.6,-0.6,right,R,,,,,0,1,1,1,0,63,63,80,,,,,,,,,,,,,,,,,,,,,,,,,,,,,,,,,,,,,,,,,,,,389.00245909998193,None,right,1,2.0466180000221357,389.50335859996267,391.1561568999896,389.50335859996267,390.65547629992943,389.50335859996267,390.65547629992943,389.50335859996267,390.65547629992943,389.50335859996267,390.65547629992943,389.50335859996267,390.65547629992943,390.6391362999566,391.13927009992767,390.6391362999566,391.13927009992767,390.6391362999566,391.13927009992767,390.6391362999566,391.13927009992767,390.6391362999566,391.13927009992767,390.6391362999566,391.13927009992767,390.6391362999566,391.13927009992767,390.6391362999566,391.13927009992767,389.50335859996267,None,391.13927009992767,392.4913237999426,1.1500000000000008,392.5081881999504,None,393.2603163999738,None,,,,,,,[[1.35]],2.5500000000000016,0.6875,12008,001,2024_Jun_14_1702,MFTM_A_new1021,2021.2.3,59.92297499346521,
,,,,,,,,stim/Instruction_adaptive.png,conditions/adaptive.xlsx,test,-0.6,-0.6,-0.6,0.6,0.6,left,L,,,,,0,1,1,1,0,64,64,75,,,,,,,,,,,,,,,,,,,,,,,,,,,,,,,,,,,,,,,,,,,,393.759705399978,None,right,0,2.1850051999790594,394.26060219993815,395.88043180003297,394.26060219993815,395.3956344999606,394.26060219993815,395.3956344999606,394.26060219993815,395.3956344999606,394.26060219993815,395.3956344999606,394.26060219993815,395.3956344999606,395.3624732999597,395.86379179998767,395.3624732999597,395.86379179998767,395.3624732999597,395.86379179998767,395.3624732999597,395.86379179998767,395.3624732999597,395.86379179998767,395.3624732999597,395.86379179998767,395.3624732999597,395.86379179998767,395.3624732999597,395.86379179998767,394.26060219993815,None,395.86379179998767,397.24810650001746,1.1200000000000008,397.26489530003164,None,398.016164700035,None,,,,,,,[[1.38]],2.4200000000000017,0.676923076923077,12008,001,2024_Jun_14_1702,MFTM_A_new1021,2021.2.3,59.92297499346521,
,,,,,,,,stim/Instruction_adaptive.png,conditions/adaptive.xlsx,test,0.6,0.6,0.6,-0.6,-0.6,right,R,,,,,0,1,1,1,0,65,65,46,,,,,,,,,,,,,,,,,,,,,,,,,,,,,,,,,,,,,,,,,,,,398.5176965999417,None,right,1,2.1166820999933407,399.01833729993086,400.75373050000053,399.01833729993086,400.25314419995993,399.01833729993086,400.25314419995993,399.01833729993086,400.25314419995993,399.01833729993086,400.25314419995993,399.01833729993086,400.25314419995993,400.2363125999691,400.7369389999658,400.2363125999691,400.7369389999658,400.2363125999691,400.7369389999658,400.2363125999691,400.7369389999658,400.2363125999691,400.7369389999658,400.2363125999691,400.7369389999658,400.2363125999691,400.7369389999658,400.2363125999691,400.7369389999658,399.01833729993086,None,400.7369389999658,402.0063558999682,1.2300000000000009,402.02209199999925,None,402.7732119000284,None,,,,,,,[[1.27]],2.4700000000000015,0.6818181818181818,12008,001,2024_Jun_14_1702,MFTM_A_new1021,2021.2.3,59.92297499346521,
,,,,,,,,stim/Instruction_adaptive.png,conditions/adaptive.xlsx,test,-0.6,-0.6,-0.6,0.6,0.6,left,L,,,,,0,1,1,1,0,66,66,1,,,,,,,,,,,,,,,,,,,,,,,,,,,,,,,,,,,,,,,,,,,,403.27425030001905,None,left,1,1.90352549997624,403.77476930001285,405.47790179995354,403.77476930001285,404.9767847999465,403.77476930001285,404.9767847999465,403.77476930001285,404.9767847999465,403.77476930001285,404.9767847999465,403.77476930001285,404.9767847999465,404.9434487000108,405.4441232000245,404.9434487000108,405.4441232000245,404.9434487000108,405.4441232000245,404.9434487000108,405.4441232000245,404.9434487000108,405.4441232000245,404.9434487000108,405.4441232000245,404.9434487000108,405.4441232000245,404.9434487000108,405.4441232000245,403.77476930001285,None,405.4441232000245,406.7637648000382,1.1900000000000008,406.78076039999723,None,407.53027879993897,None,,,,,,,[[1.31]],2.5100000000000016,0.6865671641791045,12008,001,2024_Jun_14_1702,MFTM_A_new1021,2021.2.3,59.92297499346521,
,,,,,,,,stim/Instruction_adaptive.png,conditions/adaptive.xlsx,test,-0.6,-0.6,-0.6,0.6,0.6,left,L,,,,,0,1,1,1,0,67,67,57,,,,,,,,,,,,,,,,,,,,,,,,,,,,,,,,,,,,,,,,,,,,408.03173239994794,None,right,0,2.217899899929762,408.5320126999868,410.1852216999978,408.5320126999868,409.68429110001307,408.5320126999868,409.68429110001307,408.5320126999868,409.68429110001307,408.5320126999868,409.68429110001307,408.5320126999868,409.68429110001307,409.66814429999795,410.1681760000065,409.66814429999795,410.1681760000065,409.66814429999795,410.1681760000065,409.66814429999795,410.1681760000065,409.66814429999795,410.1681760000065,409.66814429999795,410.1681760000065,409.66814429999795,410.1681760000065,409.66814429999795,410.1681760000065,408.5320126999868,None,410.1681760000065,411.52079550002236,1.1500000000000008,411.535971299978,None,412.28937829995994,None,,,,,,,[[1.35]],2.3900000000000015,0.6764705882352942,12008,001,2024_Jun_14_1702,MFTM_A_new1021,2021.2.3,59.92297499346521,
,,,,,,,,stim/Instruction_adaptive.png,conditions/adaptive.xlsx,test,0.6,0.6,0.6,-0.6,-0.6,right,R,,,,,0,1,1,1,0,68,68,60,,,,,,,,,,,,,,,,,,,,,,,,,,,,,,,,,,,,,,,,,,,,412.7886079000309,None,left,0,3.460493399994448,413.28969879995566,415.05941119999625,413.28969879995566,414.5578364999965,413.28969879995566,414.5578364999965,413.28969879995566,414.5578364999965,413.28969879995566,414.5578364999965,413.28969879995566,414.5578364999965,414.5244883999694,415.02657310001086,414.5244883999694,415.02657310001086,414.5244883999694,415.02657310001086,414.5244883999694,415.02657310001086,414.5244883999694,415.02657310001086,414.5244883999694,415.02657310001086,414.5244883999694,415.02657310001086,414.5244883999694,415.02657310001086,413.28969879995566,None,415.02657310001086,416.7778919999255,1.260000000000001,416.79482940002345,None,417.5455790000269,None,,,,,,,[[1.24]],2.2600000000000016,0.6666666666666666,12008,001,2024_Jun_14_1702,MFTM_A_new1021,2021.2.3,59.92297499346521,
,,,,,,,,stim/Instruction_adaptive.png,conditions/adaptive.xlsx,test,-0.6,-0.6,-0.6,0.6,0.6,left,L,,,,,0,1,1,1,0,69,69,35,,,,,,,,,,,,,,,,,,,,,,,,,,,,,,,,,,,,,,,,,,,,418.04637350002304,None,left,1,2.1555201000301167,418.54714209993836,420.4179914999986,418.54714209993836,419.9160106999334,418.54714209993836,419.9160106999334,418.54714209993836,419.9160106999334,418.54714209993836,419.9160106999334,418.54714209993836,419.9160106999334,419.8996237999527,420.4004452000372,419.8996237999527,420.4004452000372,419.8996237999527,420.4004452000372,419.8996237999527,420.4004452000372,419.8996237999527,420.4004452000372,419.8996237999527,420.4004452000372,419.8996237999527,420.4004452000372,419.8996237999527,420.4004452000372,418.54714209993836,None,420.4004452000372,421.53488910000306,1.370000000000001,421.55162299994845,None,422.30285380000714,None,,,,,,,[[1.13]],2.3000000000000016,0.6714285714285714,12008,001,2024_Jun_14_1702,MFTM_A_new1021,2021.2.3,59.92297499346521,
,,,,,,,,stim/Instruction_adaptive.png,conditions/adaptive.xlsx,test,-0.6,-0.6,-0.6,0.6,0.6,left,L,,,,,0,1,1,1,0,70,70,19,,,,,,,,,,,,,,,,,,,,,,,,,,,,,,,,,,,,,,,,,,,,422.80366590002086,None,left,1,1.7501379000023007,423.30423849995714,425.15806089993566,423.30423849995714,424.65669979993254,423.30423849995714,424.65669979993254,423.30423849995714,424.65669979993254,423.30423849995714,424.65669979993254,423.30423849995714,424.65669979993254,424.6242694000248,425.1237112999661,424.6242694000248,425.1237112999661,424.6242694000248,425.1237112999661,424.6242694000248,425.1237112999661,424.6242694000248,425.1237112999661,424.6242694000248,425.1237112999661,424.6242694000248,425.1237112999661,424.6242694000248,425.1237112999661,423.30423849995714,None,425.1237112999661,426.2941971999826,1.340000000000001,426.30873049993534,None,427.0604014999699,None,,,,,,,[[1.16]],2.3500000000000014,0.676056338028169,12008,001,2024_Jun_14_1702,MFTM_A_new1021,2021.2.3,59.92297499346521,
,,,,,,,,stim/Instruction_adaptive.png,conditions/adaptive.xlsx,test,0.6,0.6,0.6,-0.6,-0.6,right,R,,,,,0,1,1,1,0,71,71,34,,,,,,,,,,,,,,,,,,,,,,,,,,,,,,,,,,,,,,,,,,,,427.5608562999405,None,right,1,1.873319000005722,428.0612402999541,429.86468879994936,428.0612402999541,429.36348599998746,428.0612402999541,429.36348599998746,428.0612402999541,429.36348599998746,428.0612402999541,429.36348599998746,428.0612402999541,429.36348599998746,429.3300398000283,429.83090749999974,429.3300398000283,429.83090749999974,429.3300398000283,429.83090749999974,429.3300398000283,429.83090749999974,429.3300398000283,429.83090749999974,429.3300398000283,429.83090749999974,429.3300398000283,429.83090749999974,429.3300398000283,429.83090749999974,428.0612402999541,None,429.83090749999974,431.05023799999617,1.290000000000001,431.06615780002903,None,431.81767539994325,None,,,,,,,[[1.21]],2.3900000000000015,0.6805555555555556,12008,001,2024_Jun_14_1702,MFTM_A_new1021,2021.2.3,59.92297499346521,
,,,,,,,,stim/Instruction_adaptive.png,conditions/adaptive.xlsx,test,-0.6,-0.6,-0.6,0.6,0.6,left,L,,,,,0,1,1,1,0,72,72,83,,,,,,,,,,,,,,,,,,,,,,,,,,,,,,,,,,,,,,,,,,,,432.3182094999356,None,right,0,2.2670241000596434,432.8197972000344,434.58797250001226,432.8197972000344,434.087384799961,432.8197972000344,434.087384799961,432.8197972000344,434.087384799961,432.8197972000344,434.087384799961,432.8197972000344,434.087384799961,434.0542724999832,434.5547551999334,434.0542724999832,434.5547551999334,434.0542724999832,434.5547551999334,434.0542724999832,434.5547551999334,434.0542724999832,434.5547551999334,434.0542724999832,434.5547551999334,434.0542724999832,434.5547551999334,434.0542724999832,434.5547551999334,432.8197972000344,None,434.5547551999334,435.8065423000371,1.260000000000001,435.82325250003487,None,436.57495289994404,None,,,,,,,[[1.24]],2.2700000000000014,0.6712328767123288,12008,001,2024_Jun_14_1702,MFTM_A_new1021,2021.2.3,59.92297499346521,
,,,,,,,,stim/Instruction_adaptive.png,conditions/adaptive.xlsx,test,0.6,0.6,0.6,-0.6,-0.6,right,R,,,,,0,1,1,1,0,73,73,86,,,,,,,,,,,,,,,,,,,,,,,,,,,,,,,,,,,,,,,,,,,,437.07505640003365,None,right,1,1.757653999957256,437.5770947999554,439.4461214999901,437.5770947999554,438.94447380001657,437.5770947999554,438.94447380001657,437.5770947999554,438.94447380001657,437.5770947999554,438.94447380001657,437.5770947999554,438.94447380001657,438.91117400000803,439.412729499978,438.91117400000803,439.412729499978,438.91117400000803,439.412729499978,438.91117400000803,439.412729499978,438.91117400000803,439.412729499978,438.91117400000803,439.412729499978,438.91117400000803,439.412729499978,438.91117400000803,439.412729499978,437.5770947999554,None,439.412729499978,440.564515999984,1.360000000000001,440.5801372999558,None,441.3322360999882,None,,,,,,,[[1.14]],2.3100000000000014,0.6756756756756757,12008,001,2024_Jun_14_1702,MFTM_A_new1021,2021.2.3,59.92297499346521,
,,,,,,,,stim/Instruction_adaptive.png,conditions/adaptive.xlsx,test,0.6,0.6,0.6,-0.6,-0.6,right,R,,,,,0,1,1,1,0,74,74,56,,,,,,,,,,,,,,,,,,,,,,,,,,,,,,,,,,,,,,,,,,,,441.83207100001164,None,right,1,2.913764200056903,442.33308489993215,444.16910910001025,442.33308489993215,443.66861649998464,442.33308489993215,443.66861649998464,442.33308489993215,443.66861649998464,442.33308489993215,443.66861649998464,442.33308489993215,443.66861649998464,443.65154390002135,444.1525231000269,443.65154390002135,444.1525231000269,443.65154390002135,444.1525231000269,443.65154390002135,444.1525231000269,443.65154390002135,444.1525231000269,443.65154390002135,444.1525231000269,443.65154390002135,444.1525231000269,443.65154390002135,444.1525231000269,442.33308489993215,None,444.1525231000269,445.32111599994823,1.330000000000001,445.3373136000009,None,446.0898744999431,None,,,,,,,[[1.17]],2.3500000000000014,0.68,12008,001,2024_Jun_14_1702,MFTM_A_new1021,2021.2.3,59.92297499346521,
,,,,,,,,stim/Instruction_adaptive.png,conditions/adaptive.xlsx,test,-0.6,-0.6,-0.6,0.6,0.6,left,L,,,,,0,1,1,1,0,75,75,23,,,,,,,,,,,,,,,,,,,,,,,,,,,,,,,,,,,,,,,,,,,,446.59037119999994,None,left,1,1.6051982999779284,447.09019339992665,448.89285970001947,447.09019339992665,448.3922006000066,447.09019339992665,448.3922006000066,447.09019339992665,448.3922006000066,447.09019339992665,448.3922006000066,447.09019339992665,448.3922006000066,448.35974300000817,448.85939859994687,448.35974300000817,448.85939859994687,448.35974300000817,448.85939859994687,448.35974300000817,448.85939859994687,448.35974300000817,448.85939859994687,448.35974300000817,448.85939859994687,448.35974300000817,448.85939859994687,448.35974300000817,448.85939859994687,447.09019339992665,None,448.85939859994687,450.0793934999965,1.290000000000001,450.0946117999265,None,450.84710969997104,None,,,,,,,[[1.21]],2.3900000000000015,0.6842105263157895,12008,001,2024_Jun_14_1702,MFTM_A_new1021,2021.2.3,59.92297499346521,
,,,,,,,,stim/Instruction_adaptive.png,conditions/adaptive.xlsx,test,0.6,0.6,0.6,-0.6,-0.6,right,R,,,,,0,1,1,1,0,76,76,44,,,,,,,,,,,,,,,,,,,,,,,,,,,,,,,,,,,,,,,,,,,,451.34722689993214,None,right,1,2.9675802000565454,451.84802219993435,453.61719100002665,451.84802219993435,453.116785399965,451.84802219993435,453.116785399965,451.84802219993435,453.116785399965,451.84802219993435,453.116785399965,451.84802219993435,453.116785399965,453.0992852000054,453.60083999997005,453.0992852000054,453.60083999997005,453.0992852000054,453.60083999997005,453.0992852000054,453.60083999997005,453.0992852000054,453.60083999997005,453.0992852000054,453.60083999997005,453.0992852000054,453.60083999997005,453.0992852000054,453.60083999997005,451.84802219993435,None,453.583343999926,454.8351911000209,1.260000000000001,454.8518452999415,None,455.60313960001804,None,,,,,,,[[1.24]],2.4300000000000015,0.6883116883116883,12008,001,2024_Jun_14_1702,MFTM_A_new1021,2021.2.3,59.92297499346521,
,,,,,,,,stim/Instruction_adaptive.png,conditions/adaptive.xlsx,test,0.6,0.6,0.6,-0.6,-0.6,right,R,,,,,0,1,1,1,0,77,77,64,,,,,,,,,,,,,,,,,,,,,,,,,,,,,,,,,,,,,,,,,,,,456.10439230001066,None,right,1,2.4110404000384733,456.60469349997584,458.3239310999634,456.60469349997584,457.82316120003816,456.60469349997584,457.82316120003816,456.60469349997584,457.82316120003816,456.60469349997584,457.82316120003816,456.60469349997584,457.82316120003816,457.8077293999959,458.30705730000045,457.8077293999959,458.30705730000045,457.8077293999959,458.30705730000045,457.8077293999959,458.30705730000045,457.8077293999959,458.30705730000045,457.8077293999959,458.30705730000045,457.8077293999959,458.30705730000045,457.8077293999959,458.30705730000045,456.60469349997584,None,458.30705730000045,459.5923725999892,1.2200000000000009,459.608943899977,None,460.3602554999525,None,,,,,,,[[1.28]],2.4600000000000017,0.6923076923076923,12008,001,2024_Jun_14_1702,MFTM_A_new1021,2021.2.3,59.92297499346521,
,,,,,,,,stim/Instruction_adaptive.png,conditions/adaptive.xlsx,test,-0.6,-0.6,-0.6,0.6,0.6,left,L,,,,,0,1,1,1,0,78,78,43,,,,,,,,,,,,,,,,,,,,,,,,,,,,,,,,,,,,,,,,,,,,460.861030900036,None,left,1,2.0449742999626324,461.36247489997186,463.06542040000204,461.36247489997186,462.56350159994327,461.36247489997186,462.56350159994327,461.36247489997186,462.56350159994327,461.36247489997186,462.56350159994327,461.36247489997186,462.56350159994327,462.5473388999235,463.04768159997184,462.5473388999235,463.04768159997184,462.5473388999235,463.04768159997184,462.5473388999235,463.04768159997184,462.5473388999235,463.04768159997184,462.5473388999235,463.04768159997184,462.5473388999235,463.04768159997184,462.5473388999235,463.04768159997184,461.36247489997186,None,463.04768159997184,464.34960740001407,1.2000000000000008,464.3660827999702,None,465.11729419999756,None,,,,,,,[[1.3]],2.490000000000002,0.6962025316455697,12008,001,2024_Jun_14_1702,MFTM_A_new1021,2021.2.3,59.92297499346521,
,,,,,,,,stim/Instruction_adaptive.png,conditions/adaptive.xlsx,test,-0.6,-0.6,-0.6,0.6,0.6,left,L,,,,,0,1,1,1,0,79,79,97,,,,,,,,,,,,,,,,,,,,,,,,,,,,,,,,,,,,,,,,,,,,465.6195832999656,None,left,1,2.112115600029938,466.1194121999433,467.8051931000082,466.1194121999433,467.30499079998117,466.1194121999433,467.30499079998117,466.1194121999433,467.30499079998117,466.1194121999433,467.30499079998117,466.1194121999433,467.30499079998117,467.2706991999876,467.77136469993275,467.2706991999876,467.77136469993275,467.2706991999876,467.77136469993275,467.2706991999876,467.77136469993275,467.2706991999876,467.77136469993275,467.2706991999876,467.77136469993275,467.2706991999876,467.77136469993275,467.2706991999876,467.77136469993275,466.1194121999433,None,467.77136469993275,469.1065468000015,1.1700000000000008,469.1234743000241,None,469.87456000002567,None,,,,,,,[[1.33]],2.530000000000002,0.7,12008,001,2024_Jun_14_1702,MFTM_A_new1021,2021.2.3,59.92297499346521,
,,,,,,,,stim/Instruction_adaptive.png,conditions/adaptive.xlsx,test,-0.6,-0.6,-0.6,0.6,0.6,left,L,,,,,0,1,1,1,0,80,80,39,,,,,,,,,,,,,,,,,,,,,,,,,,,,,,,,,,,,,,,,,,,,470.3761559999548,None,left,1,2.6429914000909775,470.87647869996727,472.5294661000371,470.87647869996727,472.027940299944,470.87647869996727,472.027940299944,470.87647869996727,472.027940299944,470.87647869996727,472.027940299944,470.87647869996727,472.027940299944,471.99529470002744,472.49524990003556,471.99529470002744,472.49524990003556,471.99529470002744,472.49524990003556,471.99529470002744,472.49524990003556,471.99529470002744,472.49524990003556,471.99529470002744,472.49524990003556,471.99529470002744,472.49524990003556,471.99529470002744,472.49524990003556,470.87647869996727,None,472.49524990003556,473.86396340001374,1.1400000000000008,473.88058480003383,None,474.63275909994263,None,,,,,,,[[1.36]],2.560000000000002,0.7037037037037037,12008,001,2024_Jun_14_1702,MFTM_A_new1021,2021.2.3,59.92297499346521,
,,,,,,,,stim/Instruction_adaptive.png,conditions/adaptive.xlsx,test,0.6,0.6,0.6,-0.6,-0.6,right,R,,,,,0,1,1,1,0,81,81,2,,,,,,,,,,,,,,,,,,,,,,,,,,,,,,,,,,,,,,,,,,,,475.1324642000254,None,right,1,1.830688300076872,475.63340019993484,477.25339099997655,475.63340019993484,476.7524506000336,475.63340019993484,476.7524506000336,475.63340019993484,476.7524506000336,475.63340019993484,476.7524506000336,475.63340019993484,476.7524506000336,476.7365041000303,477.236145199975,476.7365041000303,477.236145199975,476.7365041000303,477.236145199975,476.7365041000303,477.236145199975,476.7365041000303,477.236145199975,476.7365041000303,477.236145199975,476.7365041000303,477.236145199975,476.7365041000303,477.236145199975,475.63340019993484,None,477.236145199975,478.62178599997424,1.1200000000000008,478.6378142000176,None,479.38921769999433,None,,,,,,,[[1.38]],2.5900000000000016,0.7073170731707317,12008,001,2024_Jun_14_1702,MFTM_A_new1021,2021.2.3,59.92297499346521,
,,,,,,,,stim/Instruction_adaptive.png,conditions/adaptive.xlsx,test,0.6,0.6,0.6,-0.6,-0.6,right,R,,,,,0,1,1,1,0,82,82,40,,,,,,,,,,,,,,,,,,,,,,,,,,,,,,,,,,,,,,,,,,,,479.8902507999446,None,left,0,1.9848781999899074,480.3914847000269,481.9927625999553,480.3914847000269,481.4932865999872,480.3914847000269,481.4932865999872,480.3914847000269,481.4932865999872,480.3914847000269,481.4932865999872,480.3914847000269,481.4932865999872,481.4595216999296,481.9600955999922,481.4595216999296,481.9600955999922,481.4595216999296,481.9600955999922,481.4595216999296,481.9600955999922,481.4595216999296,481.9600955999922,481.4595216999296,481.9600955999922,481.4595216999296,481.9600955999922,481.4595216999296,481.9600955999922,480.3914847000269,None,481.9600955999922,483.3785620999988,1.0900000000000007,483.39633140002843,None,484.14617299998645,None,,,,,,,[[1.41]],2.5000000000000018,0.6987951807228916,12008,001,2024_Jun_14_1702,MFTM_A_new1021,2021.2.3,59.92297499346521,
,,,,,,,,stim/Instruction_adaptive.png,conditions/adaptive.xlsx,test,0.6,0.6,0.6,-0.6,-0.6,right,R,,,,,0,1,1,1,0,83,83,20,,,,,,,,,,,,,,,,,,,,,,,,,,,,,,,,,,,,,,,,,,,,484.6468907999806,None,right,1,2.388030899921432,485.147926799953,486.81777820002753,485.147926799953,486.31676840002183,485.147926799953,486.31676840002183,485.147926799953,486.31676840002183,485.147926799953,486.31676840002183,485.147926799953,486.31676840002183,486.2833599000005,486.78444770001806,486.2833599000005,486.78444770001806,486.2833599000005,486.78444770001806,486.2833599000005,486.78444770001806,486.2833599000005,486.78444770001806,486.2833599000005,486.78444770001806,486.2833599000005,486.78444770001806,486.2833599000005,486.78444770001806,485.147926799953,None,486.78444770001806,488.13535979995504,1.1600000000000008,488.1520310000051,None,488.90470349998213,None,,,,,,,[[1.34]],2.530000000000002,0.7023809523809523,12008,001,2024_Jun_14_1702,MFTM_A_new1021,2021.2.3,59.92297499346521,
,,,,,,,,stim/Instruction_adaptive.png,conditions/adaptive.xlsx,test,-0.6,-0.6,-0.6,0.6,0.6,left,L,,,,,0,1,1,1,0,84,84,55,,,,,,,,,,,,,,,,,,,,,,,,,,,,,,,,,,,,,,,,,,,,489.404617000022,None,left,1,2.359178699902259,489.90484079997987,491.5574201999698,489.90484079997987,491.05652199999895,489.90484079997987,491.05652199999895,489.90484079997987,491.05652199999895,489.90484079997987,491.05652199999895,489.90484079997987,491.05652199999895,491.0249668000033,491.5246631000191,491.0249668000033,491.5246631000191,491.0249668000033,491.5246631000191,491.0249668000033,491.5246631000191,491.0249668000033,491.5246631000191,491.0249668000033,491.5246631000191,491.0249668000033,491.5246631000191,491.0249668000033,491.5246631000191,489.90484079997987,None,491.5246631000191,492.8926572999917,1.1400000000000008,492.90986999997403,None,493.66119329992216,None,,,,,,,[[1.36]],2.560000000000002,0.7058823529411765,12008,001,2024_Jun_14_1702,MFTM_A_new1021,2021.2.3,59.92297499346521,
,,,,,,,,stim/Instruction_adaptive.png,conditions/adaptive.xlsx,test,-0.6,-0.6,-0.6,0.6,0.6,left,L,,,,,0,1,1,1,0,85,85,3,,,,,,,,,,,,,,,,,,,,,,,,,,,,,,,,,,,,,,,,,,,,494.1611756000202,None,left,1,1.8823296999325976,494.6619700000156,496.2818563999608,494.6619700000156,495.797072699992,494.6619700000156,495.797072699992,494.6619700000156,495.797072699992,494.6619700000156,495.797072699992,494.6619700000156,495.797072699992,495.76360139995813,496.2652223999612,495.76360139995813,496.2652223999612,495.76360139995813,496.2652223999612,495.76360139995813,496.2652223999612,495.76360139995813,496.2652223999612,495.76360139995813,496.2652223999612,495.76360139995813,496.2652223999612,495.76360139995813,496.2652223999612,494.6619700000156,None,496.2652223999612,497.65021709993016,1.1200000000000008,497.6663760000374,None,498.41848839994054,None,,,,,,,[[1.38]],2.5900000000000016,0.7093023255813954,12008,001,2024_Jun_14_1702,MFTM_A_new1021,2021.2.3,59.92297499346521,
,,,,,,,,stim/Instruction_adaptive.png,conditions/adaptive.xlsx,test,0.6,0.6,0.6,-0.6,-0.6,right,R,,,,,0,1,1,1,0,86,86,16,,,,,,,,,,,,,,,,,,,,,,,,,,,,,,,,,,,,,,,,,,,,498.9197487999918,None,right,1,2.9332291999598965,499.41931599995587,501.02155800000764,499.41931599995587,500.5207270999672,499.41931599995587,500.5207270999672,499.41931599995587,500.5207270999672,499.41931599995587,500.5207270999672,499.41931599995587,500.5207270999672,500.48750749998726,500.9889819000382,500.48750749998726,500.9889819000382,500.48750749998726,500.9889819000382,500.48750749998726,500.9889819000382,500.48750749998726,500.9889819000382,500.48750749998726,500.9889819000382,500.48750749998726,500.9889819000382,500.48750749998726,500.9889819000382,499.41931599995587,None,500.9889819000382,502.40852900000755,1.0900000000000007,502.42361039994285,None,503.17478679993656,None,,,,,,,[[1.41]],2.610000000000002,0.7126436781609196,12008,001,2024_Jun_14_1702,MFTM_A_new1021,2021.2.3,59.92297499346521,
,,,,,,,,stim/Instruction_adaptive.png,conditions/adaptive.xlsx,test,-0.6,-0.6,-0.6,0.6,0.6,left,L,,,,,0,1,1,1,0,87,87,81,,,,,,,,,,,,,,,,,,,,,,,,,,,,,,,,,,,,,,,,,,,,503.67559020000044,None,left,1,2.1842604000121355,504.1763071999885,505.7638565999223,504.1763071999885,505.26271419995464,504.1763071999885,505.26271419995464,504.1763071999885,505.26271419995464,504.1763071999885,505.26271419995464,504.1763071999885,505.26271419995464,505.2448554999428,505.7453340999782,505.2448554999428,505.7453340999782,505.2448554999428,505.7453340999782,505.2448554999428,505.7453340999782,505.2448554999428,505.7453340999782,505.2448554999428,505.7453340999782,505.2448554999428,505.7453340999782,505.2448554999428,505.7453340999782,504.1763071999885,None,505.7453340999782,507.1653218999272,1.0800000000000007,507.18082499993034,None,507.9319845000282,None,,,,,,,[[1.42]],2.640000000000002,0.7159090909090909,12008,001,2024_Jun_14_1702,MFTM_A_new1021,2021.2.3,59.92297499346521,
,,,,,,,,stim/Instruction_adaptive.png,conditions/adaptive.xlsx,test,0.6,0.6,0.6,-0.6,-0.6,right,R,,,,,0,1,1,1,0,88,88,66,,,,,,,,,,,,,,,,,,,,,,,,,,,,,,,,,,,,,,,,,,,,508.4342836999567,None,right,1,2.219777900027111,508.9335540999891,510.5024307999993,508.9335540999891,510.00179280003067,508.9335540999891,510.00179280003067,508.9335540999891,510.00179280003067,508.9335540999891,510.00179280003067,508.9335540999891,510.00179280003067,509.98510499997064,510.48567259998526,509.98510499997064,510.48567259998526,509.98510499997064,510.48567259998526,509.98510499997064,510.48567259998526,509.98510499997064,510.48567259998526,509.98510499997064,510.48567259998526,509.98510499997064,510.48567259998526,509.98510499997064,510.48567259998526,508.9335540999891,None,510.48567259998526,None,1.0600000000000007,511.9381053999532,None,512.6891892999411,None,,,,,,,[[1.44]],2.6700000000000017,0.7191011235955056,12008,001,2024_Jun_14_1702,MFTM_A_new1021,2021.2.3,59.92297499346521,
,,,,,,,,stim/Instruction_adaptive.png,conditions/adaptive.xlsx,test,-0.6,-0.6,-0.6,0.6,0.6,left,L,,,,,0,1,1,1,0,89,89,11,,,,,,,,,,,,,,,,,,,,,,,,,,,,,,,,,,,,,,,,,,,,513.1898090000032,None,left,1,1.8221780000021681,513.6906354000093,515.2262299000286,513.6906354000093,514.7255444999319,513.6906354000093,514.7255444999319,513.6906354000093,514.7255444999319,513.6906354000093,514.7255444999319,513.6906354000093,514.7255444999319,514.7102126999525,515.2098111000378,514.7102126999525,515.2098111000378,514.7102126999525,515.2098111000378,514.7102126999525,515.2098111000378,514.7102126999525,515.2098111000378,514.7102126999525,515.2098111000378,514.7102126999525,515.2098111000378,514.7102126999525,515.2098111000378,513.6906354000093,None,515.2098111000378,None,1.0300000000000007,516.695105599938,None,517.4469941999996,None,,,,,,,[[1.47]],2.690000000000002,0.7222222222222222,12008,001,2024_Jun_14_1702,MFTM_A_new1021,2021.2.3,59.92297499346521,
,,,,,,,,stim/Instruction_adaptive.png,conditions/adaptive.xlsx,test,0.6,0.6,0.6,-0.6,-0.6,right,R,,,,,0,1,1,1,0,90,90,0,,,,,,,,,,,,,,,,,,,,,,,,,,,,,,,,,,,,,,,,,,,,517.947018399951,None,right,1,2.201264600036666,518.4477449000115,519.9847696999786,518.4477449000115,519.4825322999386,518.4477449000115,519.4825322999386,518.4477449000115,519.4825322999386,518.4477449000115,519.4825322999386,518.4477449000115,519.4825322999386,519.4491664000088,519.9499714999693,519.4491664000088,519.9499714999693,519.4491664000088,519.9499714999693,519.4491664000088,519.9499714999693,519.4491664000088,519.9499714999693,519.4491664000088,519.9499714999693,519.4491664000088,519.9499714999693,519.4491664000088,519.9499714999693,518.4477449000115,None,519.9499714999693,521.4355075999629,1.0200000000000007,521.4521745999809,None,522.2045366999228,None,,,,,,,[[1.48]],2.7100000000000017,0.7252747252747253,12008,001,2024_Jun_14_1702,MFTM_A_new1021,2021.2.3,59.92297499346521,
,,,,,,,,stim/Instruction_adaptive.png,conditions/adaptive.xlsx,test,-0.6,-0.6,-0.6,0.6,0.6,left,L,,,,,0,1,1,1,0,91,91,77,,,,,,,,,,,,,,,,,,,,,,,,,,,,,,,,,,,,,,,,,,,,522.7041684000287,None,left,1,1.915228300029412,523.2062712999759,524.725036000018,523.2062712999759,524.2231652999762,523.2062712999759,524.2231652999762,523.2062712999759,524.2231652999762,523.2062712999759,524.2231652999762,523.2062712999759,524.2231652999762,524.1896449000342,524.6912917000009,524.1896449000342,524.6912917000009,524.1896449000342,524.6912917000009,524.1896449000342,524.6912917000009,524.1896449000342,524.6912917000009,524.1896449000342,524.6912917000009,524.1896449000342,524.6912917000009,524.1896449000342,524.6912917000009,523.2062712999759,None,524.6912917000009,526.192771299975,1.0100000000000007,526.2094559000107,None,526.9607445999281,None,,,,,,,[[1.49]],2.740000000000002,0.7282608695652174,12008,001,2024_Jun_14_1702,MFTM_A_new1021,2021.2.3,59.92297499346521,
,,,,,,,,stim/Instruction_adaptive.png,conditions/adaptive.xlsx,test,0.6,0.6,0.6,-0.6,-0.6,right,R,,,,,0,1,1,1,0,92,92,94,,,,,,,,,,,,,,,,,,,,,,,,,,,,,,,,,,,,,,,,,,,,527.462141499971,None,right,1,1.9352784999646246,527.9622545000166,529.4478732999414,527.9622545000166,528.9478449999588,527.9622545000166,528.9478449999588,527.9622545000166,528.9478449999588,527.9622545000166,528.9478449999588,527.9622545000166,528.9478449999588,528.9301947000204,529.4317256000359,528.9301947000204,529.4317256000359,528.9301947000204,529.4317256000359,528.9301947000204,529.4317256000359,528.9301947000204,529.4317256000359,528.9301947000204,529.4317256000359,528.9301947000204,529.4317256000359,528.9301947000204,529.4317256000359,527.9622545000166,None,529.4317256000359,530.9335510999663,0.9800000000000006,530.9500785999699,None,531.7020698999986,None,,,,,,,[1.49731183],2.760000000000002,0.7311827956989247,12008,001,2024_Jun_14_1702,MFTM_A_new1021,2021.2.3,59.92297499346521,
