arrwidth1,arrwidth2,arrwidth3,arrwidth4,arrwidth5,keyb,type,orientation,instruction_image,block_filename,block_type,arrow11,arrow22,arrow33,arrow44,arrow55,keyb_3,orientation3,trials.thisRepN,trials.thisTrialN,trials.thisN,trials.thisIndex,trials_3.thisRepN,trials_3.thisTrialN,trials_3.thisN,trials_3.thisIndex,trials_2.thisRepN,trials_2.thisTrialN,trials_2.thisN,trials_2.thisIndex,welcome.started,welcome.stopped,key_resp.keys,key_resp.rt,key_resp.started,key_resp.stopped,instruction_example.started,instruction_example.stopped,key_resp_3.keys,key_resp_3.rt,key_resp_3.started,key_resp_3.stopped,instruction_task.started,instruction_task.stopped,key_resp_2.keys,key_resp_2.rt,key_resp_2.started,key_resp_2.stopped,text_2.started,text_2.stopped,A1.started,A1.stopped,A2.started,A2.stopped,A3.started,A3.stopped,A4.started,A4.stopped,A5.started,A5.stopped,key_resp_4.keys,key_resp_4.corr,key_resp_4.rt,key_resp_4.started,key_resp_4.stopped,fb.started,fb.stopped,instruction_block.started,instruction_block.stopped,key_resp_8.keys,key_resp_8.rt,key_resp_8.started,key_resp_8.stopped,text_8.started,text_8.stopped,key_resp_9.keys,key_resp_9.corr,key_resp_9.rt,text_5.started,text_5.stopped,A11_3.started,A11_3.stopped,A22_2.started,A22_2.stopped,A33_2.started,A33_2.stopped,A44_2.started,A44_2.stopped,A55_2.started,A55_2.stopped,M1_3.started,M1_3.stopped,M2_2.started,M2_2.stopped,M3_2.started,M3_2.stopped,M4_2.started,M4_2.stopped,M5_2.started,M5_2.stopped,M6_2.started,M6_2.stopped,M7_2.started,M7_2.stopped,M8_2.started,M8_2.stopped,key_resp_9.started,key_resp_9.stopped,fixation.started,fixation.stopped,ET,fb_3.started,fb_3.stopped,text_9.started,text_9.stopped,fb_4.started,fb_4.stopped,text_7.started,text_7.stopped,endtext.started,endtext.stopped,fixation_ITI,CCC,Acc,participant,session,date,expName,psychopyVersion,frameRate,
,,,,,,,,,,,,,,,,,,,,,,,,,,,,,,9.486211499985075,None,space,0.6090950999932829,9.486211499985075,None,,,,,,,,,,,,,,,,,,,,,,,,,,,,,,,,,,,,,,,,,,,,,,,,,,,,,,,,,,,,,,,,,,,,,,,,,,,,,,,,,,,,,,,,,12003,001,2024_Jun_09_1410,MFTM_A_new1021,2021.2.3,59.97314401710471,
,,,,,,,,,,,,,,,,,,,,,,,,,,,,,,,,,,,,10.12053349998314,None,right,12.382671800005483,10.12053349998314,None,,,,,,,,,,,,,,,,,,,,,,,,,,,,,,,,,,,,,,,,,,,,,,,,,,,,,,,,,,,,,,,,,,,,,,,,,,,,,,,,,,,12003,001,2024_Jun_09_1410,MFTM_A_new1021,2021.2.3,59.97314401710471,
,,,,,,,,,,,,,,,,,,,,,,,,,,,,,,,,,,,,,,,,,,22.522337300004438,None,right,3.261565300024813,22.522337300004438,None,,,,,,,,,,,,,,,,,,,,,,,,,,,,,,,,,,,,,,,,,,,,,,,,,,,,,,,,,,,,,,,,,,,,,,,,,,,,,12003,001,2024_Jun_09_1410,MFTM_A_new1021,2021.2.3,59.97314401710471,
0.6,0.6,0.6,-0.6,-0.6,right,3:2,R,,,,,,,,,,,0,0,0,0,,,,,,,,,,,,,,,,,,,,,,,,,,,25.82732379998197,None,25.82732379998197,None,25.82732379998197,None,25.82732379998197,None,25.82732379998197,None,25.82732379998197,None,right,1,4.588315600005444,25.82732379998197,None,30.452903500001412,None,,,,,,,,,,,,,,,,,,,,,,,,,,,,,,,,,,,,,,,,,,,,,,,,,,,,,,,,,,12003,001,2024_Jun_09_1410,MFTM_A_new1021,2021.2.3,59.97314401710471,
-0.6,-0.6,-0.6,0.6,0.6,left,3:2,L,,,,,,,,,,,0,1,1,1,,,,,,,,,,,,,,,,,,,,,,,,,,,31.202126099989982,None,31.202126099989982,None,31.202126099989982,None,31.202126099989982,None,31.202126099989982,None,31.202126099989982,None,left,1,1.542281499976525,31.202126099989982,None,32.771151900000405,None,,,,,,,,,,,,,,,,,,,,,,,,,,,,,,,,,,,,,,,,,,,,,,,,,,,,,,,,,,12003,001,2024_Jun_09_1410,MFTM_A_new1021,2021.2.3,59.97314401710471,
-0.6,-0.6,-0.6,0.6,0.6,left,3:2,L,,,,,,,,,,,1,0,2,1,,,,,,,,,,,,,,,,,,,,,,,,,,,33.52237319998676,None,33.52237319998676,None,33.52237319998676,None,33.52237319998676,None,33.52237319998676,None,33.52237319998676,None,left,1,2.8935615999798756,33.52237319998676,None,36.44354750000639,None,,,,,,,,,,,,,,,,,,,,,,,,,,,,,,,,,,,,,,,,,,,,,,,,,,,,,,,,,,12003,001,2024_Jun_09_1410,MFTM_A_new1021,2021.2.3,59.97314401710471,
0.6,0.6,0.6,-0.6,-0.6,right,3:2,R,,,,,,,,,,,1,1,3,0,,,,,,,,,,,,,,,,,,,,,,,,,,,37.19453280000016,None,37.19453280000016,None,37.19453280000016,None,37.19453280000016,None,37.19453280000016,None,37.19453280000016,None,right,1,2.861475400015479,37.19453280000016,None,40.082216299982974,None,,,,,,,,,,,,,,,,,,,,,,,,,,,,,,,,,,,,,,,,,,,,,,,,,,,,,,,,,,12003,001,2024_Jun_09_1410,MFTM_A_new1021,2021.2.3,59.97314401710471,
,,,,,,,,stim/Instruction_mask.png,conditions/adaptive.xlsx,practice,-0.6,-0.6,-0.6,0.6,0.6,left,L,,,,,0,0,0,0,0,0,0,93,,,,,,,,,,,,,,,,,,,,,,,,,,,,,,,,,,,,,,41.06753749999916,None,right,27.74126999999862,41.06753749999916,None,68.90947369998321,None,left,1,1.7216934000025503,69.34297959998366,None,69.34297959998366,72.34757979999995,69.34297959998366,72.34757979999995,69.34297959998366,72.34757979999995,69.34297959998366,72.34757979999995,69.34297959998366,72.34757979999995,72.33120580000104,72.83158989998628,72.33120580000104,72.83158989998628,72.33120580000104,72.83158989998628,72.33120580000104,72.83158989998628,72.33120580000104,72.83158989998628,72.33120580000104,72.83158989998628,72.33120580000104,72.83158989998628,72.33120580000104,72.83158989998628,69.34297959998366,None,72.83158989998628,72.83158989998628,3,72.84828259999631,None,73.59948289999738,None,,,,,,,,,,12003,001,2024_Jun_09_1410,MFTM_A_new1021,2021.2.3,59.97314401710471,
,,,,,,,,stim/Instruction_mask.png,conditions/adaptive.xlsx,practice,-0.6,-0.6,-0.6,0.6,0.6,left,L,,,,,0,0,0,0,0,1,1,1,,,,,,,,,,,,,,,,,,,,,,,,,,,,,,,,,,,,,,,,,,,,74.1004580000008,None,left,1,1.8241259999922477,74.6008377999824,76.60483860000386,74.6008377999824,76.10319840000011,74.6008377999824,76.10319840000011,74.6008377999824,76.10319840000011,74.6008377999824,76.10319840000011,74.6008377999824,76.10319840000011,76.08661910000956,76.58720340000582,76.08661910000956,76.58720340000582,76.08661910000956,76.58720340000582,76.08661910000956,76.58720340000582,76.08661910000956,76.58720340000582,76.08661910000956,76.58720340000582,76.08661910000956,76.58720340000582,76.08661910000956,76.58720340000582,74.6008377999824,None,76.58720340000582,78.09071910000057,1.5,78.10723349999171,None,78.85732499998994,None,,,,,,,,,,12003,001,2024_Jun_09_1410,MFTM_A_new1021,2021.2.3,59.97314401710471,
,,,,,,,,stim/Instruction_mask.png,conditions/adaptive.xlsx,practice,0.6,0.6,0.6,-0.6,-0.6,right,R,,,,,0,0,0,0,0,2,2,32,,,,,,,,,,,,,,,,,,,,,,,,,,,,,,,,,,,,,,,,,,,,79.35818429998471,None,right,1,1.3102854000171646,79.85890089999884,81.16080630000215,79.85890089999884,80.6601921999827,79.85890089999884,80.6601921999827,79.85890089999884,80.6601921999827,79.85890089999884,80.6601921999827,79.85890089999884,80.6601921999827,80.64333880000049,81.14493489998858,80.64333880000049,81.14493489998858,80.64333880000049,81.14493489998858,80.64333880000049,81.14493489998858,80.64333880000049,81.14493489998858,80.64333880000049,81.14493489998858,80.64333880000049,81.14493489998858,80.64333880000049,81.14493489998858,79.85890089999884,None,81.14493489998858,83.34825680000358,0.8,83.36462269999902,None,84.11584189999849,None,,,,,,,,,,12003,001,2024_Jun_09_1410,MFTM_A_new1021,2021.2.3,59.97314401710471,
,,,,,,,,stim/Instruction_mask.png,conditions/adaptive.xlsx,practice,0.6,0.6,0.6,-0.6,-0.6,right,R,,,,,0,0,0,0,0,3,3,84,,,,,,,,,,,,,,,,,,,,,,,,,,,,,,,,,,,,,,,,,,,,84.6163852000027,None,left,0,0.7959967000060715,85.11700939998263,85.869841000007,85.11700939998263,85.36720589999459,85.11700939998263,85.36720589999459,85.11700939998263,85.36720589999459,85.11700939998263,85.36720589999459,85.11700939998263,85.36720589999459,85.35170709999511,85.85125549999066,85.35170709999511,85.85125549999066,85.35170709999511,85.85125549999066,85.35170709999511,85.85125549999066,85.35170709999511,85.85125549999066,85.35170709999511,85.85125549999066,85.35170709999511,85.85125549999066,85.35170709999511,85.85125549999066,85.11700939998263,None,85.85125549999066,88.60613810000359,3,88.62189829998533,None,89.37353139999323,None,,,,,,,,,,12003,001,2024_Jun_09_1410,MFTM_A_new1021,2021.2.3,59.97314401710471,
,,,,,,,,stim/Instruction_mask.png,conditions/adaptive.xlsx,practice,,,,,,,,,,,,0,0,0,0,,,,,,,,,,,,,,,,,,,,,,,,,,,,,,,,,,,,,,,,,,,,,,,,,,,,,,,,,,,,,,,,,,,,,,,,,,,,,,,,,,,,,,,,,,89.90795069999876,90.90949299998465,90.89189450000413,90.89189450000413,90.89189450000413,None,,,,12003,001,2024_Jun_09_1410,MFTM_A_new1021,2021.2.3,59.97314401710471,
,,,,,,,,stim/Instruction_adaptive.png,conditions/adaptive.xlsx,test,0.6,0.6,0.6,-0.6,-0.6,right,R,,,,,0,1,1,1,0,0,0,72,,,,,,,,,,,,,,,,,,,,,,,,,,,,,,,,,,,,,,94.04748269999982,None,right,7.490204500005348,94.04748269999982,None,101.57427499999176,None,right,1,2.8698608000122476,102.07610469998326,None,102.07610469998326,105.0803978999902,102.07610469998326,105.0803978999902,102.07610469998326,105.0803978999902,102.07610469998326,105.0803978999902,102.07610469998326,105.0803978999902,105.0636921999976,105.56468099998892,105.0636921999976,105.56468099998892,105.0636921999976,105.56468099998892,105.0636921999976,105.56468099998892,105.0636921999976,105.56468099998892,105.0636921999976,105.56468099998892,105.0636921999976,105.56468099998892,105.0636921999976,105.56468099998892,102.07610469998326,None,105.56468099998892,105.56468099998892,3,105.58089499999187,None,106.33224899999914,None,,,,,,,0,6.000000000000005,1.0,12003,001,2024_Jun_09_1410,MFTM_A_new1021,2021.2.3,59.97314401710471,
,,,,,,,,stim/Instruction_adaptive.png,conditions/adaptive.xlsx,test,0.6,0.6,0.6,-0.6,-0.6,right,R,,,,,0,1,1,1,0,1,1,74,,,,,,,,,,,,,,,,,,,,,,,,,,,,,,,,,,,,,,,,,,,,106.83296289999271,None,left,0,1.452240200014785,107.33360230000108,108.08484820000012,107.33360230000108,107.58457139998791,107.33360230000108,107.58457139998791,107.33360230000108,107.58457139998791,107.33360230000108,107.58457139998791,107.33360230000108,107.58457139998791,107.56773979999707,108.0684356999991,107.56773979999707,108.0684356999991,107.56773979999707,108.0684356999991,107.56773979999707,108.0684356999991,107.56773979999707,108.0684356999991,107.56773979999707,108.0684356999991,107.56773979999707,108.0684356999991,107.56773979999707,108.0684356999991,107.33360230000108,None,108.0684356999991,108.95324589998927,0.25,108.96948279999197,None,109.7212396999821,None,,,,,,,[0.875],2.570000000000002,0.5,12003,001,2024_Jun_09_1410,MFTM_A_new1021,2021.2.3,59.97314401710471,
,,,,,,,,stim/Instruction_adaptive.png,conditions/adaptive.xlsx,test,0.6,0.6,0.6,-0.6,-0.6,right,R,,,,,0,1,1,1,0,2,2,80,,,,,,,,,,,,,,,,,,,,,,,,,,,,,,,,,,,,,,,,,,,,110.22150959999999,None,right,1,1.8560310000029858,110.72199220000766,112.34123960000579,110.72199220000766,111.8404343999864,110.72199220000766,111.8404343999864,110.72199220000766,111.8404343999864,110.72199220000766,111.8404343999864,110.72199220000766,111.8404343999864,111.8236845000065,112.32454860000871,111.8236845000065,112.32454860000871,111.8236845000065,112.32454860000871,111.8236845000065,112.32454860000871,111.8236845000065,112.32454860000871,111.8236845000065,112.32454860000871,111.8236845000065,112.32454860000871,111.8236845000065,112.32454860000871,110.72199220000766,None,112.32454860000871,113.37600829999428,1.1100000000000008,113.3928542000067,None,114.14483689999906,None,,,,,,,[1.04666667],3.3800000000000026,0.6666666666666666,12003,001,2024_Jun_09_1410,MFTM_A_new1021,2021.2.3,59.97314401710471,
,,,,,,,,stim/Instruction_adaptive.png,conditions/adaptive.xlsx,test,-0.6,-0.6,-0.6,0.6,0.6,left,L,,,,,0,1,1,1,0,3,3,97,,,,,,,,,,,,,,,,,,,,,,,,,,,,,,,,,,,,,,,,,,,,114.64475289999973,None,left,1,1.8008303999959026,115.145468600007,116.28034939998179,115.145468600007,115.78006689998438,115.145468600007,115.78006689998438,115.145468600007,115.78006689998438,115.145468600007,115.78006689998438,115.145468600007,115.78006689998438,115.76312399999006,116.26478189998306,115.76312399999006,116.26478189998306,115.76312399999006,116.26478189998306,115.76312399999006,116.26478189998306,115.76312399999006,116.26478189998306,115.76312399999006,116.26478189998306,115.76312399999006,116.26478189998306,115.76312399999006,116.26478189998306,115.145468600007,None,116.26478189998306,None,0.6300000000000003,117.53247209999245,None,118.28370669999276,None,,,,,,,[1.2525],3.940000000000003,0.75,12003,001,2024_Jun_09_1410,MFTM_A_new1021,2021.2.3,59.97314401710471,
,,,,,,,,stim/Instruction_adaptive.png,conditions/adaptive.xlsx,test,-0.6,-0.6,-0.6,0.6,0.6,left,L,,,,,0,1,1,1,0,4,4,43,,,,,,,,,,,,,,,,,,,,,,,,,,,,,,,,,,,,,,,,,,,,118.78406459998223,None,left,1,1.0372524000122212,119.28505549998954,120.22013870000956,119.28505549998954,119.71991600000183,119.28505549998954,119.71991600000183,119.28505549998954,119.71991600000183,119.28505549998954,119.71991600000183,119.28505549998954,119.71991600000183,119.70232700000633,120.203622800007,119.70232700000633,120.203622800007,119.70232700000633,120.203622800007,119.70232700000633,120.203622800007,119.70232700000633,120.203622800007,119.70232700000633,120.203622800007,119.70232700000633,120.203622800007,119.70232700000633,120.203622800007,119.28505549998954,None,120.203622800007,121.62186419998761,0.43000000000000016,121.63855709999916,None,122.39004120000754,None,,,,,,,[1.416],4.370000000000004,0.8,12003,001,2024_Jun_09_1410,MFTM_A_new1021,2021.2.3,59.97314401710471,
,,,,,,,,stim/Instruction_adaptive.png,conditions/adaptive.xlsx,test,0.6,0.6,0.6,-0.6,-0.6,right,R,,,,,0,1,1,1,0,5,5,42,,,,,,,,,,,,,,,,,,,,,,,,,,,,,,,,,,,,,,,,,,,,122.8908492999908,None,right,1,0.7230578000016976,123.39145719999215,124.22619180000038,123.39145719999215,123.72574840000016,123.39145719999215,123.72574840000016,123.39145719999215,123.72574840000016,123.39145719999215,123.72574840000016,123.39145719999215,123.72574840000016,123.69171250000363,124.19243329999154,123.69171250000363,124.19243329999154,123.69171250000363,124.19243329999154,123.69171250000363,124.19243329999154,123.69171250000363,124.19243329999154,123.69171250000363,124.19243329999154,123.69171250000363,124.19243329999154,123.69171250000363,124.19243329999154,123.39145719999215,None,124.19243329999154,125.7447087999899,0.32000000000000006,125.76221660000738,None,126.51254419999896,None,,,,,,,[1.54333333],4.7100000000000035,0.8333333333333334,12003,001,2024_Jun_09_1410,MFTM_A_new1021,2021.2.3,59.97314401710471,
,,,,,,,,stim/Instruction_adaptive.png,conditions/adaptive.xlsx,test,0.6,0.6,0.6,-0.6,-0.6,right,R,,,,,0,1,1,1,0,6,6,92,,,,,,,,,,,,,,,,,,,,,,,,,,,,,,,,,,,,,,,,,,,,127.01331290000235,None,left,0,0.8803927999979351,127.51405619998695,128.26532390000648,127.51405619998695,127.7653333999915,127.51405619998695,127.7653333999915,127.51405619998695,127.7653333999915,127.51405619998695,127.7653333999915,127.51405619998695,127.7653333999915,127.7485413000104,128.24904209998203,127.7485413000104,128.24904209998203,127.7485413000104,128.24904209998203,127.7485413000104,128.24904209998203,127.7485413000104,128.24904209998203,127.7485413000104,128.24904209998203,127.7485413000104,128.24904209998203,127.7485413000104,128.24904209998203,127.51405619998695,None,128.24904209998203,129.90113069998915,0.25,129.91779449998285,None,130.6688739999954,None,,,,,,,[1.64428571],4.010000000000003,0.7142857142857143,12003,001,2024_Jun_09_1410,MFTM_A_new1021,2021.2.3,59.97314401710471,
,,,,,,,,stim/Instruction_adaptive.png,conditions/adaptive.xlsx,test,-0.6,-0.6,-0.6,0.6,0.6,left,L,,,,,0,1,1,1,0,7,7,79,,,,,,,,,,,,,,,,,,,,,,,,,,,,,,,,,,,,,,,,,,,,131.16982919999282,None,right,0,1.004797800007509,131.67043100000592,132.58830879998277,131.67043100000592,132.0876474000106,131.67043100000592,132.0876474000106,131.67043100000592,132.0876474000106,131.67043100000592,132.0876474000106,131.67043100000592,132.0876474000106,132.07115279999562,132.57171899999958,132.07115279999562,132.57171899999958,132.07115279999562,132.57171899999958,132.07115279999562,132.57171899999958,132.07115279999562,132.57171899999958,132.07115279999562,132.57171899999958,132.07115279999562,132.57171899999958,132.07115279999562,132.57171899999958,131.67043100000592,None,132.55523619998712,134.25767449999694,0.41000000000000014,134.29142279998632,None,135.04221849999158,None,,,,,,,[1.7],3.2500000000000027,0.625,12003,001,2024_Jun_09_1410,MFTM_A_new1021,2021.2.3,59.97314401710471,
,,,,,,,,stim/Instruction_adaptive.png,conditions/adaptive.xlsx,test,-0.6,-0.6,-0.6,0.6,0.6,left,L,,,,,0,1,1,1,0,8,8,73,,,,,,,,,,,,,,,,,,,,,,,,,,,,,,,,,,,,,,,,,,,,135.5427767999936,None,right,0,1.638829400006216,136.0436497000046,137.24541229999159,136.0436497000046,136.74474659998668,136.0436497000046,136.74474659998668,136.0436497000046,136.74474659998668,136.0436497000046,136.74474659998668,136.0436497000046,136.74474659998668,136.71162220000406,137.2126820999838,136.71162220000406,137.2126820999838,136.71162220000406,137.2126820999838,136.71162220000406,137.2126820999838,136.71162220000406,137.2126820999838,136.71162220000406,137.2126820999838,136.71162220000406,137.2126820999838,136.71162220000406,137.2126820999838,136.0436497000046,None,137.2126820999838,138.93153339999844,0.6900000000000004,138.94803589998628,None,139.70199870000943,None,,,,,,,[1.71222222],2.370000000000002,0.5555555555555556,12003,001,2024_Jun_09_1410,MFTM_A_new1021,2021.2.3,59.97314401710471,
,,,,,,,,stim/Instruction_adaptive.png,conditions/adaptive.xlsx,test,0.6,0.6,0.6,-0.6,-0.6,right,R,,,,,0,1,1,1,0,9,9,4,,,,,,,,,,,,,,,,,,,,,,,,,,,,,,,,,,,,,,,,,,,,140.20003849998466,None,left,0,1.8462519999884535,140.70055499998853,142.470273599989,140.70055499998853,141.9695642000006,140.70055499998853,141.9695642000006,140.70055499998853,141.9695642000006,140.70055499998853,141.9695642000006,140.70055499998853,141.9695642000006,141.95292569999583,142.45439929998247,141.95292569999583,142.45439929998247,141.95292569999583,142.45439929998247,141.95292569999583,142.45439929998247,141.95292569999583,142.45439929998247,141.95292569999583,142.45439929998247,141.95292569999583,142.45439929998247,141.95292569999583,142.45439929998247,140.70055499998853,None,142.45439929998247,143.68853200000012,1.270000000000001,143.70550929999445,None,144.45702050000546,None,,,,,,,[[1.23]],1.0800000000000005,0.5,12003,001,2024_Jun_09_1410,MFTM_A_new1021,2021.2.3,59.97314401710471,
,,,,,,,,stim/Instruction_adaptive.png,conditions/adaptive.xlsx,test,-0.6,-0.6,-0.6,0.6,0.6,left,L,,,,,0,1,1,1,0,10,10,63,,,,,,,,,,,,,,,,,,,,,,,,,,,,,,,,,,,,,,,,,,,,144.95702619999065,None,left,1,2.793556399992667,145.45775919998414,None,145.45775919998414,148.4624055000022,145.45775919998414,148.4624055000022,145.45775919998414,148.4624055000022,145.45775919998414,148.4624055000022,145.45775919998414,148.4624055000022,148.44624059999478,148.94661099999212,148.44624059999478,148.94661099999212,148.44624059999478,148.94661099999212,148.44624059999478,148.94661099999212,148.44624059999478,148.94661099999212,148.44624059999478,148.94661099999212,148.44624059999478,148.94661099999212,148.44624059999478,148.94661099999212,145.45775919998414,None,148.94661099999212,148.94661099999212,3.0000000000000027,148.96335239999462,None,149.7146872000012,None,,,,,,,0,1.720000000000001,0.5454545454545454,12003,001,2024_Jun_09_1410,MFTM_A_new1021,2021.2.3,59.97314401710471,
,,,,,,,,stim/Instruction_adaptive.png,conditions/adaptive.xlsx,test,-0.6,-0.6,-0.6,0.6,0.6,left,L,,,,,0,1,1,1,0,11,11,99,,,,,,,,,,,,,,,,,,,,,,,,,,,,,,,,,,,,,,,,,,,,150.2149606999883,None,left,1,2.2229214000108186,150.7158414000005,153.2195883000095,150.7158414000005,152.7197218000074,150.7158414000005,152.7197218000074,150.7158414000005,152.7197218000074,150.7158414000005,152.7197218000074,150.7158414000005,152.7197218000074,152.70213109999895,153.2033311999985,152.70213109999895,153.2033311999985,152.70213109999895,153.2033311999985,152.70213109999895,153.2033311999985,152.70213109999895,153.2033311999985,152.70213109999895,153.2033311999985,152.70213109999895,153.2033311999985,152.70213109999895,153.2033311999985,150.7158414000005,None,153.2033311999985,153.70392440000433,2.0000000000000018,153.7202241999912,None,154.47168519999832,None,,,,,,,[[0.5]],2.0600000000000014,0.5833333333333334,12003,001,2024_Jun_09_1410,MFTM_A_new1021,2021.2.3,59.97314401710471,
,,,,,,,,stim/Instruction_adaptive.png,conditions/adaptive.xlsx,test,-0.6,-0.6,-0.6,0.6,0.6,left,L,,,,,0,1,1,1,0,12,12,55,,,,,,,,,,,,,,,,,,,,,,,,,,,,,,,,,,,,,,,,,,,,154.97219919998315,None,left,1,2.066553999989992,155.47277669998584,157.55950229999144,155.47277669998584,157.05921559999115,155.47277669998584,157.05921559999115,155.47277669998584,157.05921559999115,155.47277669998584,157.05921559999115,155.47277669998584,157.05921559999115,157.0423679999949,157.54274939998868,157.0423679999949,157.54274939998868,157.0423679999949,157.54274939998868,157.0423679999949,157.54274939998868,157.0423679999949,157.54274939998868,157.0423679999949,157.54274939998868,157.0423679999949,157.54274939998868,157.0423679999949,157.54274939998868,155.47277669998584,None,157.5261615999916,158.46081289998256,1.5800000000000012,158.4773370999901,None,159.22857740000472,None,,,,,,,[[0.92]],2.3100000000000014,0.6153846153846154,12003,001,2024_Jun_09_1410,MFTM_A_new1021,2021.2.3,59.97314401710471,
,,,,,,,,stim/Instruction_adaptive.png,conditions/adaptive.xlsx,test,0.6,0.6,0.6,-0.6,-0.6,right,R,,,,,0,1,1,1,0,13,13,14,,,,,,,,,,,,,,,,,,,,,,,,,,,,,,,,,,,,,,,,,,,,159.7299989000021,None,right,1,1.9571045999764465,160.23001279999153,162.06607289999374,160.23001279999153,161.5654657999985,160.23001279999153,161.5654657999985,160.23001279999153,161.5654657999985,160.23001279999153,161.5654657999985,160.23001279999153,161.5654657999985,161.5489765999955,162.04940859999624,161.5489765999955,162.04940859999624,161.5489765999955,162.04940859999624,161.5489765999955,162.04940859999624,161.5489765999955,162.04940859999624,161.5489765999955,162.04940859999624,161.5489765999955,162.04940859999624,161.5489765999955,162.04940859999624,160.23001279999153,None,162.03363240000908,163.21793730001082,1.330000000000001,163.23474439998972,None,163.98570779999136,None,,,,,,,[[1.17]],2.5100000000000016,0.6428571428571429,12003,001,2024_Jun_09_1410,MFTM_A_new1021,2021.2.3,59.97314401710471,
,,,,,,,,stim/Instruction_adaptive.png,conditions/adaptive.xlsx,test,-0.6,-0.6,-0.6,0.6,0.6,left,L,,,,,0,1,1,1,0,14,14,25,,,,,,,,,,,,,,,,,,,,,,,,,,,,,,,,,,,,,,,,,,,,164.4867937999952,None,left,1,1.9040528000041377,164.98715589998756,166.63953139999649,164.98715589998756,166.13911369998823,164.98715589998756,166.13911369998823,164.98715589998756,166.13911369998823,164.98715589998756,166.13911369998823,164.98715589998756,166.13911369998823,166.12238240000443,166.62312609999208,166.12238240000443,166.62312609999208,166.12238240000443,166.62312609999208,166.12238240000443,166.62312609999208,166.12238240000443,166.62312609999208,166.12238240000443,166.62312609999208,166.12238240000443,166.62312609999208,166.12238240000443,166.62312609999208,164.98715589998756,None,166.62312609999208,None,1.1500000000000008,167.9751288999978,None,168.72636909998255,None,,,,,,,[1.33866667],2.6700000000000017,0.6666666666666666,12003,001,2024_Jun_09_1410,MFTM_A_new1021,2021.2.3,59.97314401710471,
,,,,,,,,stim/Instruction_adaptive.png,conditions/adaptive.xlsx,test,-0.6,-0.6,-0.6,0.6,0.6,left,L,,,,,0,1,1,1,0,15,15,87,,,,,,,,,,,,,,,,,,,,,,,,,,,,,,,,,,,,,,,,,,,,169.22683189998497,None,right,0,1.7154831999796443,169.72779989999253,171.26436299999477,169.72779989999253,170.76262239998323,169.72779989999253,170.76262239998323,169.72779989999253,170.76262239998323,169.72779989999253,170.76262239998323,169.72779989999253,170.76262239998323,170.74610160000157,171.24714580000727,170.74610160000157,171.24714580000727,170.74610160000157,171.24714580000727,170.74610160000157,171.24714580000727,170.74610160000157,171.24714580000727,170.74610160000157,171.24714580000727,170.74610160000157,171.24714580000727,170.74610160000157,171.24714580000727,169.72779989999253,None,171.24714580000727,172.599012199993,1.0300000000000007,172.61533440000494,None,173.3665275000094,None,,,,,,,[1.346875],2.2500000000000018,0.625,12003,001,2024_Jun_09_1410,MFTM_A_new1021,2021.2.3,59.97314401710471,
,,,,,,,,stim/Instruction_adaptive.png,conditions/adaptive.xlsx,test,-0.6,-0.6,-0.6,0.6,0.6,left,L,,,,,0,1,1,1,0,16,16,15,,,,,,,,,,,,,,,,,,,,,,,,,,,,,,,,,,,,,,,,,,,,173.86738399998285,None,left,1,2.0356122000084724,174.367949699983,176.2542386999994,174.367949699983,175.75345379998907,174.367949699983,175.75345379998907,174.367949699983,175.75345379998907,174.367949699983,175.75345379998907,174.367949699983,175.75345379998907,175.7371850000054,176.23758769998676,175.7371850000054,176.23758769998676,175.7371850000054,176.23758769998676,175.7371850000054,176.23758769998676,175.7371850000054,176.23758769998676,175.7371850000054,176.23758769998676,175.7371850000054,176.23758769998676,175.7371850000054,176.23758769998676,174.367949699983,None,176.23758769998676,None,1.380000000000001,177.37264489999507,None,178.1236649999919,None,,,,,,,[[1.12]],2.410000000000002,0.6470588235294118,12003,001,2024_Jun_09_1410,MFTM_A_new1021,2021.2.3,59.97314401710471,
,,,,,,,,stim/Instruction_adaptive.png,conditions/adaptive.xlsx,test,0.6,0.6,0.6,-0.6,-0.6,right,R,,,,,0,1,1,1,0,17,17,30,,,,,,,,,,,,,,,,,,,,,,,,,,,,,,,,,,,,,,,,,,,,178.6257906999963,None,left,0,1.6313802000076976,179.12509359998512,180.87793260000763,179.12509359998512,180.37711010000203,179.12509359998512,180.37711010000203,179.12509359998512,180.37711010000203,179.12509359998512,180.37711010000203,179.12509359998512,180.37711010000203,180.34376349998638,180.8446452000062,180.34376349998638,180.8446452000062,180.34376349998638,180.8446452000062,180.34376349998638,180.8446452000062,180.34376349998638,180.8446452000062,180.34376349998638,180.8446452000062,180.34376349998638,180.8446452000062,180.34376349998638,180.8446452000062,179.12509359998512,None,180.8446452000062,182.11425240000244,1.2400000000000009,182.1296022000024,None,182.8808446000039,None,,,,,,,[[1.26]],1.9900000000000013,0.6111111111111112,12003,001,2024_Jun_09_1410,MFTM_A_new1021,2021.2.3,59.97314401710471,
,,,,,,,,stim/Instruction_adaptive.png,conditions/adaptive.xlsx,test,-0.6,-0.6,-0.6,0.6,0.6,left,L,,,,,0,1,1,1,0,18,18,37,,,,,,,,,,,,,,,,,,,,,,,,,,,,,,,,,,,,,,,,,,,,183.381874099985,None,left,1,2.033629099983955,183.88243559998227,186.05231530001038,183.88243559998227,185.552391300007,183.88243559998227,185.552391300007,183.88243559998227,185.552391300007,183.88243559998227,185.552391300007,183.88243559998227,185.552391300007,185.53569190000417,186.03572240000358,185.53569190000417,186.03572240000358,185.53569190000417,186.03572240000358,185.53569190000417,186.03572240000358,185.53569190000417,186.03572240000358,185.53569190000417,186.03572240000358,185.53569190000417,186.03572240000358,185.53569190000417,186.03572240000358,183.88243559998227,None,186.03572240000358,None,1.6600000000000013,186.8871361000056,None,187.6389288000064,None,,,,,,,[[0.84]],2.1600000000000015,0.631578947368421,12003,001,2024_Jun_09_1410,MFTM_A_new1021,2021.2.3,59.97314401710471,
,,,,,,,,stim/Instruction_adaptive.png,conditions/adaptive.xlsx,test,0.6,0.6,0.6,-0.6,-0.6,right,R,,,,,0,1,1,1,0,19,19,94,,,,,,,,,,,,,,,,,,,,,,,,,,,,,,,,,,,,,,,,,,,,188.14105649999692,None,right,1,2.075956899992889,188.63993619999383,190.60915159998694,188.63993619999383,190.12524980001035,188.63993619999383,190.12524980001035,188.63993619999383,190.12524980001035,188.63993619999383,190.12524980001035,188.63993619999383,190.12524980001035,190.0920591999893,190.5923189999885,190.0920591999893,190.5923189999885,190.0920591999893,190.5923189999885,190.0920591999893,190.5923189999885,190.0920591999893,190.5923189999885,190.0920591999893,190.5923189999885,190.0920591999893,190.5923189999885,190.0920591999893,190.5923189999885,188.63993619999383,None,190.5923189999885,191.62744750001002,1.470000000000001,191.64418010000372,None,192.39605879999,None,,,,,,,[[1.03]],2.290000000000002,0.65,12003,001,2024_Jun_09_1410,MFTM_A_new1021,2021.2.3,59.97314401710471,
,,,,,,,,stim/Instruction_adaptive.png,conditions/adaptive.xlsx,test,0.6,0.6,0.6,-0.6,-0.6,right,R,,,,,0,1,1,1,0,20,20,40,,,,,,,,,,,,,,,,,,,,,,,,,,,,,,,,,,,,,,,,,,,,192.89589569999953,None,right,1,1.7832902000227477,193.39722569999867,195.24948369999765,193.39722569999867,194.7490007999877,193.39722569999867,194.7490007999877,193.39722569999867,194.7490007999877,193.39722569999867,194.7490007999877,193.39722569999867,194.7490007999877,194.7319685999828,195.2329128999845,194.7319685999828,195.2329128999845,194.7319685999828,195.2329128999845,194.7319685999828,195.2329128999845,194.7319685999828,195.2329128999845,194.7319685999828,195.2329128999845,194.7319685999828,195.2329128999845,194.7319685999828,195.2329128999845,193.39722569999867,None,195.2329128999845,196.38437539999723,1.350000000000001,196.4012664000038,None,197.15256230000523,None,,,,,,,[[1.15]],2.410000000000002,0.6666666666666666,12003,001,2024_Jun_09_1410,MFTM_A_new1021,2021.2.3,59.97314401710471,
,,,,,,,,stim/Instruction_adaptive.png,conditions/adaptive.xlsx,test,0.6,0.6,0.6,-0.6,-0.6,right,R,,,,,0,1,1,1,0,21,21,78,,,,,,,,,,,,,,,,,,,,,,,,,,,,,,,,,,,,,,,,,,,,197.6531566999911,None,left,0,2.034531000012066,198.15399099999922,199.90671139999176,198.15399099999922,199.40593119998812,198.15399099999922,199.40593119998812,198.15399099999922,199.40593119998812,198.15399099999922,199.40593119998812,198.15399099999922,199.40593119998812,199.3725945999904,199.87424549998832,199.3725945999904,199.87424549998832,199.3725945999904,199.87424549998832,199.3725945999904,199.87424549998832,199.3725945999904,199.87424549998832,199.3725945999904,199.87424549998832,199.3725945999904,199.87424549998832,199.3725945999904,199.87424549998832,198.15399099999922,None,199.87424549998832,201.14194209998823,1.2400000000000009,201.1583438999951,None,201.90981640000246,None,,,,,,,[[1.26]],2.0900000000000016,0.6363636363636364,12003,001,2024_Jun_09_1410,MFTM_A_new1021,2021.2.3,59.97314401710471,
,,,,,,,,stim/Instruction_adaptive.png,conditions/adaptive.xlsx,test,0.6,0.6,0.6,-0.6,-0.6,right,R,,,,,0,1,1,1,0,22,22,82,,,,,,,,,,,,,,,,,,,,,,,,,,,,,,,,,,,,,,,,,,,,202.41089159998228,None,right,1,2.4696949000062887,202.91112400000566,204.96397240000078,202.91112400000566,204.46357639998314,202.91112400000566,204.46357639998314,202.91112400000566,204.46357639998314,202.91112400000566,204.46357639998314,202.91112400000566,204.46357639998314,204.44648620000225,204.9475695999863,204.44648620000225,204.9475695999863,204.44648620000225,204.9475695999863,204.44648620000225,204.9475695999863,204.44648620000225,204.9475695999863,204.44648620000225,204.9475695999863,204.44648620000225,204.9475695999863,204.44648620000225,204.9475695999863,202.91112400000566,None,204.9475695999863,205.89905010000803,1.5500000000000012,205.91550269999425,None,206.66683979998925,None,,,,,,,[[0.95]],2.2100000000000017,0.6521739130434783,12003,001,2024_Jun_09_1410,MFTM_A_new1021,2021.2.3,59.97314401710471,
,,,,,,,,stim/Instruction_adaptive.png,conditions/adaptive.xlsx,test,0.6,0.6,0.6,-0.6,-0.6,right,R,,,,,0,1,1,1,0,23,23,56,,,,,,,,,,,,,,,,,,,,,,,,,,,,,,,,,,,,,,,,,,,,207.1680941999948,None,right,1,2.280296399985673,207.66833089999272,209.58819209999638,207.66833089999272,209.10376379999798,207.66833089999272,209.10376379999798,207.66833089999272,209.10376379999798,207.66833089999272,209.10376379999798,207.66833089999272,209.10376379999798,209.0705359999847,209.57099159999052,209.0705359999847,209.57099159999052,209.0705359999847,209.57099159999052,209.0705359999847,209.57099159999052,209.0705359999847,209.57099159999052,209.0705359999847,209.57099159999052,209.0705359999847,209.57099159999052,209.0705359999847,209.57099159999052,207.66833089999272,None,209.57099159999052,210.65713370000594,1.420000000000001,210.6726750000089,None,211.4237851999933,None,,,,,,,[[1.08]],2.3200000000000016,0.6666666666666666,12003,001,2024_Jun_09_1410,MFTM_A_new1021,2021.2.3,59.97314401710471,
,,,,,,,,stim/Instruction_adaptive.png,conditions/adaptive.xlsx,test,-0.6,-0.6,-0.6,0.6,0.6,left,L,,,,,0,1,1,1,0,24,24,9,,,,,,,,,,,,,,,,,,,,,,,,,,,,,,,,,,,,,,,,,,,,211.92531279998366,None,right,0,1.94753390000551,212.42559559998335,214.24491750000743,212.42559559998335,213.76088190000155,212.42559559998335,213.76088190000155,212.42559559998335,213.76088190000155,212.42559559998335,213.76088190000155,212.42559559998335,213.76088190000155,213.72783289998188,214.22814839999774,213.72783289998188,214.22814839999774,213.72783289998188,214.22814839999774,213.72783289998188,214.22814839999774,213.72783289998188,214.22814839999774,213.72783289998188,214.22814839999774,213.72783289998188,214.22814839999774,213.72783289998188,214.22814839999774,212.42559559998335,None,214.22814839999774,215.41333019998274,1.320000000000001,215.4300108999887,None,216.18162570000277,None,,,,,,,[[1.18]],2.030000000000001,0.64,12003,001,2024_Jun_09_1410,MFTM_A_new1021,2021.2.3,59.97314401710471,
,,,,,,,,stim/Instruction_adaptive.png,conditions/adaptive.xlsx,test,0.6,0.6,0.6,-0.6,-0.6,right,R,,,,,0,1,1,1,0,25,25,12,,,,,,,,,,,,,,,,,,,,,,,,,,,,,,,,,,,,,,,,,,,,216.68184050000855,None,right,1,2.3100473000085913,217.18254859998706,219.30251750000753,217.18254859998706,218.80179239998688,217.18254859998706,218.80179239998688,217.18254859998706,218.80179239998688,217.18254859998706,218.80179239998688,217.18254859998706,218.80179239998688,218.78506190000917,219.286191399995,218.78506190000917,219.286191399995,218.78506190000917,219.286191399995,218.78506190000917,219.286191399995,218.78506190000917,219.286191399995,218.78506190000917,219.286191399995,218.78506190000917,219.286191399995,218.78506190000917,219.286191399995,217.18254859998706,None,219.2694641999842,220.17050589999417,1.6100000000000012,220.1871872000047,None,220.93914100000984,None,,,,,,,[[0.89]],2.1300000000000017,0.6538461538461539,12003,001,2024_Jun_09_1410,MFTM_A_new1021,2021.2.3,59.97314401710471,
,,,,,,,,stim/Instruction_adaptive.png,conditions/adaptive.xlsx,test,0.6,0.6,0.6,-0.6,-0.6,right,R,,,,,0,1,1,1,0,26,26,88,,,,,,,,,,,,,,,,,,,,,,,,,,,,,,,,,,,,,,,,,,,,221.4393718999927,None,right,1,2.4656687999959104,221.93992370000342,223.94325089998893,221.93992370000342,223.44215170000098,221.93992370000342,223.44215170000098,221.93992370000342,223.44215170000098,221.93992370000342,223.44215170000098,221.93992370000342,223.44215170000098,223.42534029998933,223.92610599999898,223.42534029998933,223.92610599999898,223.42534029998933,223.92610599999898,223.42534029998933,223.92610599999898,223.42534029998933,223.92610599999898,223.42534029998933,223.92610599999898,223.42534029998933,223.92610599999898,223.42534029998933,223.92610599999898,221.93992370000342,None,223.92610599999898,224.92770090000704,1.500000000000001,224.94449500000337,None,225.69540209998377,None,,,,,,,[[1.]],2.2300000000000013,0.6666666666666666,12003,001,2024_Jun_09_1410,MFTM_A_new1021,2021.2.3,59.97314401710471,
,,,,,,,,stim/Instruction_adaptive.png,conditions/adaptive.xlsx,test,0.6,0.6,0.6,-0.6,-0.6,right,R,,,,,0,1,1,1,0,27,27,84,,,,,,,,,,,,,,,,,,,,,,,,,,,,,,,,,,,,,,,,,,,,226.1970328000025,None,right,1,1.8761563999869395,226.69694729999173,228.59994610000285,226.69694729999173,228.09895369998412,226.69694729999173,228.09895369998412,226.69694729999173,228.09895369998412,226.69694729999173,228.09895369998412,226.69694729999173,228.09895369998412,228.08234419999644,228.5835955000075,228.08234419999644,228.5835955000075,228.08234419999644,228.5835955000075,228.08234419999644,228.5835955000075,228.08234419999644,228.5835955000075,228.08234419999644,228.5835955000075,228.08234419999644,228.5835955000075,228.08234419999644,228.5835955000075,226.69694729999173,None,228.5835955000075,229.68566550000105,1.400000000000001,229.7015384999977,None,230.45277169998735,None,,,,,,,[[1.1]],2.3200000000000016,0.6785714285714286,12003,001,2024_Jun_09_1410,MFTM_A_new1021,2021.2.3,59.97314401710471,
,,,,,,,,stim/Instruction_adaptive.png,conditions/adaptive.xlsx,test,0.6,0.6,0.6,-0.6,-0.6,right,R,,,,,0,1,1,1,0,28,28,52,,,,,,,,,,,,,,,,,,,,,,,,,,,,,,,,,,,,,,,,,,,,230.95356389999506,None,right,1,1.9514425000234041,231.45422789998702,233.27361390000442,231.45422789998702,232.78938319999725,231.45422789998702,232.78938319999725,231.45422789998702,232.78938319999725,231.45422789998702,232.78938319999725,231.45422789998702,232.78938319999725,232.7561056999839,233.25671869999496,232.7561056999839,233.25671869999496,232.7561056999839,233.25671869999496,232.7561056999839,233.25671869999496,232.7561056999839,233.25671869999496,232.7561056999839,233.25671869999496,232.7561056999839,233.25671869999496,232.7561056999839,233.25671869999496,231.45422789998702,None,233.25671869999496,234.44207620000816,1.320000000000001,234.45912260000478,None,235.2099947000097,None,,,,,,,[[1.18]],2.4000000000000017,0.6896551724137931,12003,001,2024_Jun_09_1410,MFTM_A_new1021,2021.2.3,59.97314401710471,
,,,,,,,,stim/Instruction_adaptive.png,conditions/adaptive.xlsx,test,-0.6,-0.6,-0.6,0.6,0.6,left,L,,,,,0,1,1,1,0,29,29,11,,,,,,,,,,,,,,,,,,,,,,,,,,,,,,,,,,,,,,,,,,,,235.7106472000014,None,left,1,1.9139979000028688,236.2114365999878,237.96438459999627,236.2114365999878,237.4634986000019,236.2114365999878,237.4634986000019,236.2114365999878,237.4634986000019,236.2114365999878,237.4634986000019,236.2114365999878,237.4634986000019,237.44661690000794,237.94742300000507,237.44661690000794,237.94742300000507,237.44661690000794,237.94742300000507,237.44661690000794,237.94742300000507,237.44661690000794,237.94742300000507,237.44661690000794,237.94742300000507,237.44661690000794,237.94742300000507,237.44661690000794,237.94742300000507,236.2114365999878,None,237.94742300000507,239.18236929998966,1.2500000000000009,239.19916689998354,None,239.95072459999938,None,,,,,,,[1.228],2.4700000000000015,0.7,12003,001,2024_Jun_09_1410,MFTM_A_new1021,2021.2.3,59.97314401710471,
,,,,,,,,stim/Instruction_adaptive.png,conditions/adaptive.xlsx,test,0.6,0.6,0.6,-0.6,-0.6,right,R,,,,,0,1,1,1,0,30,30,38,,,,,,,,,,,,,,,,,,,,,,,,,,,,,,,,,,,,,,,,,,,,240.45083169999998,None,left,0,1.7899905000231229,240.95153259998187,242.6543793999881,240.95153259998187,242.15373580000596,240.95153259998187,242.15373580000596,240.95153259998187,242.15373580000596,240.95153259998187,242.15373580000596,240.95153259998187,242.15373580000596,242.12095759998192,242.62102419999428,242.12095759998192,242.62102419999428,242.12095759998192,242.62102419999428,242.12095759998192,242.62102419999428,242.12095759998192,242.62102419999428,242.12095759998192,242.62102419999428,242.12095759998192,242.62102419999428,242.12095759998192,242.62102419999428,240.95153259998187,None,242.62102419999428,243.8560320000106,1.1900000000000008,243.87269689998357,None,244.62397499999497,None,,,,,,,[1.23064516],2.2600000000000016,0.6774193548387096,12003,001,2024_Jun_09_1410,MFTM_A_new1021,2021.2.3,59.97314401710471,
,,,,,,,,stim/Instruction_adaptive.png,conditions/adaptive.xlsx,test,0.6,0.6,0.6,-0.6,-0.6,right,R,,,,,0,1,1,1,0,31,31,28,,,,,,,,,,,,,,,,,,,,,,,,,,,,,,,,,,,,,,,,,,,,245.1248537999927,None,right,1,1.7403530000010505,245.62553029999253,247.4953206999926,245.62553029999253,246.9942044999916,245.62553029999253,246.9942044999916,245.62553029999253,246.9942044999916,245.62553029999253,246.9942044999916,245.62553029999253,246.9942044999916,246.97787129998324,247.47844279999845,246.97787129998324,247.47844279999845,246.97787129998324,247.47844279999845,246.97787129998324,247.47844279999845,246.97787129998324,247.47844279999845,246.97787129998324,247.47844279999845,246.97787129998324,247.47844279999845,246.97787129998324,247.47844279999845,245.62553029999253,None,247.47844279999845,248.6134030999965,1.370000000000001,248.63011329999426,None,249.38105890000588,None,,,,,,,[[1.13]],2.3400000000000016,0.6875,12003,001,2024_Jun_09_1410,MFTM_A_new1021,2021.2.3,59.97314401710471,
,,,,,,,,stim/Instruction_adaptive.png,conditions/adaptive.xlsx,test,-0.6,-0.6,-0.6,0.6,0.6,left,L,,,,,0,1,1,1,0,32,32,33,,,,,,,,,,,,,,,,,,,,,,,,,,,,,,,,,,,,,,,,,,,,249.88197640000726,None,left,1,1.6550470999791287,250.3827110999846,252.1855629000056,250.3827110999846,251.6846811999858,250.3827110999846,251.6846811999858,250.3827110999846,251.6846811999858,250.3827110999846,251.6846811999858,250.3827110999846,251.6846811999858,251.66793969998253,252.16879779999726,251.66793969998253,252.16879779999726,251.66793969998253,252.16879779999726,251.66793969998253,252.16879779999726,251.66793969998253,252.16879779999726,251.66793969998253,252.16879779999726,251.66793969998253,252.16879779999726,251.66793969998253,252.16879779999726,250.3827110999846,None,252.16879779999726,253.37149459999637,1.300000000000001,253.38735430000816,None,254.13848709999002,None,,,,,,,[[1.2]],2.410000000000002,0.696969696969697,12003,001,2024_Jun_09_1410,MFTM_A_new1021,2021.2.3,59.97314401710471,
,,,,,,,,stim/Instruction_adaptive.png,conditions/adaptive.xlsx,test,0.6,0.6,0.6,-0.6,-0.6,right,R,,,,,0,1,1,1,0,33,33,36,,,,,,,,,,,,,,,,,,,,,,,,,,,,,,,,,,,,,,,,,,,,254.63917730000685,None,right,1,1.4901965000026394,255.1397328999883,256.89228070000536,255.1397328999883,256.3918283999956,255.1397328999883,256.3918283999956,255.1397328999883,256.3918283999956,255.1397328999883,256.3918283999956,255.1397328999883,256.3918283999956,256.3588364000025,256.85946700000204,256.3588364000025,256.85946700000204,256.3588364000025,256.85946700000204,256.3588364000025,256.85946700000204,256.3588364000025,256.85946700000204,256.3588364000025,256.85946700000204,256.3588364000025,256.85946700000204,256.3588364000025,256.85946700000204,255.1397328999883,None,256.85946700000204,258.0943207000091,1.2400000000000009,258.11101220001,None,258.86218699999154,None,,,,,,,[1.22764706],2.4700000000000015,0.7058823529411765,12003,001,2024_Jun_09_1410,MFTM_A_new1021,2021.2.3,59.97314401710471,
,,,,,,,,stim/Instruction_adaptive.png,conditions/adaptive.xlsx,test,-0.6,-0.6,-0.6,0.6,0.6,left,L,,,,,0,1,1,1,0,34,34,1,,,,,,,,,,,,,,,,,,,,,,,,,,,,,,,,,,,,,,,,,,,,259.36291989998426,None,left,1,1.5825954000174534,259.8636680000054,261.56624439998996,259.8636680000054,261.0660545999999,259.8636680000054,261.0660545999999,259.8636680000054,261.0660545999999,259.8636680000054,261.0660545999999,259.8636680000054,261.0660545999999,261.0320594999939,261.53299549999065,261.0320594999939,261.53299549999065,261.0320594999939,261.53299549999065,261.0320594999939,261.53299549999065,261.0320594999939,261.53299549999065,261.0320594999939,261.53299549999065,261.0320594999939,261.53299549999065,261.0320594999939,261.53299549999065,259.8636680000054,None,261.53299549999065,262.768644900003,1.1900000000000008,262.7847269999911,None,263.53618920000736,None,,,,,,,[1.23],2.530000000000002,0.7142857142857143,12003,001,2024_Jun_09_1410,MFTM_A_new1021,2021.2.3,59.97314401710471,
,,,,,,,,stim/Instruction_adaptive.png,conditions/adaptive.xlsx,test,0.6,0.6,0.6,-0.6,-0.6,right,R,,,,,0,1,1,1,0,35,35,2,,,,,,,,,,,,,,,,,,,,,,,,,,,,,,,,,,,,,,,,,,,,264.03701400000136,None,right,1,1.6206753000151366,264.53737549998914,266.1899094999826,264.53737549998914,265.6891908000107,264.53737549998914,265.6891908000107,264.53737549998914,265.6891908000107,264.53737549998914,265.6891908000107,264.53737549998914,265.6891908000107,265.655827199982,266.1565106000053,265.655827199982,266.1565106000053,265.655827199982,266.1565106000053,265.655827199982,266.1565106000053,265.655827199982,266.1565106000053,265.655827199982,266.1565106000053,265.655827199982,266.1565106000053,265.655827199982,266.1565106000053,264.53737549998914,None,266.1565106000053,267.391873399989,1.1400000000000008,267.4244730999926,None,268.1762202999962,None,,,,,,,[1.23361111],2.580000000000002,0.7222222222222222,12003,001,2024_Jun_09_1410,MFTM_A_new1021,2021.2.3,59.97314401710471,
,,,,,,,,stim/Instruction_adaptive.png,conditions/adaptive.xlsx,test,-0.6,-0.6,-0.6,0.6,0.6,left,L,,,,,0,1,1,1,0,36,36,13,,,,,,,,,,,,,,,,,,,,,,,,,,,,,,,,,,,,,,,,,,,,268.67694559998927,None,right,0,2.1324937000172213,269.1778694000095,270.78076170000713,269.1778694000095,270.2791695999913,269.1778694000095,270.2791695999913,269.1778694000095,270.2791695999913,269.1778694000095,270.2791695999913,269.1778694000095,270.2791695999913,270.26274939998984,270.76344380000955,270.26274939998984,270.76344380000955,270.26274939998984,270.76344380000955,270.26274939998984,270.76344380000955,270.26274939998984,270.76344380000955,270.26274939998984,270.76344380000955,270.26274939998984,270.76344380000955,270.26274939998984,270.76344380000955,269.1778694000095,None,270.76344380000955,None,1.1000000000000008,272.01564609998604,None,272.7672123000084,None,,,,,,,[1.23810811],2.4300000000000015,0.7027027027027027,12003,001,2024_Jun_09_1410,MFTM_A_new1021,2021.2.3,59.97314401710471,
,,,,,,,,stim/Instruction_adaptive.png,conditions/adaptive.xlsx,test,0.6,0.6,0.6,-0.6,-0.6,right,R,,,,,0,1,1,1,0,37,37,98,,,,,,,,,,,,,,,,,,,,,,,,,,,,,,,,,,,,,,,,,,,,273.2671561999887,None,right,1,1.9750200000125915,273.7678728000028,275.4876230999944,273.7678728000028,275.00390280000283,273.7678728000028,275.00390280000283,273.7678728000028,275.00390280000283,273.7678728000028,275.00390280000283,273.7678728000028,275.00390280000283,274.9700734000071,275.4709232999885,274.9700734000071,275.4709232999885,274.9700734000071,275.4709232999885,274.9700734000071,275.4709232999885,274.9700734000071,275.4709232999885,274.9700734000071,275.4709232999885,274.9700734000071,275.4709232999885,274.9700734000071,275.4709232999885,273.7678728000028,None,275.4709232999885,276.72232959998655,1.2200000000000009,276.73911059999955,None,277.4904211999965,None,,,,,,,[1.23921053],2.4800000000000018,0.7105263157894737,12003,001,2024_Jun_09_1410,MFTM_A_new1021,2021.2.3,59.97314401710471,
,,,,,,,,stim/Instruction_adaptive.png,conditions/adaptive.xlsx,test,0.6,0.6,0.6,-0.6,-0.6,right,R,,,,,0,1,1,1,0,38,38,18,,,,,,,,,,,,,,,,,,,,,,,,,,,,,,,,,,,,,,,,,,,,277.9908660000074,None,right,1,2.626461800013203,278.49191260000225,280.17770010000095,278.49191260000225,279.6767760000075,278.49191260000225,279.6767760000075,278.49191260000225,279.6767760000075,278.49191260000225,279.6767760000075,278.49191260000225,279.6767760000075,279.6601905999996,280.16097110000555,279.6601905999996,280.16097110000555,279.6601905999996,280.16097110000555,279.6601905999996,280.16097110000555,279.6601905999996,280.16097110000555,279.6601905999996,280.16097110000555,279.6601905999996,280.16097110000555,279.6601905999996,280.16097110000555,278.49191260000225,None,280.16097110000555,None,1.1800000000000008,281.41382280000835,None,282.1639930999954,None,,,,,,,[1.24128205],2.530000000000002,0.717948717948718,12003,001,2024_Jun_09_1410,MFTM_A_new1021,2021.2.3,59.97314401710471,
,,,,,,,,stim/Instruction_adaptive.png,conditions/adaptive.xlsx,test,0.6,0.6,0.6,-0.6,-0.6,right,R,,,,,0,1,1,1,0,39,39,46,,,,,,,,,,,,,,,,,,,,,,,,,,,,,,,,,,,,,,,,,,,,282.6646638000093,None,right,1,3.0492041000106838,283.16551299998537,284.81817009998485,283.16551299998537,284.31718749998254,283.16551299998537,284.31718749998254,283.16551299998537,284.31718749998254,283.16551299998537,284.31718749998254,283.16551299998537,284.31718749998254,284.283763799991,284.7850821999891,284.283763799991,284.7850821999891,284.283763799991,284.7850821999891,284.283763799991,284.7850821999891,284.283763799991,284.7850821999891,284.283763799991,284.7850821999891,284.283763799991,284.7850821999891,284.283763799991,284.7850821999891,283.16551299998537,None,284.7850821999891,286.2367063999991,1.1400000000000008,286.25328050000826,None,287.0045683000062,None,,,,,,,[1.24425],2.580000000000002,0.725,12003,001,2024_Jun_09_1410,MFTM_A_new1021,2021.2.3,59.97314401710471,
,,,,,,,,stim/Instruction_adaptive.png,conditions/adaptive.xlsx,test,-0.6,-0.6,-0.6,0.6,0.6,left,L,,,,,0,1,1,1,0,40,40,29,,,,,,,,,,,,,,,,,,,,,,,,,,,,,,,,,,,,,,,,,,,,287.5051606000052,None,left,1,1.9206319999939296,288.0064412000065,289.60857019998366,288.0064412000065,289.10782360000303,288.0064412000065,289.10782360000303,288.0064412000065,289.10782360000303,288.0064412000065,289.10782360000303,288.0064412000065,289.10782360000303,289.0910234999901,289.59193409999716,289.0910234999901,289.59193409999716,289.0910234999901,289.59193409999716,289.0910234999901,289.59193409999716,289.0910234999901,289.59193409999716,289.0910234999901,289.59193409999716,289.0910234999901,289.59193409999716,289.0910234999901,289.59193409999716,288.0064412000065,None,289.59193409999716,290.8436784000078,1.1000000000000008,290.8603948999953,None,291.6114271999977,None,,,,,,,[1.24804878],2.6300000000000017,0.7317073170731707,12003,001,2024_Jun_09_1410,MFTM_A_new1021,2021.2.3,59.97314401710471,
,,,,,,,,stim/Instruction_adaptive.png,conditions/adaptive.xlsx,test,-0.6,-0.6,-0.6,0.6,0.6,left,L,,,,,0,1,1,1,0,41,41,53,,,,,,,,,,,,,,,,,,,,,,,,,,,,,,,,,,,,,,,,,,,,292.11211869999534,None,left,1,1.6500905000139028,292.6130059999996,294.1820609999995,292.6130059999996,293.6813101999869,292.6130059999996,293.6813101999869,292.6130059999996,293.6813101999869,292.6130059999996,293.6813101999869,292.6130059999996,293.6813101999869,293.64790650000214,294.1485257000022,293.64790650000214,294.1485257000022,293.64790650000214,294.1485257000022,293.64790650000214,294.1485257000022,293.64790650000214,294.1485257000022,293.64790650000214,294.1485257000022,293.64790650000214,294.1485257000022,293.64790650000214,294.1485257000022,292.6130059999996,None,294.1485257000022,295.40065080000204,1.0600000000000007,295.4338788999885,None,296.18508850000217,None,,,,,,,[1.25261905],2.680000000000002,0.7380952380952381,12003,001,2024_Jun_09_1410,MFTM_A_new1021,2021.2.3,59.97314401710471,
,,,,,,,,stim/Instruction_adaptive.png,conditions/adaptive.xlsx,test,-0.6,-0.6,-0.6,0.6,0.6,left,L,,,,,0,1,1,1,0,42,42,45,,,,,,,,,,,,,,,,,,,,,,,,,,,,,,,,,,,,,,,,,,,,296.6857406999916,None,left,1,1.3884943000157364,297.1865745999967,298.7222777999996,297.1865745999967,298.2215995999868,297.1865745999967,298.2215995999868,297.1865745999967,298.2215995999868,297.1865745999967,298.2215995999868,297.1865745999967,298.2215995999868,298.20499989998643,298.70542209999985,298.20499989998643,298.70542209999985,298.20499989998643,298.70542209999985,298.20499989998643,298.70542209999985,298.20499989998643,298.70542209999985,298.20499989998643,298.70542209999985,298.20499989998643,298.70542209999985,298.20499989998643,298.70542209999985,297.1865745999967,None,298.70542209999985,None,1.0300000000000007,299.97405940000317,None,300.7252809999918,None,,,,,,,[1.25767442],2.720000000000002,0.7441860465116279,12003,001,2024_Jun_09_1410,MFTM_A_new1021,2021.2.3,59.97314401710471,
,,,,,,,,stim/Instruction_adaptive.png,conditions/adaptive.xlsx,test,0.6,0.6,0.6,-0.6,-0.6,right,R,,,,,0,1,1,1,0,43,43,20,,,,,,,,,,,,,,,,,,,,,,,,,,,,,,,,,,,,,,,,,,,,301.2269124999875,None,right,1,1.6077477999788243,301.7274047000101,303.2291289999848,301.7274047000101,302.72835759999,301.7274047000101,302.72835759999,301.7274047000101,302.72835759999,301.7274047000101,302.72835759999,301.7274047000101,302.72835759999,302.71170680000796,303.2123648999841,302.71170680000796,303.2123648999841,302.71170680000796,303.2123648999841,302.71170680000796,303.2123648999841,302.71170680000796,303.2123648999841,302.71170680000796,303.2123648999841,302.71170680000796,303.2123648999841,302.71170680000796,303.2123648999841,301.7274047000101,None,303.2123648999841,304.48177230000147,1.0000000000000007,304.4975279000064,None,305.2488427000062,None,,,,,,,[1.26318182],2.760000000000002,0.75,12003,001,2024_Jun_09_1410,MFTM_A_new1021,2021.2.3,59.97314401710471,
,,,,,,,,stim/Instruction_adaptive.png,conditions/adaptive.xlsx,test,-0.6,-0.6,-0.6,0.6,0.6,left,L,,,,,0,1,1,1,0,44,44,93,,,,,,,,,,,,,,,,,,,,,,,,,,,,,,,,,,,,,,,,,,,,305.75022549999994,None,left,1,2.317524499987485,306.25012660000357,307.72006319998764,306.25012660000357,307.23543199998676,306.25012660000357,307.23543199998676,306.25012660000357,307.23543199998676,306.25012660000357,307.23543199998676,306.25012660000357,307.23543199998676,307.2016859999858,307.7026208000025,307.2016859999858,307.7026208000025,307.2016859999858,307.7026208000025,307.2016859999858,307.7026208000025,307.2016859999858,307.7026208000025,307.2016859999858,307.7026208000025,307.2016859999858,307.7026208000025,307.2016859999858,307.7026208000025,306.25012660000357,None,307.7026208000025,308.9709593000007,0.9700000000000006,309.0041557000077,None,309.7555667999841,None,,,,,,,[1.26911111],2.800000000000002,0.7555555555555555,12003,001,2024_Jun_09_1410,MFTM_A_new1021,2021.2.3,59.97314401710471,
,,,,,,,,stim/Instruction_adaptive.png,conditions/adaptive.xlsx,test,-0.6,-0.6,-0.6,0.6,0.6,left,L,,,,,0,1,1,1,0,45,45,81,,,,,,,,,,,,,,,,,,,,,,,,,,,,,,,,,,,,,,,,,,,,310.25712960000965,None,right,0,1.746193900005892,310.75715620000847,312.209546099999,310.75715620000847,311.708595700009,310.75715620000847,311.708595700009,310.75715620000847,311.708595700009,310.75715620000847,311.708595700009,310.75715620000847,311.708595700009,311.6751290000102,312.17598629998975,311.6751290000102,312.17598629998975,311.6751290000102,312.17598629998975,311.6751290000102,312.17598629998975,311.6751290000102,312.17598629998975,311.6751290000102,312.17598629998975,311.6751290000102,312.17598629998975,311.6751290000102,312.17598629998975,310.75715620000847,None,312.17598629998975,313.46229259998654,0.9400000000000006,313.47770719998516,None,314.2289981000067,None,,,,,,,[1.27543478],2.690000000000002,0.7391304347826086,12003,001,2024_Jun_09_1410,MFTM_A_new1021,2021.2.3,59.97314401710471,
,,,,,,,,stim/Instruction_adaptive.png,conditions/adaptive.xlsx,test,0.6,0.6,0.6,-0.6,-0.6,right,R,,,,,0,1,1,1,0,46,46,76,,,,,,,,,,,,,,,,,,,,,,,,,,,,,,,,,,,,,,,,,,,,314.73047539999243,None,left,0,1.8650821999763139,315.23047690000385,316.76615209999727,315.23047690000385,316.2654618000088,315.23047690000385,316.2654618000088,315.23047690000385,316.2654618000088,315.23047690000385,316.2654618000088,315.23047690000385,316.2654618000088,316.2320420999895,316.7326114999887,316.2320420999895,316.7326114999887,316.2320420999895,316.7326114999887,316.2320420999895,316.7326114999887,316.2320420999895,316.7326114999887,316.2320420999895,316.7326114999887,316.2320420999895,316.7326114999887,316.2320420999895,316.7326114999887,315.23047690000385,None,316.7326114999887,318.0183610999957,1.0200000000000007,318.03472689999035,None,318.7859746000031,None,,,,,,,[1.27978723],2.570000000000002,0.723404255319149,12003,001,2024_Jun_09_1410,MFTM_A_new1021,2021.2.3,59.97314401710471,
,,,,,,,,stim/Instruction_adaptive.png,conditions/adaptive.xlsx,test,0.6,0.6,0.6,-0.6,-0.6,right,R,,,,,0,1,1,1,0,47,47,16,,,,,,,,,,,,,,,,,,,,,,,,,,,,,,,,,,,,,,,,,,,,319.2865846999921,None,right,1,1.5249955999897793,319.7873093000089,321.4071593999979,319.7873093000089,320.90576349999174,319.7873093000089,320.90576349999174,319.7873093000089,320.90576349999174,319.7873093000089,320.90576349999174,319.7873093000089,320.90576349999174,320.8723733999941,321.373136899987,320.8723733999941,321.373136899987,320.8723733999941,321.373136899987,320.8723733999941,321.373136899987,320.8723733999941,321.373136899987,320.8723733999941,321.373136899987,320.8723733999941,321.373136899987,320.8723733999941,321.373136899987,319.7873093000089,None,321.373136899987,322.6590528000088,1.1100000000000008,322.69171220000135,None,323.442907699995,None,,,,,,,[1.28208333],2.610000000000002,0.7291666666666666,12003,001,2024_Jun_09_1410,MFTM_A_new1021,2021.2.3,59.97314401710471,
,,,,,,,,stim/Instruction_adaptive.png,conditions/adaptive.xlsx,test,0.6,0.6,0.6,-0.6,-0.6,right,R,,,,,0,1,1,1,0,48,48,54,,,,,,,,,,,,,,,,,,,,,,,,,,,,,,,,,,,,,,,,,,,,323.94364149999456,None,right,1,2.4354084999940824,324.4445287999988,326.0299454999913,324.4445287999988,325.5294099999883,324.4445287999988,325.5294099999883,324.4445287999988,325.5294099999883,324.4445287999988,325.5294099999883,324.4445287999988,325.5294099999883,325.51259749999736,326.0139724999899,325.51259749999736,326.0139724999899,325.51259749999736,326.0139724999899,325.51259749999736,326.0139724999899,325.51259749999736,326.0139724999899,325.51259749999736,326.0139724999899,325.51259749999736,326.0139724999899,325.51259749999736,326.0139724999899,324.4445287999988,None,325.9972532999818,327.28260509998654,1.0800000000000007,327.3152834000066,None,328.0665178000054,None,,,,,,,[1.28489796],2.650000000000002,0.7346938775510204,12003,001,2024_Jun_09_1410,MFTM_A_new1021,2021.2.3,59.97314401710471,
,,,,,,,,stim/Instruction_adaptive.png,conditions/adaptive.xlsx,test,0.6,0.6,0.6,-0.6,-0.6,right,R,,,,,0,1,1,1,0,49,49,32,,,,,,,,,,,,,,,,,,,,,,,,,,,,,,,,,,,,,,,,,,,,328.56803699999,None,left,0,1.6679409999924246,329.06796549999854,330.62116559999413,329.06796549999854,330.11987709999084,329.06796549999854,330.11987709999084,329.06796549999854,330.11987709999084,329.06796549999854,330.11987709999084,329.06796549999854,330.11987709999084,330.1028421999945,330.60431880000397,330.1028421999945,330.60431880000397,330.1028421999945,330.60431880000397,330.1028421999945,330.60431880000397,330.1028421999945,330.60431880000397,330.1028421999945,330.60431880000397,330.1028421999945,330.60431880000397,330.1028421999945,330.60431880000397,329.06796549999854,None,330.60431880000397,None,1.0500000000000007,331.9055989999906,None,332.65672179998364,None,,,,,,,[1.2882],2.530000000000002,0.72,12003,001,2024_Jun_09_1410,MFTM_A_new1021,2021.2.3,59.97314401710471,
,,,,,,,,stim/Instruction_adaptive.png,conditions/adaptive.xlsx,test,0.6,0.6,0.6,-0.6,-0.6,right,R,,,,,0,1,1,1,0,50,50,10,,,,,,,,,,,,,,,,,,,,,,,,,,,,,,,,,,,,,,,,,,,,333.1575343000004,None,right,1,1.709758499986492,333.6583132999949,335.3109375000058,333.6583132999949,334.81010659999447,333.6583132999949,334.81010659999447,333.6583132999949,334.81010659999447,333.6583132999949,334.81010659999447,333.6583132999949,334.81010659999447,334.7766309999861,335.27740160000394,334.7766309999861,335.27740160000394,334.7766309999861,335.27740160000394,334.7766309999861,335.27740160000394,334.7766309999861,335.27740160000394,334.7766309999861,335.27740160000394,334.7766309999861,335.27740160000394,334.7766309999861,335.27740160000394,333.6583132999949,None,335.27740160000394,336.5805854999926,1.1400000000000008,336.59585749998223,None,337.3472230999905,None,,,,,,,[1.28960784],2.570000000000002,0.7254901960784313,12003,001,2024_Jun_09_1410,MFTM_A_new1021,2021.2.3,59.97314401710471,
,,,,,,,,stim/Instruction_adaptive.png,conditions/adaptive.xlsx,test,-0.6,-0.6,-0.6,0.6,0.6,left,L,,,,,0,1,1,1,0,51,51,19,,,,,,,,,,,,,,,,,,,,,,,,,,,,,,,,,,,,,,,,,,,,337.84803490000195,None,left,1,1.5635604999843054,338.3485892000026,339.96818450000137,338.3485892000026,339.4672867000045,338.3485892000026,339.4672867000045,338.3485892000026,339.4672867000045,338.3485892000026,339.4672867000045,338.3485892000026,339.4672867000045,339.4505499000079,339.95186149998335,339.4505499000079,339.95186149998335,339.4505499000079,339.95186149998335,339.4505499000079,339.95186149998335,339.4505499000079,339.95186149998335,339.4505499000079,339.95186149998335,339.4505499000079,339.95186149998335,339.4505499000079,339.95186149998335,338.3485892000026,None,339.93492919998243,341.236748299998,1.1100000000000008,341.253068799997,None,342.00463760001,None,,,,,,,[1.29153846],2.610000000000002,0.7307692307692307,12003,001,2024_Jun_09_1410,MFTM_A_new1021,2021.2.3,59.97314401710471,
,,,,,,,,stim/Instruction_adaptive.png,conditions/adaptive.xlsx,test,0.6,0.6,0.6,-0.6,-0.6,right,R,,,,,0,1,1,1,0,52,52,68,,,,,,,,,,,,,,,,,,,,,,,,,,,,,,,,,,,,,,,,,,,,342.50561269998434,None,right,1,1.0983742999960668,343.0056552999886,344.59128600000986,343.0056552999886,344.09104830000433,343.0056552999886,344.09104830000433,343.0056552999886,344.09104830000433,343.0056552999886,344.09104830000433,343.0056552999886,344.09104830000433,344.0744646000094,344.5748120000062,344.0744646000094,344.5748120000062,344.0744646000094,344.5748120000062,344.0744646000094,344.5748120000062,344.0744646000094,344.5748120000062,344.0744646000094,344.5748120000062,344.0744646000094,344.5748120000062,344.0744646000094,344.5748120000062,343.0056552999886,None,344.5748120000062,None,1.0800000000000007,345.8760745000036,None,346.62775869999314,None,,,,,,,[1.29396226],2.650000000000002,0.7358490566037735,12003,001,2024_Jun_09_1410,MFTM_A_new1021,2021.2.3,59.97314401710471,
,,,,,,,,stim/Instruction_adaptive.png,conditions/adaptive.xlsx,test,0.6,0.6,0.6,-0.6,-0.6,right,R,,,,,0,1,1,1,0,53,53,44,,,,,,,,,,,,,,,,,,,,,,,,,,,,,,,,,,,,,,,,,,,,347.1292865999858,None,right,1,1.5465891000058036,347.6302344999858,349.18170230000396,347.6302344999858,348.68115769998985,347.6302344999858,348.68115769998985,347.6302344999858,348.68115769998985,347.6302344999858,348.68115769998985,347.6302344999858,348.68115769998985,348.66423160000704,349.1649209999887,348.66423160000704,349.1649209999887,348.66423160000704,349.1649209999887,348.66423160000704,349.1649209999887,348.66423160000704,349.1649209999887,348.66423160000704,349.1649209999887,348.66423160000704,349.1649209999887,348.66423160000704,349.1649209999887,347.6302344999858,None,349.1649209999887,350.46767359998194,1.0500000000000007,350.483574199985,None,351.23514380000415,None,,,,,,,[1.29685185],2.680000000000002,0.7407407407407407,12003,001,2024_Jun_09_1410,MFTM_A_new1021,2021.2.3,59.97314401710471,
,,,,,,,,stim/Instruction_adaptive.png,conditions/adaptive.xlsx,test,-0.6,-0.6,-0.6,0.6,0.6,left,L,,,,,0,1,1,1,0,54,54,69,,,,,,,,,,,,,,,,,,,,,,,,,,,,,,,,,,,,,,,,,,,,351.7355730999843,None,right,0,1.0121140999835916,352.2366758999997,353.77184209998813,352.2366758999997,353.2711696999904,352.2366758999997,353.2711696999904,352.2366758999997,353.2711696999904,352.2366758999997,353.2711696999904,352.2366758999997,353.2711696999904,353.25449369999114,353.7550699999847,353.25449369999114,353.7550699999847,353.25449369999114,353.7550699999847,353.25449369999114,353.7550699999847,353.25449369999114,353.7550699999847,353.25449369999114,353.7550699999847,353.25449369999114,353.7550699999847,353.25449369999114,353.7550699999847,352.2366758999997,None,353.7550699999847,355.057070299983,1.0300000000000007,355.07374079999863,None,355.82543329999316,None,,,,,,,[1.3],2.580000000000002,0.7272727272727273,12003,001,2024_Jun_09_1410,MFTM_A_new1021,2021.2.3,59.97314401710471,
,,,,,,,,stim/Instruction_adaptive.png,conditions/adaptive.xlsx,test,0.6,0.6,0.6,-0.6,-0.6,right,R,,,,,0,1,1,1,0,55,55,22,,,,,,,,,,,,,,,,,,,,,,,,,,,,,,,,,,,,,,,,,,,,356.32567759999074,None,left,0,1.366124399995897,356.8265937999822,358.4292912000092,356.8265937999822,357.9286637000041,356.8265937999822,357.9286637000041,356.8265937999822,357.9286637000041,356.8265937999822,357.9286637000041,356.8265937999822,357.9286637000041,357.91235169998254,358.4121158999915,357.91235169998254,358.4121158999915,357.91235169998254,358.4121158999915,357.91235169998254,358.4121158999915,357.91235169998254,358.4121158999915,357.91235169998254,358.4121158999915,357.91235169998254,358.4121158999915,357.91235169998254,358.4121158999915,356.8265937999822,None,358.4121158999915,359.71418099998846,1.1000000000000008,359.73099119999097,None,360.48203179999837,None,,,,,,,[1.30178571],2.4700000000000015,0.7142857142857143,12003,001,2024_Jun_09_1410,MFTM_A_new1021,2021.2.3,59.97314401710471,
,,,,,,,,stim/Instruction_adaptive.png,conditions/adaptive.xlsx,test,0.6,0.6,0.6,-0.6,-0.6,right,R,,,,,0,1,1,1,0,56,56,66,,,,,,,,,,,,,,,,,,,,,,,,,,,,,,,,,,,,,,,,,,,,360.9827292999835,None,right,1,1.2612124999868684,361.48358569998527,363.18678889999865,361.48358569998527,362.68602379999356,361.48358569998527,362.68602379999356,361.48358569998527,362.68602379999356,361.48358569998527,362.68602379999356,361.48358569998527,362.68602379999356,362.65207710000686,363.15305719999014,362.65207710000686,363.15305719999014,362.65207710000686,363.15305719999014,362.65207710000686,363.15305719999014,362.65207710000686,363.15305719999014,362.65207710000686,363.15305719999014,362.65207710000686,363.15305719999014,362.65207710000686,363.15305719999014,361.48358569998527,None,363.15305719999014,364.4569507999986,1.1900000000000008,364.48817579998286,None,365.23975119998795,None,,,,,,,[1.30192982],2.5100000000000016,0.7192982456140351,12003,001,2024_Jun_09_1410,MFTM_A_new1021,2021.2.3,59.97314401710471,
,,,,,,,,stim/Instruction_adaptive.png,conditions/adaptive.xlsx,test,0.6,0.6,0.6,-0.6,-0.6,right,R,,,,,0,1,1,1,0,57,57,34,,,,,,,,,,,,,,,,,,,,,,,,,,,,,,,,,,,,,,,,,,,,365.74079129999154,None,left,0,1.776140600006329,366.2406226999883,367.89337380000507,366.2406226999883,367.3924579999875,366.2406226999883,367.3924579999875,366.2406226999883,367.3924579999875,366.2406226999883,367.3924579999875,366.2406226999883,367.3924579999875,367.3756735000061,367.87673699998413,367.3756735000061,367.87673699998413,367.3756735000061,367.87673699998413,367.3756735000061,367.87673699998413,367.3756735000061,367.87673699998413,367.3756735000061,367.87673699998413,367.3756735000061,367.87673699998413,367.3756735000061,367.87673699998413,366.2406226999883,None,367.87673699998413,369.1784735999827,1.1500000000000008,369.19526499998756,None,369.9470336000086,None,,,,,,,[1.30275862],2.4000000000000017,0.7068965517241379,12003,001,2024_Jun_09_1410,MFTM_A_new1021,2021.2.3,59.97314401710471,
,,,,,,,,stim/Instruction_adaptive.png,conditions/adaptive.xlsx,test,0.6,0.6,0.6,-0.6,-0.6,right,R,,,,,0,1,1,1,0,58,58,8,,,,,,,,,,,,,,,,,,,,,,,,,,,,,,,,,,,,,,,,,,,,370.44691420000163,None,right,1,1.716914499993436,370.94837100000586,372.70125039998675,370.94837100000586,372.20012570000836,370.94837100000586,372.20012570000836,370.94837100000586,372.20012570000836,370.94837100000586,372.20012570000836,370.94837100000586,372.20012570000836,372.1830464999948,372.68368389998795,372.1830464999948,372.68368389998795,372.1830464999948,372.68368389998795,372.1830464999948,372.68368389998795,372.1830464999948,372.68368389998795,372.1830464999948,372.68368389998795,372.1830464999948,372.68368389998795,372.1830464999948,372.68368389998795,370.94837100000586,None,372.68368389998795,373.9356603999913,1.2500000000000009,373.9522613000008,None,374.70352999999886,None,,,,,,,[[1.25]],2.4400000000000017,0.711864406779661,12003,001,2024_Jun_09_1410,MFTM_A_new1021,2021.2.3,59.97314401710471,
,,,,,,,,stim/Instruction_adaptive.png,conditions/adaptive.xlsx,test,0.6,0.6,0.6,-0.6,-0.6,right,R,,,,,0,1,1,1,0,59,59,90,,,,,,,,,,,,,,,,,,,,,,,,,,,,,,,,,,,,,,,,,,,,375.2049415000074,None,right,1,1.9119789999967907,375.7050905000069,377.42519020001055,375.7050905000069,376.9235619000101,375.7050905000069,376.9235619000101,375.7050905000069,376.9235619000101,375.7050905000069,376.9235619000101,375.7050905000069,376.9235619000101,376.90694119999534,377.40739629999734,376.90694119999534,377.40739629999734,376.90694119999534,377.40739629999734,376.90694119999534,377.40739629999734,376.90694119999534,377.40739629999734,376.90694119999534,377.40739629999734,376.90694119999534,377.40739629999734,376.90694119999534,377.40739629999734,375.7050905000069,None,377.39102459998685,378.6927239999932,1.2100000000000009,378.7093590000004,None,379.46069360000547,None,,,,,,,[[1.29]],2.4800000000000018,0.7166666666666667,12003,001,2024_Jun_09_1410,MFTM_A_new1021,2021.2.3,59.97314401710471,
,,,,,,,,stim/Instruction_adaptive.png,conditions/adaptive.xlsx,test,-0.6,-0.6,-0.6,0.6,0.6,left,L,,,,,0,1,1,1,0,60,60,31,,,,,,,,,,,,,,,,,,,,,,,,,,,,,,,,,,,,,,,,,,,,379.9619068999891,None,right,0,1.8110729999898467,380.46226460000616,382.1479304000095,380.46226460000616,381.6475693999964,380.46226460000616,381.6475693999964,380.46226460000616,381.6475693999964,380.46226460000616,381.6475693999964,380.46226460000616,381.6475693999964,381.63070270000026,382.131484499987,381.63070270000026,382.131484499987,381.63070270000026,382.131484499987,381.63070270000026,382.131484499987,381.63070270000026,382.131484499987,381.63070270000026,382.131484499987,381.63070270000026,382.131484499987,381.63070270000026,382.131484499987,380.46226460000616,None,382.11475280000013,383.41641700000037,1.1800000000000008,383.4500965999905,None,384.20181080000475,None,,,,,,,[1.30196721],2.370000000000002,0.7049180327868853,12003,001,2024_Jun_09_1410,MFTM_A_new1021,2021.2.3,59.97314401710471,
,,,,,,,,stim/Instruction_adaptive.png,conditions/adaptive.xlsx,test,-0.6,-0.6,-0.6,0.6,0.6,left,L,,,,,0,1,1,1,0,61,61,7,,,,,,,,,,,,,,,,,,,,,,,,,,,,,,,,,,,,,,,,,,,,384.7026441000053,None,left,1,1.8864278999972157,385.20301979998476,386.9727542999899,385.20301979998476,386.4881275999942,385.20301979998476,386.4881275999942,385.20301979998476,386.4881275999942,385.20301979998476,386.4881275999942,385.20301979998476,386.4881275999942,386.4547117000038,386.95603010000195,386.4547117000038,386.95603010000195,386.4547117000038,386.95603010000195,386.4547117000038,386.95603010000195,386.4547117000038,386.95603010000195,386.4547117000038,386.95603010000195,386.4547117000038,386.95603010000195,386.4547117000038,386.95603010000195,385.20301979998476,None,386.95603010000195,388.19223149999743,1.270000000000001,388.20699330000207,None,388.9581322000013,None,,,,,,,[[1.23]],2.410000000000002,0.7096774193548387,12003,001,2024_Jun_09_1410,MFTM_A_new1021,2021.2.3,59.97314401710471,
,,,,,,,,stim/Instruction_adaptive.png,conditions/adaptive.xlsx,test,-0.6,-0.6,-0.6,0.6,0.6,left,L,,,,,0,1,1,1,0,62,62,75,,,,,,,,,,,,,,,,,,,,,,,,,,,,,,,,,,,,,,,,,,,,389.4591618999839,None,left,1,1.3456648999999743,389.9599664999987,391.71265139998286,389.9599664999987,391.2118330000085,389.9599664999987,391.2118330000085,389.9599664999987,391.2118330000085,389.9599664999987,391.2118330000085,389.9599664999987,391.2118330000085,391.178248399985,391.67941389998305,391.178248399985,391.67941389998305,391.178248399985,391.67941389998305,391.178248399985,391.67941389998305,391.178248399985,391.67941389998305,391.178248399985,391.67941389998305,391.178248399985,391.67941389998305,391.178248399985,391.67941389998305,389.9599664999987,None,391.67941389998305,392.9482999999891,1.2400000000000009,392.964461399999,None,393.7165213999979,None,,,,,,,[[1.26]],2.4400000000000017,0.7142857142857143,12003,001,2024_Jun_09_1410,MFTM_A_new1021,2021.2.3,59.97314401710471,
,,,,,,,,stim/Instruction_adaptive.png,conditions/adaptive.xlsx,test,-0.6,-0.6,-0.6,0.6,0.6,left,L,,,,,0,1,1,1,0,63,63,61,,,,,,,,,,,,,,,,,,,,,,,,,,,,,,,,,,,,,,,,,,,,394.21711369999684,None,left,1,1.4046595999971032,394.7170199000102,396.4363587999833,394.7170199000102,395.93576769999345,394.7170199000102,395.93576769999345,394.7170199000102,395.93576769999345,394.7170199000102,395.93576769999345,394.7170199000102,395.93576769999345,395.9188327000011,396.42021539999405,395.9188327000011,396.42021539999405,395.9188327000011,396.42021539999405,395.9188327000011,396.42021539999405,395.9188327000011,396.42021539999405,395.9188327000011,396.42021539999405,395.9188327000011,396.42021539999405,395.9188327000011,396.42021539999405,394.7170199000102,None,396.40307249999023,397.7048275999841,1.2100000000000009,397.721616099996,None,398.4730150999967,None,,,,,,,[[1.29]],2.4800000000000018,0.71875,12003,001,2024_Jun_09_1410,MFTM_A_new1021,2021.2.3,59.97314401710471,
,,,,,,,,stim/Instruction_adaptive.png,conditions/adaptive.xlsx,test,-0.6,-0.6,-0.6,0.6,0.6,left,L,,,,,0,1,1,1,0,64,64,27,,,,,,,,,,,,,,,,,,,,,,,,,,,,,,,,,,,,,,,,,,,,398.9736139999877,None,right,0,1.711784399987664,399.47420409999904,401.16004849999445,399.47420409999904,400.6594228000031,399.47420409999904,400.6594228000031,399.47420409999904,400.6594228000031,399.47420409999904,400.6594228000031,399.47420409999904,400.6594228000031,400.64269179999246,401.143633700005,400.64269179999246,401.143633700005,400.64269179999246,401.143633700005,400.64269179999246,401.143633700005,400.64269179999246,401.143633700005,400.64269179999246,401.143633700005,400.64269179999246,401.143633700005,400.64269179999246,401.143633700005,399.47420409999904,None,401.143633700005,402.44680390000576,1.1800000000000008,402.46198749999166,None,403.2130943000084,None,,,,,,,[1.30030769],2.3800000000000017,0.7076923076923077,12003,001,2024_Jun_09_1410,MFTM_A_new1021,2021.2.3,59.97314401710471,
,,,,,,,,stim/Instruction_adaptive.png,conditions/adaptive.xlsx,test,-0.6,-0.6,-0.6,0.6,0.6,left,L,,,,,0,1,1,1,0,65,65,35,,,,,,,,,,,,,,,,,,,,,,,,,,,,,,,,,,,,,,,,,,,,403.71397819998674,None,left,1,0.971576100011589,404.2145521999919,405.98534590000054,404.2145521999919,405.48305049998453,404.2145521999919,405.48305049998453,404.2145521999919,405.48305049998453,404.2145521999919,405.48305049998453,404.2145521999919,405.48305049998453,405.46639129999676,405.96802080000634,405.46639129999676,405.96802080000634,405.46639129999676,405.96802080000634,405.46639129999676,405.96802080000634,405.46639129999676,405.96802080000634,405.46639129999676,405.96802080000634,405.46639129999676,405.96802080000634,405.46639129999676,405.96802080000634,404.2145521999919,None,405.96802080000634,None,1.260000000000001,407.21965310000814,None,407.9716298999847,None,,,,,,,[[1.24]],2.410000000000002,0.7121212121212122,12003,001,2024_Jun_09_1410,MFTM_A_new1021,2021.2.3,59.97314401710471,
,,,,,,,,stim/Instruction_adaptive.png,conditions/adaptive.xlsx,test,-0.6,-0.6,-0.6,0.6,0.6,left,L,,,,,0,1,1,1,0,66,66,71,,,,,,,,,,,,,,,,,,,,,,,,,,,,,,,,,,,,,,,,,,,,408.47137179999845,None,left,1,2.4622605000040494,408.971910799999,410.7244923999824,408.971910799999,410.2241750000103,408.971910799999,410.2241750000103,408.971910799999,410.2241750000103,408.971910799999,410.2241750000103,408.971910799999,410.2241750000103,410.19092980001005,410.69225269998424,410.19092980001005,410.69225269998424,410.19092980001005,410.69225269998424,410.19092980001005,410.69225269998424,410.19092980001005,410.69225269998424,410.19092980001005,410.69225269998424,410.19092980001005,410.69225269998424,410.19092980001005,410.69225269998424,408.971910799999,None,410.69225269998424,411.9595354000048,1.2400000000000009,411.9763321999926,None,412.7277594000043,None,,,,,,,[[1.26]],2.450000000000002,0.7164179104477612,12003,001,2024_Jun_09_1410,MFTM_A_new1021,2021.2.3,59.97314401710471,
,,,,,,,,stim/Instruction_adaptive.png,conditions/adaptive.xlsx,test,0.6,0.6,0.6,-0.6,-0.6,right,R,,,,,0,1,1,1,0,67,67,64,,,,,,,,,,,,,,,,,,,,,,,,,,,,,,,,,,,,,,,,,,,,413.2287161999848,None,right,1,2.4487653999822214,413.72971809998853,415.4315309000085,413.72971809998853,414.93086769999354,413.72971809998853,414.93086769999354,413.72971809998853,414.93086769999354,413.72971809998853,414.93086769999354,413.72971809998853,414.93086769999354,414.9140975000046,415.4148601999914,414.9140975000046,415.4148601999914,414.9140975000046,415.4148601999914,414.9140975000046,415.4148601999914,414.9140975000046,415.4148601999914,414.9140975000046,415.4148601999914,414.9140975000046,415.4148601999914,414.9140975000046,415.4148601999914,413.72971809998853,None,415.4148601999914,416.716857899999,1.2000000000000008,416.73346799999126,None,417.48461990000214,None,,,,,,,[1.29882353],2.4800000000000018,0.7205882352941176,12003,001,2024_Jun_09_1410,MFTM_A_new1021,2021.2.3,59.97314401710471,
,,,,,,,,stim/Instruction_adaptive.png,conditions/adaptive.xlsx,test,0.6,0.6,0.6,-0.6,-0.6,right,R,,,,,0,1,1,1,0,68,68,62,,,,,,,,,,,,,,,,,,,,,,,,,,,,,,,,,,,,,,,,,,,,417.9857367000077,None,right,1,1.7959519000141881,418.48623119998956,420.1728989999974,418.48623119998956,419.67127019999316,418.48623119998956,419.67127019999316,418.48623119998956,419.67127019999316,418.48623119998956,419.67127019999316,418.48623119998956,419.67127019999316,419.6546124999877,420.15521679999074,419.6546124999877,420.15521679999074,419.6546124999877,420.15521679999074,419.6546124999877,420.15521679999074,419.6546124999877,420.15521679999074,419.6546124999877,420.15521679999074,419.6546124999877,420.15521679999074,419.6546124999877,420.15521679999074,418.48623119998956,None,420.15521679999074,421.45732859999407,1.1800000000000008,421.4740848999936,None,422.22538459999487,None,,,,,,,[1.29913043],2.5100000000000016,0.7246376811594203,12003,001,2024_Jun_09_1410,MFTM_A_new1021,2021.2.3,59.97314401710471,
,,,,,,,,stim/Instruction_adaptive.png,conditions/adaptive.xlsx,test,-0.6,-0.6,-0.6,0.6,0.6,left,L,,,,,0,1,1,1,0,69,69,65,,,,,,,,,,,,,,,,,,,,,,,,,,,,,,,,,,,,,,,,,,,,422.7258693999902,None,left,1,1.7840982000052463,423.22670699999435,424.88052599999355,423.22670699999435,424.37821629998507,423.22670699999435,424.37821629998507,423.22670699999435,424.37821629998507,423.22670699999435,424.37821629998507,423.22670699999435,424.37821629998507,424.3618382999848,424.86248139999225,424.3618382999848,424.86248139999225,424.3618382999848,424.86248139999225,424.3618382999848,424.86248139999225,424.3618382999848,424.86248139999225,424.3618382999848,424.86248139999225,424.3618382999848,424.86248139999225,424.3618382999848,424.86248139999225,423.22670699999435,None,424.86248139999225,426.16458079998847,1.1500000000000008,426.1811958999897,None,426.9322081999853,None,,,,,,,[1.29985714],2.540000000000002,0.7285714285714285,12003,001,2024_Jun_09_1410,MFTM_A_new1021,2021.2.3,59.97314401710471,
,,,,,,,,stim/Instruction_adaptive.png,conditions/adaptive.xlsx,test,-0.6,-0.6,-0.6,0.6,0.6,left,L,,,,,0,1,1,1,0,70,70,91,,,,,,,,,,,,,,,,,,,,,,,,,,,,,,,,,,,,,,,,,,,,427.43409920000704,None,right,0,2.1409433000080753,427.9338361999835,429.5694719000021,427.9338361999835,429.06886759999907,427.9338361999835,429.06886759999907,427.9338361999835,429.06886759999907,427.9338361999835,429.06886759999907,427.9338361999835,429.06886759999907,429.05261439998867,429.55302789999405,429.05261439998867,429.55302789999405,429.05261439998867,429.55302789999405,429.05261439998867,429.55302789999405,429.05261439998867,429.55302789999405,429.05261439998867,429.55302789999405,429.05261439998867,429.55302789999405,429.05261439998867,429.55302789999405,427.9338361999835,None,429.55302789999405,430.85490939999,1.1300000000000008,430.87155079998774,None,431.62261729998863,None,,,,,,,[1.30084507],2.450000000000002,0.7183098591549296,12003,001,2024_Jun_09_1410,MFTM_A_new1021,2021.2.3,59.97314401710471,
,,,,,,,,stim/Instruction_adaptive.png,conditions/adaptive.xlsx,test,-0.6,-0.6,-0.6,0.6,0.6,left,L,,,,,0,1,1,1,0,71,71,5,,,,,,,,,,,,,,,,,,,,,,,,,,,,,,,,,,,,,,,,,,,,432.1241130999988,None,left,1,2.1545925000100397,432.62406149998424,434.32731009999407,432.62406149998424,433.8266636999906,432.62406149998424,433.8266636999906,432.62406149998424,433.8266636999906,432.62406149998424,433.8266636999906,432.62406149998424,433.8266636999906,433.80951910000294,434.3103667999967,433.80951910000294,434.3103667999967,433.80951910000294,434.3103667999967,433.80951910000294,434.3103667999967,433.80951910000294,434.3103667999967,433.80951910000294,434.3103667999967,433.80951910000294,434.3103667999967,433.80951910000294,434.3103667999967,432.62406149998424,None,434.3103667999967,435.6127223999938,1.2000000000000008,435.6281067999953,None,436.3799197000044,None,,,,,,,[[1.3]],2.4800000000000018,0.7222222222222222,12003,001,2024_Jun_09_1410,MFTM_A_new1021,2021.2.3,59.97314401710471,
,,,,,,,,stim/Instruction_adaptive.png,conditions/adaptive.xlsx,test,-0.6,-0.6,-0.6,0.6,0.6,left,L,,,,,0,1,1,1,0,72,72,59,,,,,,,,,,,,,,,,,,,,,,,,,,,,,,,,,,,,,,,,,,,,436.8811473000096,None,left,1,1.749672100006137,437.3813829999999,439.0681193000055,437.3813829999999,438.5664075000095,437.3813829999999,438.5664075000095,437.3813829999999,438.5664075000095,437.3813829999999,438.5664075000095,437.3813829999999,438.5664075000095,438.54963339999085,439.0513367000094,438.54963339999085,439.0513367000094,438.54963339999085,439.0513367000094,438.54963339999085,439.0513367000094,438.54963339999085,439.0513367000094,438.54963339999085,439.0513367000094,438.54963339999085,439.0513367000094,438.54963339999085,439.0513367000094,437.3813829999999,None,439.0513367000094,440.3523680999933,1.1800000000000008,440.36918010000954,None,441.12022579999757,None,,,,,,,[1.30109589],2.5100000000000016,0.726027397260274,12003,001,2024_Jun_09_1410,MFTM_A_new1021,2021.2.3,59.97314401710471,
,,,,,,,,stim/Instruction_adaptive.png,conditions/adaptive.xlsx,test,0.6,0.6,0.6,-0.6,-0.6,right,R,,,,,0,1,1,1,0,73,73,70,,,,,,,,,,,,,,,,,,,,,,,,,,,,,,,,,,,,,,,,,,,,441.62100049998844,None,left,0,2.1923831999883987,442.1226008000085,443.7744352000009,442.1226008000085,443.273517499998,442.1226008000085,443.273517499998,442.1226008000085,443.273517499998,442.1226008000085,443.273517499998,442.1226008000085,443.273517499998,443.25721290000365,443.7576533999818,443.25721290000365,443.7576533999818,443.25721290000365,443.7576533999818,443.25721290000365,443.7576533999818,443.25721290000365,443.7576533999818,443.25721290000365,443.7576533999818,443.25721290000365,443.7576533999818,443.25721290000365,443.7576533999818,442.1226008000085,None,443.7576533999818,445.05991489998996,1.1500000000000008,445.07626149998396,None,445.82729620000464,None,,,,,,,[1.30175676],2.4300000000000015,0.7162162162162162,12003,001,2024_Jun_09_1410,MFTM_A_new1021,2021.2.3,59.97314401710471,
,,,,,,,,stim/Instruction_adaptive.png,conditions/adaptive.xlsx,test,-0.6,-0.6,-0.6,0.6,0.6,left,L,,,,,0,1,1,1,0,74,74,47,,,,,,,,,,,,,,,,,,,,,,,,,,,,,,,,,,,,,,,,,,,,446.3287386999873,None,left,1,1.622016999986954,446.8289598999836,448.54857939999783,446.8289598999836,448.0641245000006,446.8289598999836,448.0641245000006,446.8289598999836,448.0641245000006,446.8289598999836,448.0641245000006,446.8289598999836,448.0641245000006,448.0307426000072,448.53217769999173,448.0307426000072,448.53217769999173,448.0307426000072,448.53217769999173,448.0307426000072,448.53217769999173,448.0307426000072,448.53217769999173,448.0307426000072,448.53217769999173,448.0307426000072,448.53217769999173,448.0307426000072,448.53217769999173,446.8289598999836,None,448.53217769999173,449.8168430000078,1.2200000000000009,449.8335894999909,None,450.58487809999497,None,,,,,,,[[1.28]],2.450000000000002,0.72,12003,001,2024_Jun_09_1410,MFTM_A_new1021,2021.2.3,59.97314401710471,
,,,,,,,,stim/Instruction_adaptive.png,conditions/adaptive.xlsx,test,-0.6,-0.6,-0.6,0.6,0.6,left,L,,,,,0,1,1,1,0,75,75,21,,,,,,,,,,,,,,,,,,,,,,,,,,,,,,,,,,,,,,,,,,,,451.08632750000106,None,left,1,1.9132160999870393,451.5860756000038,453.28874389998964,451.5860756000038,452.7877829000063,451.5860756000038,452.7877829000063,451.5860756000038,452.7877829000063,451.5860756000038,452.7877829000063,451.5860756000038,452.7877829000063,452.7721157000051,453.27204340000753,452.7721157000051,453.27204340000753,452.7721157000051,453.27204340000753,452.7721157000051,453.27204340000753,452.7721157000051,453.27204340000753,452.7721157000051,453.27204340000753,452.7721157000051,453.27204340000753,452.7721157000051,453.27204340000753,451.5860756000038,None,453.27204340000753,454.5740205000038,1.2000000000000008,454.590563500009,None,455.3421607000055,None,,,,,,,[[1.3]],2.4800000000000018,0.7236842105263158,12003,001,2024_Jun_09_1410,MFTM_A_new1021,2021.2.3,59.97314401710471,
,,,,,,,,stim/Instruction_adaptive.png,conditions/adaptive.xlsx,test,-0.6,-0.6,-0.6,0.6,0.6,left,L,,,,,0,1,1,1,0,76,76,89,,,,,,,,,,,,,,,,,,,,,,,,,,,,,,,,,,,,,,,,,,,,455.8431920000003,None,left,1,1.9081466999778058,456.3433039000083,458.03002949999063,456.3433039000083,457.5284037000092,456.3433039000083,457.5284037000092,456.3433039000083,457.5284037000092,456.3433039000083,457.5284037000092,456.3433039000083,457.5284037000092,457.5118446999986,458.0125613999844,457.5118446999986,458.0125613999844,457.5118446999986,458.0125613999844,457.5118446999986,458.0125613999844,457.5118446999986,458.0125613999844,457.5118446999986,458.0125613999844,457.5118446999986,458.0125613999844,457.5118446999986,458.0125613999844,456.3433039000083,None,458.0125613999844,459.3143368999881,1.1800000000000008,459.3312806999893,None,460.08266660000663,None,,,,,,,[1.30168831],2.5100000000000016,0.7272727272727273,12003,001,2024_Jun_09_1410,MFTM_A_new1021,2021.2.3,59.97314401710471,
,,,,,,,,stim/Instruction_adaptive.png,conditions/adaptive.xlsx,test,0.6,0.6,0.6,-0.6,-0.6,right,R,,,,,0,1,1,1,0,77,77,0,,,,,,,,,,,,,,,,,,,,,,,,,,,,,,,,,,,,,,,,,,,,460.5835076000076,None,right,1,1.7278578999976162,461.0837269999902,462.73614120000275,461.0837269999902,462.23552650000784,461.0837269999902,462.23552650000784,461.0837269999902,462.23552650000784,461.0837269999902,462.23552650000784,461.0837269999902,462.23552650000784,462.2198548000015,462.72003140000743,462.2198548000015,462.72003140000743,462.2198548000015,462.72003140000743,462.2198548000015,462.72003140000743,462.2198548000015,462.72003140000743,462.2198548000015,462.72003140000743,462.2198548000015,462.72003140000743,462.2198548000015,462.72003140000743,461.0837269999902,None,462.72003140000743,464.0216347000096,1.1500000000000008,464.03823320000083,None,464.7896056000027,None,,,,,,,[1.30230769],2.540000000000002,0.7307692307692307,12003,001,2024_Jun_09_1410,MFTM_A_new1021,2021.2.3,59.97314401710471,
,,,,,,,,stim/Instruction_adaptive.png,conditions/adaptive.xlsx,test,-0.6,-0.6,-0.6,0.6,0.6,left,L,,,,,0,1,1,1,0,78,78,57,,,,,,,,,,,,,,,,,,,,,,,,,,,,,,,,,,,,,,,,,,,,465.29002459999174,None,left,1,1.7486677000124473,465.7909332999843,467.4292260000075,465.7909332999843,466.9258864999865,465.7909332999843,466.9258864999865,465.7909332999843,466.9258864999865,465.7909332999843,466.9258864999865,465.7909332999843,466.9258864999865,466.90936419999343,467.40990259998944,466.90936419999343,467.40990259998944,466.90936419999343,467.40990259998944,466.90936419999343,467.40990259998944,466.90936419999343,467.40990259998944,466.90936419999343,467.40990259998944,466.90936419999343,467.40990259998944,466.90936419999343,467.40990259998944,465.7909332999843,None,467.40990259998944,None,1.1300000000000008,468.72865340000135,None,469.47979879999184,None,,,,,,,[1.30316456],2.560000000000002,0.7341772151898734,12003,001,2024_Jun_09_1410,MFTM_A_new1021,2021.2.3,59.97314401710471,
,,,,,,,,stim/Instruction_adaptive.png,conditions/adaptive.xlsx,test,-0.6,-0.6,-0.6,0.6,0.6,left,L,,,,,0,1,1,1,0,79,79,41,,,,,,,,,,,,,,,,,,,,,,,,,,,,,,,,,,,,,,,,,,,,469.98049190000165,None,left,1,2.0108962999947835,470.48122329998296,472.10054919999675,470.48122329998296,471.6177031999978,470.48122329998296,471.6177031999978,470.48122329998296,471.6177031999978,470.48122329998296,471.6177031999978,470.48122329998296,471.6177031999978,471.58291850000387,472.08353850001004,471.58291850000387,472.08353850001004,471.58291850000387,472.08353850001004,471.58291850000387,472.08353850001004,471.58291850000387,472.08353850001004,471.58291850000387,472.08353850001004,471.58291850000387,472.08353850001004,471.58291850000387,472.08353850001004,470.48122329998296,None,472.08353850001004,473.4025333999889,1.1200000000000008,473.41898519999813,None,474.1710208999866,None,,,,,,,[1.304125],2.5900000000000016,0.7375,12003,001,2024_Jun_09_1410,MFTM_A_new1021,2021.2.3,59.97314401710471,
,,,,,,,,stim/Instruction_adaptive.png,conditions/adaptive.xlsx,test,-0.6,-0.6,-0.6,0.6,0.6,left,L,,,,,0,1,1,1,0,80,80,95,,,,,,,,,,,,,,,,,,,,,,,,,,,,,,,,,,,,,,,,,,,,474.671039799985,None,right,0,1.60071450000396,475.1716891999822,476.7741556999972,475.1716891999822,476.273523699987,475.1716891999822,476.273523699987,475.1716891999822,476.273523699987,475.1716891999822,476.273523699987,475.1716891999822,476.273523699987,476.24001330000465,476.74068620000617,476.24001330000465,476.74068620000617,476.24001330000465,476.74068620000617,476.24001330000465,476.74068620000617,476.24001330000465,476.74068620000617,476.24001330000465,476.74068620000617,476.24001330000465,476.74068620000617,476.24001330000465,476.74068620000617,475.1716891999822,None,476.74068620000617,478.05937860000995,1.0900000000000007,478.07639860000927,None,478.8271209000086,None,,,,,,,[1.3054321],2.5100000000000016,0.7283950617283951,12003,001,2024_Jun_09_1410,MFTM_A_new1021,2021.2.3,59.97314401710471,
,,,,,,,,stim/Instruction_adaptive.png,conditions/adaptive.xlsx,test,0.6,0.6,0.6,-0.6,-0.6,right,R,,,,,0,1,1,1,0,81,81,96,,,,,,,,,,,,,,,,,,,,,,,,,,,,,,,,,,,,,,,,,,,,479.32828109999537,None,left,0,2.039115599996876,479.8287609999825,481.48156559999916,479.8287609999825,480.98041019999073,479.8287609999825,480.98041019999073,479.8287609999825,480.98041019999073,479.8287609999825,480.98041019999073,479.8287609999825,480.98041019999073,480.9638796999934,481.4651847000059,480.9638796999934,481.4651847000059,480.9638796999934,481.4651847000059,480.9638796999934,481.4651847000059,480.9638796999934,481.4651847000059,480.9638796999934,481.4651847000059,480.9638796999934,481.4651847000059,480.9638796999934,481.4651847000059,479.8287609999825,None,481.4651847000059,482.7831240000087,1.1500000000000008,482.799852199998,None,483.5509281999839,None,,,,,,,[1.30597561],2.4400000000000017,0.7195121951219512,12003,001,2024_Jun_09_1410,MFTM_A_new1021,2021.2.3,59.97314401710471,
,,,,,,,,stim/Instruction_adaptive.png,conditions/adaptive.xlsx,test,0.6,0.6,0.6,-0.6,-0.6,right,R,,,,,0,1,1,1,0,82,82,48,,,,,,,,,,,,,,,,,,,,,,,,,,,,,,,,,,,,,,,,,,,,484.0517672999995,None,right,1,1.6595877999789082,484.55253869999433,486.2717801000108,484.55253869999433,485.7715705999872,484.55253869999433,485.7715705999872,484.55253869999433,485.7715705999872,484.55253869999433,485.7715705999872,484.55253869999433,485.7715705999872,485.7376629000064,486.2383078999992,485.7376629000064,486.2383078999992,485.7376629000064,486.2383078999992,485.7376629000064,486.2383078999992,485.7376629000064,486.2383078999992,485.7376629000064,486.2383078999992,485.7376629000064,486.2383078999992,485.7376629000064,486.2383078999992,484.55253869999433,None,486.2383078999992,487.540188199986,1.2100000000000009,487.5569886000012,None,488.3091880999855,None,,,,,,,[[1.29]],2.4600000000000017,0.7228915662650602,12003,001,2024_Jun_09_1410,MFTM_A_new1021,2021.2.3,59.97314401710471,
,,,,,,,,stim/Instruction_adaptive.png,conditions/adaptive.xlsx,test,-0.6,-0.6,-0.6,0.6,0.6,left,L,,,,,0,1,1,1,0,83,83,67,,,,,,,,,,,,,,,,,,,,,,,,,,,,,,,,,,,,,,,,,,,,488.8088035999972,None,left,1,1.7032527000119444,489.30961900000693,491.0124310000101,489.30961900000693,490.5119306999841,489.30961900000693,490.5119306999841,489.30961900000693,490.5119306999841,489.30961900000693,490.5119306999841,489.30961900000693,490.5119306999841,490.4947312999866,490.9964414999995,490.4947312999866,490.9964414999995,490.4947312999866,490.9964414999995,490.4947312999866,490.9964414999995,490.4947312999866,490.9964414999995,490.4947312999866,490.9964414999995,490.4947312999866,490.9964414999995,490.4947312999866,490.9964414999995,489.30961900000693,None,490.9964414999995,492.29773849999765,1.2000000000000008,492.31433090000064,None,493.06531659999746,None,,,,,,,[[1.3]],2.490000000000002,0.7261904761904762,12003,001,2024_Jun_09_1410,MFTM_A_new1021,2021.2.3,59.97314401710471,
,,,,,,,,stim/Instruction_adaptive.png,conditions/adaptive.xlsx,test,-0.6,-0.6,-0.6,0.6,0.6,left,L,,,,,0,1,1,1,0,84,84,77,,,,,,,,,,,,,,,,,,,,,,,,,,,,,,,,,,,,,,,,,,,,493.56604489998426,None,left,1,1.6259311999892816,494.0666064999823,495.73596530000214,494.0666064999823,495.2520161999855,494.0666064999823,495.2520161999855,494.0666064999823,495.2520161999855,494.0666064999823,495.2520161999855,494.0666064999823,495.2520161999855,495.2186342999921,495.7191585999972,495.2186342999921,495.7191585999972,495.2186342999921,495.7191585999972,495.2186342999921,495.7191585999972,495.2186342999921,495.7191585999972,495.2186342999921,495.7191585999972,495.2186342999921,495.7191585999972,495.2186342999921,495.7191585999972,494.0666064999823,None,495.7191585999972,497.0378405000083,1.1700000000000008,497.0546040000045,None,497.8061037999869,None,,,,,,,[1.306],2.5100000000000016,0.7294117647058823,12003,001,2024_Jun_09_1410,MFTM_A_new1021,2021.2.3,59.97314401710471,
,,,,,,,,stim/Instruction_adaptive.png,conditions/adaptive.xlsx,test,-0.6,-0.6,-0.6,0.6,0.6,left,L,,,,,0,1,1,1,0,85,85,17,,,,,,,,,,,,,,,,,,,,,,,,,,,,,,,,,,,,,,,,,,,,498.3066552999953,None,left,1,2.2854769000259694,498.8076609999989,500.4598883999861,498.8076609999989,499.9591018999927,498.8076609999989,499.9591018999927,498.8076609999989,499.9591018999927,498.8076609999989,499.9591018999927,498.8076609999989,499.9591018999927,499.94229539998923,500.44303920000675,499.94229539998923,500.44303920000675,499.94229539998923,500.44303920000675,499.94229539998923,500.44303920000675,499.94229539998923,500.44303920000675,499.94229539998923,500.44303920000675,499.94229539998923,500.44303920000675,499.94229539998923,500.44303920000675,498.8076609999989,None,500.44303920000675,501.7618363999936,1.1500000000000008,501.7783832999994,None,502.5297176000022,None,,,,,,,[1.30651163],2.540000000000002,0.7325581395348837,12003,001,2024_Jun_09_1410,MFTM_A_new1021,2021.2.3,59.97314401710471,
,,,,,,,,stim/Instruction_adaptive.png,conditions/adaptive.xlsx,test,-0.6,-0.6,-0.6,0.6,0.6,left,L,,,,,0,1,1,1,0,86,86,85,,,,,,,,,,,,,,,,,,,,,,,,,,,,,,,,,,,,,,,,,,,,503.0307373999967,None,left,1,1.426222299982328,503.5311531999905,505.1668806000089,503.5311531999905,504.66642890000367,503.5311531999905,504.66642890000367,503.5311531999905,504.66642890000367,503.5311531999905,504.66642890000367,503.5311531999905,504.66642890000367,504.64999979999266,505.15044850000413,504.64999979999266,505.15044850000413,504.64999979999266,505.15044850000413,504.64999979999266,505.15044850000413,504.64999979999266,505.15044850000413,504.64999979999266,505.15044850000413,504.64999979999266,505.15044850000413,504.64999979999266,505.15044850000413,503.5311531999905,None,505.15044850000413,None,1.1300000000000008,506.46891049999977,None,507.2201199999836,None,,,,,,,[1.30724138],2.560000000000002,0.735632183908046,12003,001,2024_Jun_09_1410,MFTM_A_new1021,2021.2.3,59.97314401710471,
,,,,,,,,stim/Instruction_adaptive.png,conditions/adaptive.xlsx,test,-0.6,-0.6,-0.6,0.6,0.6,left,L,,,,,0,1,1,1,0,87,87,39,,,,,,,,,,,,,,,,,,,,,,,,,,,,,,,,,,,,,,,,,,,,507.721126199991,None,left,1,1.895485799992457,508.2214766999823,509.8404547999962,508.2214766999823,509.3564883999934,508.2214766999823,509.3564883999934,508.2214766999823,509.3564883999934,508.2214766999823,509.3564883999934,508.2214766999823,509.3564883999934,509.32316249998985,509.82448949999525,509.32316249998985,509.82448949999525,509.32316249998985,509.82448949999525,509.32316249998985,509.82448949999525,509.32316249998985,509.82448949999525,509.32316249998985,509.82448949999525,509.32316249998985,509.82448949999525,509.32316249998985,509.82448949999525,508.2214766999823,None,509.82448949999525,511.14260649998323,1.1200000000000008,511.15909329999704,None,511.9105918999994,None,,,,,,,[1.30806818],2.580000000000002,0.7386363636363636,12003,001,2024_Jun_09_1410,MFTM_A_new1021,2021.2.3,59.97314401710471,
,,,,,,,,stim/Instruction_adaptive.png,conditions/adaptive.xlsx,test,0.6,0.6,0.6,-0.6,-0.6,right,R,,,,,0,1,1,1,0,88,88,24,,,,,,,,,,,,,,,,,,,,,,,,,,,,,,,,,,,,,,,,,,,,512.4116119999962,None,right,1,1.765044499974465,512.911927899986,514.5142985999992,512.911927899986,514.013721299998,512.911927899986,514.013721299998,512.911927899986,514.013721299998,512.911927899986,514.013721299998,512.911927899986,514.013721299998,513.996996700007,514.497693399986,513.996996700007,514.497693399986,513.996996700007,514.497693399986,513.996996700007,514.497693399986,513.996996700007,514.497693399986,513.996996700007,514.497693399986,513.996996700007,514.497693399986,513.996996700007,514.497693399986,512.911927899986,None,514.497693399986,515.816943599988,1.1000000000000008,515.8331126999983,None,516.5841850999859,None,,,,,,,[1.30910112],2.610000000000002,0.7415730337078652,12003,001,2024_Jun_09_1410,MFTM_A_new1021,2021.2.3,59.97314401710471,
,,,,,,,,stim/Instruction_adaptive.png,conditions/adaptive.xlsx,test,-0.6,-0.6,-0.6,0.6,0.6,left,L,,,,,0,1,1,1,0,89,89,83,,,,,,,,,,,,,,,,,,,,,,,,,,,,,,,,,,,,,,,,,,,,517.0851024999865,None,left,1,2.1230925999989267,517.5857964000024,519.1714330999821,517.5857964000024,518.6706810999895,517.5857964000024,518.6706810999895,517.5857964000024,518.6706810999895,517.5857964000024,518.6706810999895,517.5857964000024,518.6706810999895,518.6541530999821,519.1546743999934,518.6541530999821,519.1546743999934,518.6541530999821,519.1546743999934,518.6541530999821,519.1546743999934,518.6541530999821,519.1546743999934,518.6541530999821,519.1546743999934,518.6541530999821,519.1546743999934,518.6541530999821,519.1546743999934,517.5857964000024,None,519.1546743999934,520.4738771999837,1.0800000000000007,520.4906028999831,None,521.2414953999978,None,,,,,,,[1.31033333],2.6300000000000017,0.7444444444444445,12003,001,2024_Jun_09_1410,MFTM_A_new1021,2021.2.3,59.97314401710471,
,,,,,,,,stim/Instruction_adaptive.png,conditions/adaptive.xlsx,test,-0.6,-0.6,-0.6,0.6,0.6,left,L,,,,,0,1,1,1,0,90,90,49,,,,,,,,,,,,,,,,,,,,,,,,,,,,,,,,,,,,,,,,,,,,521.741955799982,None,left,1,1.5540731999790296,522.2430543999944,523.8120052999875,522.2430543999944,523.3111496999918,522.2430543999944,523.3111496999918,522.2430543999944,523.3111496999918,522.2430543999944,523.3111496999918,522.2430543999944,523.3111496999918,523.2943693999841,523.7957549999992,523.2943693999841,523.7957549999992,523.2943693999841,523.7957549999992,523.2943693999841,523.7957549999992,523.2943693999841,523.7957549999992,523.2943693999841,523.7957549999992,523.2943693999841,523.7957549999992,523.2943693999841,523.7957549999992,522.2430543999944,None,523.7782290999894,525.0971931999957,1.0600000000000007,525.1136048999906,None,525.8649885999912,None,,,,,,,[1.31175824],2.650000000000002,0.7472527472527473,12003,001,2024_Jun_09_1410,MFTM_A_new1021,2021.2.3,59.97314401710471,
,,,,,,,,stim/Instruction_adaptive.png,conditions/adaptive.xlsx,test,-0.6,-0.6,-0.6,0.6,0.6,left,L,,,,,0,1,1,1,0,91,91,23,,,,,,,,,,,,,,,,,,,,,,,,,,,,,,,,,,,,,,,,,,,,526.3662626000005,None,left,1,1.537089699995704,526.868041299982,528.418609299988,526.868041299982,527.9178388,526.868041299982,527.9178388,526.868041299982,527.9178388,526.868041299982,527.9178388,526.868041299982,527.9178388,527.9012567999889,528.401921599987,527.9012567999889,528.401921599987,527.9012567999889,528.401921599987,527.9012567999889,528.401921599987,527.9012567999889,528.401921599987,527.9012567999889,528.401921599987,527.9012567999889,528.401921599987,527.9012567999889,528.401921599987,526.868041299982,None,528.401921599987,529.7208321999933,1.0500000000000007,529.7371756999928,None,530.4884575000033,None,,,,,,,[1.31326087],2.6700000000000017,0.75,12003,001,2024_Jun_09_1410,MFTM_A_new1021,2021.2.3,59.97314401710471,
,,,,,,,,stim/Instruction_adaptive.png,conditions/adaptive.xlsx,test,-0.6,-0.6,-0.6,0.6,0.6,left,L,,,,,0,1,1,1,0,92,92,3,,,,,,,,,,,,,,,,,,,,,,,,,,,,,,,,,,,,,,,,,,,,530.9898708999972,None,right,0,2.138940500008175,531.4905106000078,533.0255372999818,531.4905106000078,532.5255709000048,531.4905106000078,532.5255709000048,531.4905106000078,532.5255709000048,531.4905106000078,532.5255709000048,531.4905106000078,532.5255709000048,532.5082141000021,533.0088155999838,532.5082141000021,533.0088155999838,532.5082141000021,533.0088155999838,532.5082141000021,533.0088155999838,532.5082141000021,533.0088155999838,532.5082141000021,533.0088155999838,532.5082141000021,533.0088155999838,532.5082141000021,533.0088155999838,531.4905106000078,None,532.9921418000013,534.3111549000023,1.0300000000000007,534.344253999996,None,535.0953718000092,None,,,,,,,[1.31494624],2.610000000000002,0.7419354838709677,12003,001,2024_Jun_09_1410,MFTM_A_new1021,2021.2.3,59.97314401710471,
,,,,,,,,stim/Instruction_adaptive.png,conditions/adaptive.xlsx,test,0.6,0.6,0.6,-0.6,-0.6,right,R,,,,,0,1,1,1,0,93,93,60,,,,,,,,,,,,,,,,,,,,,,,,,,,,,,,,,,,,,,,,,,,,535.5961970000062,None,right,1,1.7172765000141226,536.0970007999858,537.6824361000035,536.0970007999858,537.1825395000051,536.0970007999858,537.1825395000051,536.0970007999858,537.1825395000051,536.0970007999858,537.1825395000051,536.0970007999858,537.1825395000051,537.1651988000085,537.666410899983,537.1651988000085,537.666410899983,537.1651988000085,537.666410899983,537.1651988000085,537.666410899983,537.1651988000085,537.666410899983,537.1651988000085,537.666410899983,537.1651988000085,537.666410899983,537.1651988000085,537.666410899983,536.0970007999858,None,537.666410899983,538.9849975999969,1.0800000000000007,539.0014035000058,None,539.752450400003,None,,,,,,,[1.31606383],2.6300000000000017,0.7446808510638298,12003,001,2024_Jun_09_1410,MFTM_A_new1021,2021.2.3,59.97314401710471,
