arrwidth1,arrwidth2,arrwidth3,arrwidth4,arrwidth5,keyb,type,orientation,instruction_image,block_filename,block_type,arrow11,arrow22,arrow33,arrow44,arrow55,keyb_3,orientation3,trials.thisRepN,trials.thisTrialN,trials.thisN,trials.thisIndex,trials_3.thisRepN,trials_3.thisTrialN,trials_3.thisN,trials_3.thisIndex,trials_2.thisRepN,trials_2.thisTrialN,trials_2.thisN,trials_2.thisIndex,welcome.started,welcome.stopped,key_resp.keys,key_resp.rt,key_resp.started,key_resp.stopped,instruction_example.started,instruction_example.stopped,key_resp_3.keys,key_resp_3.rt,key_resp_3.started,key_resp_3.stopped,instruction_task.started,instruction_task.stopped,key_resp_2.keys,key_resp_2.rt,key_resp_2.started,key_resp_2.stopped,text_2.started,text_2.stopped,A1.started,A1.stopped,A2.started,A2.stopped,A3.started,A3.stopped,A4.started,A4.stopped,A5.started,A5.stopped,key_resp_4.keys,key_resp_4.corr,key_resp_4.rt,key_resp_4.started,key_resp_4.stopped,fb.started,fb.stopped,instruction_block.started,instruction_block.stopped,key_resp_8.keys,key_resp_8.rt,key_resp_8.started,key_resp_8.stopped,text_8.started,text_8.stopped,key_resp_9.keys,key_resp_9.corr,key_resp_9.rt,text_5.started,text_5.stopped,A11_3.started,A11_3.stopped,A22_2.started,A22_2.stopped,A33_2.started,A33_2.stopped,A44_2.started,A44_2.stopped,A55_2.started,A55_2.stopped,M1_3.started,M1_3.stopped,M2_2.started,M2_2.stopped,M3_2.started,M3_2.stopped,M4_2.started,M4_2.stopped,M5_2.started,M5_2.stopped,M6_2.started,M6_2.stopped,M7_2.started,M7_2.stopped,M8_2.started,M8_2.stopped,key_resp_9.started,key_resp_9.stopped,fixation.started,fixation.stopped,ET,fb_3.started,fb_3.stopped,text_9.started,text_9.stopped,fb_4.started,fb_4.stopped,text_7.started,text_7.stopped,endtext.started,endtext.stopped,fixation_ITI,CCC,Acc,participant,session,date,expName,psychopyVersion,frameRate,
,,,,,,,,,,,,,,,,,,,,,,,,,,,,,,9.969258699915372,None,space,0.4795943000353873,9.969258699915372,None,,,,,,,,,,,,,,,,,,,,,,,,,,,,,,,,,,,,,,,,,,,,,,,,,,,,,,,,,,,,,,,,,,,,,,,,,,,,,,,,,,,,,,,,,12006,001,2024_Jun_13_1724,MFTM_A_new1021,2021.2.3,60.16336761970307,
,,,,,,,,,,,,,,,,,,,,,,,,,,,,,,,,,,,,10.469862299971282,None,space,4.724588499986567,10.469862299971282,None,,,,,,,,,,,,,,,,,,,,,,,,,,,,,,,,,,,,,,,,,,,,,,,,,,,,,,,,,,,,,,,,,,,,,,,,,,,,,,,,,,,12006,001,2024_Jun_13_1724,MFTM_A_new1021,2021.2.3,60.16336761970307,
,,,,,,,,,,,,,,,,,,,,,,,,,,,,,,,,,,,,,,,,,,15.210433700005524,None,space,5.376882500015199,15.210433700005524,None,,,,,,,,,,,,,,,,,,,,,,,,,,,,,,,,,,,,,,,,,,,,,,,,,,,,,,,,,,,,,,,,,,,,,,,,,,,,,12006,001,2024_Jun_13_1724,MFTM_A_new1021,2021.2.3,60.16336761970307,
0.6,0.6,0.6,-0.6,-0.6,right,3:2,R,,,,,,,,,,,0,0,0,0,,,,,,,,,,,,,,,,,,,,,,,,,,,20.63565369998105,None,20.63565369998105,None,20.63565369998105,None,20.63565369998105,None,20.63565369998105,None,20.63565369998105,None,right,1,1.74644149991218,20.63565369998105,None,22.421794899972156,None,,,,,,,,,,,,,,,,,,,,,,,,,,,,,,,,,,,,,,,,,,,,,,,,,,,,,,,,,,12006,001,2024_Jun_13_1724,MFTM_A_new1021,2021.2.3,60.16336761970307,
-0.6,-0.6,-0.6,0.6,0.6,left,3:2,L,,,,,,,,,,,0,1,1,1,,,,,,,,,,,,,,,,,,,,,,,,,,,23.1723354998976,None,23.1723354998976,None,23.1723354998976,None,23.1723354998976,None,23.1723354998976,None,23.1723354998976,None,left,1,5.777541100047529,23.1723354998976,None,28.981131299980916,None,,,,,,,,,,,,,,,,,,,,,,,,,,,,,,,,,,,,,,,,,,,,,,,,,,,,,,,,,,12006,001,2024_Jun_13_1724,MFTM_A_new1021,2021.2.3,60.16336761970307,
0.6,0.6,0.6,-0.6,-0.6,right,3:2,R,,,,,,,,,,,1,0,2,0,,,,,,,,,,,,,,,,,,,,,,,,,,,29.732466799905524,None,29.732466799905524,None,29.732466799905524,None,29.732466799905524,None,29.732466799905524,None,29.732466799905524,None,right,1,2.8891227000858635,29.732466799905524,None,32.65349579998292,None,,,,,,,,,,,,,,,,,,,,,,,,,,,,,,,,,,,,,,,,,,,,,,,,,,,,,,,,,,12006,001,2024_Jun_13_1724,MFTM_A_new1021,2021.2.3,60.16336761970307,
-0.6,-0.6,-0.6,0.6,0.6,left,3:2,L,,,,,,,,,,,1,1,3,1,,,,,,,,,,,,,,,,,,,,,,,,,,,33.40455049998127,None,33.40455049998127,None,33.40455049998127,None,33.40455049998127,None,33.40455049998127,None,33.40455049998127,None,right,0,1.9455408999929205,33.40455049998127,None,35.37402629991993,None,,,,,,,,,,,,,,,,,,,,,,,,,,,,,,,,,,,,,,,,,,,,,,,,,,,,,,,,,,12006,001,2024_Jun_13_1724,MFTM_A_new1021,2021.2.3,60.16336761970307,
,,,,,,,,stim/Instruction_mask.png,conditions/adaptive.xlsx,practice,-0.6,-0.6,-0.6,0.6,0.6,left,L,,,,,0,0,0,0,0,0,0,27,,,,,,,,,,,,,,,,,,,,,,,,,,,,,,,,,,,,,,36.40913029992953,None,space,29.374239100026898,36.40913029992953,None,65.8867916999152,None,right,0,1.2383168000960723,66.32080709992442,None,66.32080709992442,69.32537069998216,66.32080709992442,69.32537069998216,66.32080709992442,69.32537069998216,66.32080709992442,69.32537069998216,66.32080709992442,69.32537069998216,69.30938069999684,69.81035059993155,69.30938069999684,69.81035059993155,69.30938069999684,69.81035059993155,69.30938069999684,69.81035059993155,69.30938069999684,69.81035059993155,69.30938069999684,69.81035059993155,69.30938069999684,69.81035059993155,69.30938069999684,69.81035059993155,66.32080709992442,None,69.81035059993155,69.81035059993155,3,69.82621540001128,None,70.57843739993405,None,,,,,,,,,,12006,001,2024_Jun_13_1724,MFTM_A_new1021,2021.2.3,60.16336761970307,
,,,,,,,,stim/Instruction_mask.png,conditions/adaptive.xlsx,practice,0.6,0.6,0.6,-0.6,-0.6,right,R,,,,,0,0,0,0,0,1,1,52,,,,,,,,,,,,,,,,,,,,,,,,,,,,,,,,,,,,,,,,,,,,71.07885389996227,None,right,1,1.7241394000593573,71.57877369993366,73.58300129999407,71.57877369993366,73.08105889998842,71.57877369993366,73.08105889998842,71.57877369993366,73.08105889998842,71.57877369993366,73.08105889998842,71.57877369993366,73.08105889998842,73.0643583999481,73.56614479993004,73.0643583999481,73.56614479993004,73.0643583999481,73.56614479993004,73.0643583999481,73.56614479993004,73.0643583999481,73.56614479993004,73.0643583999481,73.56614479993004,73.0643583999481,73.56614479993004,73.0643583999481,73.56614479993004,71.57877369993366,None,73.56614479993004,75.0696071999846,1.5,75.08412049990147,None,75.83569089998491,None,,,,,,,,,,12006,001,2024_Jun_13_1724,MFTM_A_new1021,2021.2.3,60.16336761970307,
,,,,,,,,stim/Instruction_mask.png,conditions/adaptive.xlsx,practice,0.6,0.6,0.6,-0.6,-0.6,right,R,,,,,0,0,0,0,0,2,2,6,,,,,,,,,,,,,,,,,,,,,,,,,,,,,,,,,,,,,,,,,,,,76.33598239999264,None,right,1,1.3382860999554396,76.83666209992953,78.13901719998103,76.83666209992953,77.63780209992547,76.83666209992953,77.63780209992547,76.83666209992953,77.63780209992547,76.83666209992953,77.63780209992547,76.83666209992953,77.63780209992547,77.62126719998196,78.12182329990901,77.62126719998196,78.12182329990901,77.62126719998196,78.12182329990901,77.62126719998196,78.12182329990901,77.62126719998196,78.12182329990901,77.62126719998196,78.12182329990901,77.62126719998196,78.12182329990901,77.62126719998196,78.12182329990901,76.83666209992953,None,78.12182329990901,80.32605349994265,0.8,80.34249519999139,None,81.0932428999804,None,,,,,,,,,,12006,001,2024_Jun_13_1724,MFTM_A_new1021,2021.2.3,60.16336761970307,
,,,,,,,,stim/Instruction_mask.png,conditions/adaptive.xlsx,practice,-0.6,-0.6,-0.6,0.6,0.6,left,L,,,,,0,0,0,0,0,3,3,59,,,,,,,,,,,,,,,,,,,,,,,,,,,,,,,,,,,,,,,,,,,,81.59450539993122,None,right,0,0.6725549000548199,82.09532989992294,82.84599109995179,82.09532989992294,82.34501329995692,82.09532989992294,82.34501329995692,82.09532989992294,82.34501329995692,82.09532989992294,82.34501329995692,82.09532989992294,82.34501329995692,82.32911679998506,82.82991779991426,82.32911679998506,82.82991779991426,82.32911679998506,82.82991779991426,82.32911679998506,82.82991779991426,82.32911679998506,82.82991779991426,82.32911679998506,82.82991779991426,82.32911679998506,82.82991779991426,82.32911679998506,82.82991779991426,82.09532989992294,None,82.82991779991426,85.58416989992838,3,85.60062179993838,None,86.35193239990622,None,,,,,,,,,,12006,001,2024_Jun_13_1724,MFTM_A_new1021,2021.2.3,60.16336761970307,
,,,,,,,,stim/Instruction_mask.png,conditions/adaptive.xlsx,practice,,,,,,,,,,,,0,0,0,0,,,,,,,,,,,,,,,,,,,,,,,,,,,,,,,,,,,,,,,,,,,,,,,,,,,,,,,,,,,,,,,,,,,,,,,,,,,,,,,,,,,,,,,,,,86.86896709993016,87.86976019991562,87.83763759990688,87.83763759990688,87.83763759990688,None,,,,12006,001,2024_Jun_13_1724,MFTM_A_new1021,2021.2.3,60.16336761970307,
,,,,,,,,stim/Instruction_adaptive.png,conditions/adaptive.xlsx,test,0.6,0.6,0.6,-0.6,-0.6,right,R,,,,,0,1,1,1,0,0,0,52,,,,,,,,,,,,,,,,,,,,,,,,,,,,,,,,,,,,,,91.00835559994448,None,space,14.375681600067765,91.00835559994448,None,105.44749269995373,None,None,0,0,105.93068150000181,None,105.93068150000181,108.93641019996721,105.93068150000181,108.93641019996721,105.93068150000181,108.93641019996721,105.93068150000181,108.93641019996721,105.93068150000181,108.93641019996721,108.91834629990626,109.41986319993157,108.91834629990626,109.41986319993157,108.91834629990626,109.41986319993157,108.91834629990626,109.41986319993157,108.91834629990626,109.41986319993157,108.91834629990626,109.41986319993157,108.91834629990626,109.41986319993157,108.91834629990626,109.41986319993157,105.93068150000181,None,109.41986319993157,109.41986319993157,3,109.43530969996937,None,110.18804109992925,None,,,,,,,0.0,0.5,0.0,12006,001,2024_Jun_13_1724,MFTM_A_new1021,2021.2.3,60.16336761970307,
,,,,,,,,stim/Instruction_adaptive.png,conditions/adaptive.xlsx,test,-0.6,-0.6,-0.6,0.6,0.6,left,L,,,,,0,1,1,1,0,1,1,35,,,,,,,,,,,,,,,,,,,,,,,,,,,,,,,,,,,,,,,,,,,,110.68858819990419,None,left,1,1.5067918000277132,111.18965449999087,None,111.18965449999087,114.19359669997357,111.18965449999087,114.19359669997357,111.18965449999087,114.19359669997357,111.18965449999087,114.19359669997357,111.18965449999087,114.19359669997357,114.17693690001033,114.6788856999483,114.17693690001033,114.6788856999483,114.17693690001033,114.6788856999483,114.17693690001033,114.6788856999483,114.17693690001033,114.6788856999483,114.17693690001033,114.6788856999483,114.17693690001033,114.6788856999483,114.17693690001033,114.6788856999483,111.18965449999087,None,114.6788856999483,114.6788856999483,3.0000000000000027,114.6942732000025,None,115.4453419999918,None,,,,,,,0,0.5,0.5,12006,001,2024_Jun_13_1724,MFTM_A_new1021,2021.2.3,60.16336761970307,
,,,,,,,,stim/Instruction_adaptive.png,conditions/adaptive.xlsx,test,-0.6,-0.6,-0.6,0.6,0.6,left,L,,,,,0,1,1,1,0,2,2,43,,,,,,,,,,,,,,,,,,,,,,,,,,,,,,,,,,,,,,,,,,,,115.94668379996438,None,left,1,2.481597699923441,116.44654099992476,None,116.44654099992476,119.45102079992648,116.44654099992476,119.45102079992648,116.44654099992476,119.45102079992648,116.44654099992476,119.45102079992648,116.44654099992476,119.45102079992648,119.43445689999498,119.93590619997121,119.43445689999498,119.93590619997121,119.43445689999498,119.93590619997121,119.43445689999498,119.93590619997121,119.43445689999498,119.93590619997121,119.43445689999498,119.93590619997121,119.43445689999498,119.93590619997121,119.43445689999498,119.93590619997121,116.44654099992476,None,119.93590619997121,119.93590619997121,3.0000000000000027,119.95166849996895,None,120.70350269996561,None,,,,,,,0,0.5,0.6666666666666666,12006,001,2024_Jun_13_1724,MFTM_A_new1021,2021.2.3,60.16336761970307,
,,,,,,,,stim/Instruction_adaptive.png,conditions/adaptive.xlsx,test,-0.6,-0.6,-0.6,0.6,0.6,left,L,,,,,0,1,1,1,0,3,3,97,,,,,,,,,,,,,,,,,,,,,,,,,,,,,,,,,,,,,,,,,,,,121.20497199997772,None,left,1,1.3756287000142038,121.70486299996264,None,121.70486299996264,124.70895150001161,121.70486299996264,124.70895150001161,121.70486299996264,124.70895150001161,121.70486299996264,124.70895150001161,121.70486299996264,124.70895150001161,124.69258319993969,125.19368739996571,124.69258319993969,125.19368739996571,124.69258319993969,125.19368739996571,124.69258319993969,125.19368739996571,124.69258319993969,125.19368739996571,124.69258319993969,125.19368739996571,124.69258319993969,125.19368739996571,124.69258319993969,125.19368739996571,121.70486299996264,None,125.19368739996571,125.19368739996571,3.0000000000000027,125.20970899995882,None,125.96138090000022,None,,,,,,,0,1.1300000000000006,0.75,12006,001,2024_Jun_13_1724,MFTM_A_new1021,2021.2.3,60.16336761970307,
,,,,,,,,stim/Instruction_adaptive.png,conditions/adaptive.xlsx,test,0.6,0.6,0.6,-0.6,-0.6,right,R,,,,,0,1,1,1,0,4,4,60,,,,,,,,,,,,,,,,,,,,,,,,,,,,,,,,,,,,,,,,,,,,126.46156550000887,None,right,1,3.302403899957426,126.9623058999423,None,126.9623058999423,129.96746600000188,126.9623058999423,129.96746600000188,126.9623058999423,129.96746600000188,126.9623058999423,129.96746600000188,126.9623058999423,129.96746600000188,129.95034199999645,130.45128319994546,129.95034199999645,130.45128319994546,129.95034199999645,130.45128319994546,129.95034199999645,130.45128319994546,129.95034199999645,130.45128319994546,129.95034199999645,130.45128319994546,129.95034199999645,130.45128319994546,129.95034199999645,130.45128319994546,126.9623058999423,None,130.45128319994546,130.45128319994546,3.0000000000000027,130.46766619989648,None,131.2194240000099,None,,,,,,,0,1.540000000000001,0.8,12006,001,2024_Jun_13_1724,MFTM_A_new1021,2021.2.3,60.16336761970307,
,,,,,,,,stim/Instruction_adaptive.png,conditions/adaptive.xlsx,test,0.6,0.6,0.6,-0.6,-0.6,right,R,,,,,0,1,1,1,0,5,5,28,,,,,,,,,,,,,,,,,,,,,,,,,,,,,,,,,,,,,,,,,,,,131.72037689993158,None,right,1,2.6764030000194907,132.2201938999351,None,132.2201938999351,134.49030609999318,132.2201938999351,134.49030609999318,132.2201938999351,134.49030609999318,132.2201938999351,134.49030609999318,132.2201938999351,134.49030609999318,134.45787749998271,134.95850819989573,134.45787749998271,134.95850819989573,134.45787749998271,134.95850819989573,134.45787749998271,134.95850819989573,134.45787749998271,134.95850819989573,134.45787749998271,134.95850819989573,134.45787749998271,134.95850819989573,134.45787749998271,134.95850819989573,132.2201938999351,None,134.95850819989573,134.95850819989573,2.2600000000000016,134.9914135999279,None,135.7423680999782,None,,,,,,,0,1.8100000000000012,0.8333333333333334,12006,001,2024_Jun_13_1724,MFTM_A_new1021,2021.2.3,60.16336761970307,
,,,,,,,,stim/Instruction_adaptive.png,conditions/adaptive.xlsx,test,0.6,0.6,0.6,-0.6,-0.6,right,R,,,,,0,1,1,1,0,6,6,20,,,,,,,,,,,,,,,,,,,,,,,,,,,,,,,,,,,,,,,,,,,,136.24348790000658,None,right,1,1.4720756000606343,136.74475769989658,None,136.74475769989658,138.63101759995334,136.74475769989658,138.63101759995334,136.74475769989658,138.63101759995334,136.74475769989658,138.63101759995334,136.74475769989658,138.63101759995334,138.61333029996604,139.11388660001103,138.61333029996604,139.11388660001103,138.61333029996604,139.11388660001103,138.61333029996604,139.11388660001103,138.61333029996604,139.11388660001103,138.61333029996604,139.11388660001103,138.61333029996604,139.11388660001103,138.61333029996604,139.11388660001103,136.74475769989658,None,139.11388660001103,139.11388660001103,1.8800000000000014,139.1307048999006,None,139.88180559989996,None,,,,,,,0,2.0200000000000014,0.8571428571428571,12006,001,2024_Jun_13_1724,MFTM_A_new1021,2021.2.3,60.16336761970307,
,,,,,,,,stim/Instruction_adaptive.png,conditions/adaptive.xlsx,test,-0.6,-0.6,-0.6,0.6,0.6,left,L,,,,,0,1,1,1,0,7,7,73,,,,,,,,,,,,,,,,,,,,,,,,,,,,,,,,,,,,,,,,,,,,140.38293089997023,None,right,0,1.8381789000704885,140.88326849997975,None,140.88326849997975,142.5024487999035,140.88326849997975,142.5024487999035,140.88326849997975,142.5024487999035,140.88326849997975,142.5024487999035,140.88326849997975,142.5024487999035,142.48571799998172,142.98638819996268,142.48571799998172,142.98638819996268,142.48571799998172,142.98638819996268,142.48571799998172,142.98638819996268,142.48571799998172,142.98638819996268,142.48571799998172,142.98638819996268,142.48571799998172,142.98638819996268,142.48571799998172,142.98638819996268,140.88326849997975,None,142.98638819996268,142.98638819996268,1.6200000000000012,143.00312989996746,None,143.75466440001037,None,,,,,,,0,1.5000000000000009,0.75,12006,001,2024_Jun_13_1724,MFTM_A_new1021,2021.2.3,60.16336761970307,
,,,,,,,,stim/Instruction_adaptive.png,conditions/adaptive.xlsx,test,-0.6,-0.6,-0.6,0.6,0.6,left,L,,,,,0,1,1,1,0,8,8,33,,,,,,,,,,,,,,,,,,,,,,,,,,,,,,,,,,,,,,,,,,,,144.2550541999517,None,left,1,1.828449000022374,144.75661359995138,None,144.75661359995138,147.09273639996536,144.75661359995138,147.09273639996536,144.75661359995138,147.09273639996536,144.75661359995138,147.09273639996536,144.75661359995138,147.09273639996536,147.07589739991818,147.57673139998224,147.07589739991818,147.57673139998224,147.07589739991818,147.57673139998224,147.07589739991818,147.57673139998224,147.07589739991818,147.57673139998224,147.07589739991818,147.57673139998224,147.07589739991818,147.57673139998224,147.07589739991818,147.57673139998224,144.75661359995138,None,147.56013279990293,147.56013279990293,2.330000000000002,147.59338350000326,None,148.345182799967,None,,,,,,,0,1.710000000000001,0.7777777777777778,12006,001,2024_Jun_13_1724,MFTM_A_new1021,2021.2.3,60.16336761970307,
,,,,,,,,stim/Instruction_adaptive.png,conditions/adaptive.xlsx,test,0.6,0.6,0.6,-0.6,-0.6,right,R,,,,,0,1,1,1,0,9,9,30,,,,,,,,,,,,,,,,,,,,,,,,,,,,,,,,,,,,,,,,,,,,148.84536689997185,None,right,1,1.4383204999612644,149.3472411999246,None,149.3472411999246,151.36652999999933,149.3472411999246,151.36652999999933,149.3472411999246,151.36652999999933,149.3472411999246,151.36652999999933,149.3472411999246,151.36652999999933,151.33377909997944,151.83317009999882,151.33377909997944,151.83317009999882,151.33377909997944,151.83317009999882,151.33377909997944,151.83317009999882,151.33377909997944,151.83317009999882,151.33377909997944,151.83317009999882,151.33377909997944,151.83317009999882,151.33377909997944,151.83317009999882,149.3472411999246,None,151.83317009999882,151.83317009999882,2.0100000000000016,151.86641559994314,None,152.61875659995712,None,,,,,,,0,1.8800000000000012,0.8,12006,001,2024_Jun_13_1724,MFTM_A_new1021,2021.2.3,60.16336761970307,
,,,,,,,,stim/Instruction_adaptive.png,conditions/adaptive.xlsx,test,0.6,0.6,0.6,-0.6,-0.6,right,R,,,,,0,1,1,1,0,10,10,10,,,,,,,,,,,,,,,,,,,,,,,,,,,,,,,,,,,,,,,,,,,,153.1191814999329,None,right,1,1.7745419000275433,153.61903649999294,155.92273429990746,153.61903649999294,155.4220107999863,153.61903649999294,155.4220107999863,153.61903649999294,155.4220107999863,153.61903649999294,155.4220107999863,153.61903649999294,155.4220107999863,155.38926599989645,155.8890459999675,155.38926599989645,155.8890459999675,155.38926599989645,155.8890459999675,155.38926599989645,155.8890459999675,155.38926599989645,155.8890459999675,155.38926599989645,155.8890459999675,155.38926599989645,155.8890459999675,155.38926599989645,155.8890459999675,153.61903649999294,None,155.8890459999675,155.9565336999949,1.7900000000000014,155.97268619993702,None,156.72464319993742,None,,,,,,,[0.05545455],2.0200000000000014,0.8181818181818182,12006,001,2024_Jun_13_1724,MFTM_A_new1021,2021.2.3,60.16336761970307,
,,,,,,,,stim/Instruction_adaptive.png,conditions/adaptive.xlsx,test,0.6,0.6,0.6,-0.6,-0.6,right,R,,,,,0,1,1,1,0,11,11,90,,,,,,,,,,,,,,,,,,,,,,,,,,,,,,,,,,,,,,,,,,,,157.2243787999032,None,right,1,1.4360023000044748,157.72567929991055,159.84604829992168,157.72567929991055,159.36149879998993,157.72567929991055,159.36149879998993,157.72567929991055,159.36149879998993,157.72567929991055,159.36149879998993,157.72567929991055,159.36149879998993,159.3278258999344,159.82903679995798,159.3278258999344,159.82903679995798,159.3278258999344,159.82903679995798,159.3278258999344,159.82903679995798,159.3278258999344,159.82903679995798,159.3278258999344,159.82903679995798,159.3278258999344,159.82903679995798,159.3278258999344,159.82903679995798,157.72567929991055,None,159.82903679995798,159.96332899993286,1.6200000000000012,159.97866689995863,None,160.73057329992298,None,,,,,,,[0.12416667],2.1500000000000012,0.8333333333333334,12006,001,2024_Jun_13_1724,MFTM_A_new1021,2021.2.3,60.16336761970307,
,,,,,,,,stim/Instruction_adaptive.png,conditions/adaptive.xlsx,test,-0.6,-0.6,-0.6,0.6,0.6,left,L,,,,,0,1,1,1,0,12,12,59,,,,,,,,,,,,,,,,,,,,,,,,,,,,,,,,,,,,,,,,,,,,161.23076089995448,None,left,1,1.1014155000448227,161.73226600000635,163.71837909996975,161.73226600000635,163.21692859998439,161.73226600000635,163.21692859998439,161.73226600000635,163.21692859998439,161.73226600000635,163.21692859998439,161.73226600000635,163.21692859998439,163.2003045999445,163.7010861999588,163.2003045999445,163.7010861999588,163.2003045999445,163.7010861999588,163.2003045999445,163.7010861999588,163.2003045999445,163.7010861999588,163.2003045999445,163.7010861999588,163.2003045999445,163.7010861999588,163.2003045999445,163.7010861999588,161.73226600000635,None,163.7010861999588,163.9013149999082,1.480000000000001,163.9180372999981,None,164.67002660001162,None,,,,,,,[0.19307692],2.2600000000000016,0.8461538461538461,12006,001,2024_Jun_13_1724,MFTM_A_new1021,2021.2.3,60.16336761970307,
,,,,,,,,stim/Instruction_adaptive.png,conditions/adaptive.xlsx,test,0.6,0.6,0.6,-0.6,-0.6,right,R,,,,,0,1,1,1,0,13,13,76,,,,,,,,,,,,,,,,,,,,,,,,,,,,,,,,,,,,,,,,,,,,165.17049369995948,None,right,1,1.5549324000021443,165.67080989992246,167.54093379992992,165.67080989992246,167.05620779993478,165.67080989992246,167.05620779993478,165.67080989992246,167.05620779993478,165.67080989992246,167.05620779993478,165.67080989992246,167.05620779993478,167.02304559992626,167.52484939992428,167.02304559992626,167.52484939992428,167.02304559992626,167.52484939992428,167.02304559992626,167.52484939992428,167.02304559992626,167.52484939992428,167.02304559992626,167.52484939992428,167.02304559992626,167.52484939992428,167.02304559992626,167.52484939992428,165.67080989992246,None,167.52484939992428,167.79116159991827,1.370000000000001,167.80739470000844,None,168.55820649990346,None,,,,,,,[0.26],2.3600000000000017,0.8571428571428571,12006,001,2024_Jun_13_1724,MFTM_A_new1021,2021.2.3,60.16336761970307,
,,,,,,,,stim/Instruction_adaptive.png,conditions/adaptive.xlsx,test,0.6,0.6,0.6,-0.6,-0.6,right,R,,,,,0,1,1,1,0,14,14,68,,,,,,,,,,,,,,,,,,,,,,,,,,,,,,,,,,,,,,,,,,,,169.05914909997955,None,left,0,1.5375882999505848,169.56011239998043,171.3460735999979,169.56011239998043,170.84586769994348,169.56011239998043,170.84586769994348,169.56011239998043,170.84586769994348,169.56011239998043,170.84586769994348,169.56011239998043,170.84586769994348,170.8286752999993,171.32922620000318,170.8286752999993,171.32922620000318,170.8286752999993,171.32922620000318,170.8286752999993,171.32922620000318,170.8286752999993,171.32922620000318,170.8286752999993,171.32922620000318,170.8286752999993,171.32922620000318,170.8286752999993,171.32922620000318,169.56011239998043,None,171.32922620000318,None,1.280000000000001,171.66244639991783,None,172.41513959993608,None,,,,,,,[0.324],2.0800000000000014,0.8,12006,001,2024_Jun_13_1724,MFTM_A_new1021,2021.2.3,60.16336761970307,
,,,,,,,,stim/Instruction_adaptive.png,conditions/adaptive.xlsx,test,0.6,0.6,0.6,-0.6,-0.6,right,R,,,,,0,1,1,1,0,15,15,88,,,,,,,,,,,,,,,,,,,,,,,,,,,,,,,,,,,,,,,,,,,,172.91566949989647,None,right,1,0.8890735999448225,173.4166292999871,175.48670449992642,173.4166292999871,174.98562870000023,173.4166292999871,174.98562870000023,173.4166292999871,174.98562870000023,173.4166292999871,174.98562870000023,173.4166292999871,174.98562870000023,174.9680376999313,175.46948869992048,174.9680376999313,175.46948869992048,174.9680376999313,175.46948869992048,174.9680376999313,175.46948869992048,174.9680376999313,175.46948869992048,174.9680376999313,175.46948869992048,174.9680376999313,175.46948869992048,174.9680376999313,175.46948869992048,173.4166292999871,None,175.45250979997218,175.82012419996317,1.5600000000000012,175.85272369999439,None,176.60447619995102,None,,,,,,,[0.3625],2.1900000000000013,0.8125,12006,001,2024_Jun_13_1724,MFTM_A_new1021,2021.2.3,60.16336761970307,
,,,,,,,,stim/Instruction_adaptive.png,conditions/adaptive.xlsx,test,-0.6,-0.6,-0.6,0.6,0.6,left,L,,,,,0,1,1,1,0,16,16,81,,,,,,,,,,,,,,,,,,,,,,,,,,,,,,,,,,,,,,,,,,,,177.10547319997568,None,left,1,1.3391741999657825,177.62243250000756,179.57582459994592,177.62243250000756,179.07449379994068,177.62243250000756,179.07449379994068,177.62243250000756,179.07449379994068,177.62243250000756,179.07449379994068,177.62243250000756,179.07449379994068,179.02412949991412,179.52559209999163,179.02412949991412,179.52559209999163,179.02412949991412,179.52559209999163,179.02412949991412,179.52559209999163,179.02412949991412,179.52559209999163,179.02412949991412,179.52559209999163,179.02412949991412,179.52559209999163,179.02412949991412,179.52559209999163,177.62243250000756,None,179.52559209999163,179.94215699995402,1.440000000000001,179.97551609994844,None,180.72727509995457,None,,,,,,,[0.40352941],2.2800000000000016,0.8235294117647058,12006,001,2024_Jun_13_1724,MFTM_A_new1021,2021.2.3,60.16336761970307,
,,,,,,,,stim/Instruction_adaptive.png,conditions/adaptive.xlsx,test,0.6,0.6,0.6,-0.6,-0.6,right,R,,,,,0,1,1,1,0,17,17,56,,,,,,,,,,,,,,,,,,,,,,,,,,,,,,,,,,,,,,,,,,,,181.22830509999767,None,right,1,1.5851425000000745,181.72885099996347,183.58105669997167,181.72885099996347,183.08038719999604,181.72885099996347,183.08038719999604,181.72885099996347,183.08038719999604,181.72885099996347,183.08038719999604,181.72885099996347,183.08038719999604,183.06360699993093,183.5648778999457,183.06360699993093,183.5648778999457,183.06360699993093,183.5648778999457,183.06360699993093,183.5648778999457,183.06360699993093,183.5648778999457,183.06360699993093,183.5648778999457,183.06360699993093,183.5648778999457,183.06360699993093,183.5648778999457,181.72885099996347,None,183.5648778999457,184.0158585999161,1.350000000000001,184.03199029993266,None,184.78366969991475,None,,,,,,,[0.445],2.3600000000000017,0.8333333333333334,12006,001,2024_Jun_13_1724,MFTM_A_new1021,2021.2.3,60.16336761970307,
,,,,,,,,stim/Instruction_adaptive.png,conditions/adaptive.xlsx,test,-0.6,-0.6,-0.6,0.6,0.6,left,L,,,,,0,1,1,1,0,18,18,17,,,,,,,,,,,,,,,,,,,,,,,,,,,,,,,,,,,,,,,,,,,,185.28365599992685,None,right,0,1.850152900093235,185.7844066999387,187.57100279990118,185.7844066999387,187.06965909991413,185.7844066999387,187.06965909991413,185.7844066999387,187.06965909991413,185.7844066999387,187.06965909991413,185.7844066999387,187.06965909991413,187.05324189993553,187.5537561000092,187.05324189993553,187.5537561000092,187.05324189993553,187.5537561000092,187.05324189993553,187.5537561000092,187.05324189993553,187.5537561000092,187.05324189993553,187.5537561000092,187.05324189993553,187.5537561000092,187.05324189993553,187.5537561000092,185.7844066999387,None,187.5537561000092,None,1.280000000000001,188.054355799919,None,188.80557510000654,None,,,,,,,[0.48578947],2.1300000000000017,0.7894736842105263,12006,001,2024_Jun_13_1724,MFTM_A_new1021,2021.2.3,60.16336761970307,
,,,,,,,,stim/Instruction_adaptive.png,conditions/adaptive.xlsx,test,-0.6,-0.6,-0.6,0.6,0.6,left,L,,,,,0,1,1,1,0,19,19,11,,,,,,,,,,,,,,,,,,,,,,,,,,,,,,,,,,,,,,,,,,,,189.3071727999486,None,right,0,1.6897685000440106,189.8084547999315,191.81102299992926,189.8084547999315,191.30947849992663,189.8084547999315,191.30947849992663,189.8084547999315,191.30947849992663,189.8084547999315,191.30947849992663,189.8084547999315,191.30947849992663,191.29250260000117,191.79390189994592,191.29250260000117,191.79390189994592,191.29250260000117,191.79390189994592,191.29250260000117,191.79390189994592,191.29250260000117,191.79390189994592,191.29250260000117,191.79390189994592,191.29250260000117,191.79390189994592,191.29250260000117,191.79390189994592,189.8084547999315,None,191.79390189994592,192.3115087999031,1.500000000000001,192.32700279995333,None,193.07870389998425,None,,,,,,,[0.5115],1.8800000000000012,0.75,12006,001,2024_Jun_13_1724,MFTM_A_new1021,2021.2.3,60.16336761970307,
,,,,,,,,stim/Instruction_adaptive.png,conditions/adaptive.xlsx,test,-0.6,-0.6,-0.6,0.6,0.6,left,L,,,,,0,1,1,1,0,20,20,45,,,,,,,,,,,,,,,,,,,,,,,,,,,,,,,,,,,,,,,,,,,,193.5794798999559,None,left,1,1.9864769999403507,194.08040679991245,196.38363519997802,194.08040679991245,195.8827715999214,194.08040679991245,195.8827715999214,194.08040679991245,195.8827715999214,194.08040679991245,195.8827715999214,194.08040679991245,195.8827715999214,195.8496566999238,196.35031519993208,195.8496566999238,196.35031519993208,195.8496566999238,196.35031519993208,195.8496566999238,196.35031519993208,195.8496566999238,196.35031519993208,195.8496566999238,196.35031519993208,195.8496566999238,196.35031519993208,195.8496566999238,196.35031519993208,194.08040679991245,None,196.35031519993208,196.884411899955,1.7900000000000014,196.9010104999179,None,197.65214169991668,None,,,,,,,[0.52095238],1.9700000000000013,0.7619047619047619,12006,001,2024_Jun_13_1724,MFTM_A_new1021,2021.2.3,60.16336761970307,
,,,,,,,,stim/Instruction_adaptive.png,conditions/adaptive.xlsx,test,0.6,0.6,0.6,-0.6,-0.6,right,R,,,,,0,1,1,1,0,21,21,34,,,,,,,,,,,,,,,,,,,,,,,,,,,,,,,,,,,,,,,,,,,,198.15293709991965,None,left,0,1.5649292999878526,198.6536021999782,200.84119649999775,198.6536021999782,200.34102789999451,198.6536021999782,200.34102789999451,198.6536021999782,200.34102789999451,198.6536021999782,200.34102789999451,198.6536021999782,200.34102789999451,200.3241630999837,200.8246424999088,200.3241630999837,200.8246424999088,200.3241630999837,200.8246424999088,200.3241630999837,200.8246424999088,200.3241630999837,200.8246424999088,200.3241630999837,200.8246424999088,200.3241630999837,200.8246424999088,200.3241630999837,200.8246424999088,198.6536021999782,None,200.8246424999088,201.3584422999993,1.6800000000000013,201.3744260999374,None,202.12657600000966,None,,,,,,,[0.53454545],1.720000000000001,0.7272727272727273,12006,001,2024_Jun_13_1724,MFTM_A_new1021,2021.2.3,60.16336761970307,
,,,,,,,,stim/Instruction_adaptive.png,conditions/adaptive.xlsx,test,0.6,0.6,0.6,-0.6,-0.6,right,R,,,,,0,1,1,1,0,22,22,42,,,,,,,,,,,,,,,,,,,,,,,,,,,,,,,,,,,,,,,,,,,,202.62715479999315,None,right,1,1.5227723000571132,203.1281367999036,205.6318808000069,203.1281367999036,205.13119939994067,203.1281367999036,205.13119939994067,203.1281367999036,205.13119939994067,203.1281367999036,205.13119939994067,203.1281367999036,205.13119939994067,205.1149110000115,205.6151931999484,205.1149110000115,205.6151931999484,205.1149110000115,205.6151931999484,205.1149110000115,205.6151931999484,205.1149110000115,205.6151931999484,205.1149110000115,205.6151931999484,205.1149110000115,205.6151931999484,205.1149110000115,205.6151931999484,203.1281367999036,None,205.6151931999484,206.11488799995277,2.0000000000000018,206.1317291999003,None,206.88271119992714,None,,,,,,,[[0.5]],1.8100000000000012,0.7391304347826086,12006,001,2024_Jun_13_1724,MFTM_A_new1021,2021.2.3,60.16336761970307,
,,,,,,,,stim/Instruction_adaptive.png,conditions/adaptive.xlsx,test,0.6,0.6,0.6,-0.6,-0.6,right,R,,,,,0,1,1,1,0,23,23,66,,,,,,,,,,,,,,,,,,,,,,,,,,,,,,,,,,,,,,,,,,,,207.38439189991914,None,right,1,1.3189506999915466,207.88426039996557,210.27231299993582,207.88426039996557,209.7716835999163,207.88426039996557,209.7716835999163,207.88426039996557,209.7716835999163,207.88426039996557,209.7716835999163,207.88426039996557,209.7716835999163,209.75465329992585,210.2547995999921,209.75465329992585,210.2547995999921,209.75465329992585,210.2547995999921,209.75465329992585,210.2547995999921,209.75465329992585,210.2547995999921,209.75465329992585,210.2547995999921,209.75465329992585,210.2547995999921,209.75465329992585,210.2547995999921,207.88426039996557,None,210.2547995999921,None,1.8800000000000014,210.80543720000423,None,211.55643789994065,None,,,,,,,[0.53666667],1.8900000000000012,0.75,12006,001,2024_Jun_13_1724,MFTM_A_new1021,2021.2.3,60.16336761970307,
,,,,,,,,stim/Instruction_adaptive.png,conditions/adaptive.xlsx,test,0.6,0.6,0.6,-0.6,-0.6,right,R,,,,,0,1,1,1,0,24,24,86,,,,,,,,,,,,,,,,,,,,,,,,,,,,,,,,,,,,,,,,,,,,212.05734820000362,None,left,0,2.2446796000003815,212.55868759995792,214.84525119990576,212.55868759995792,214.34487199992873,212.55868759995792,214.34487199992873,212.55868759995792,214.34487199992873,212.55868759995792,214.34487199992873,212.55868759995792,214.34487199992873,214.32742089999374,214.82830860000104,214.32742089999374,214.82830860000104,214.32742089999374,214.82830860000104,214.32742089999374,214.82830860000104,214.32742089999374,214.82830860000104,214.32742089999374,214.82830860000104,214.32742089999374,214.82830860000104,214.32742089999374,214.82830860000104,212.55868759995792,None,214.82830860000104,215.37903149996419,1.7800000000000014,215.39610189991072,None,216.14685659995303,None,,,,,,,[0.544],1.660000000000001,0.72,12006,001,2024_Jun_13_1724,MFTM_A_new1021,2021.2.3,60.16336761970307,
,,,,,,,,stim/Instruction_adaptive.png,conditions/adaptive.xlsx,test,-0.6,-0.6,-0.6,0.6,0.6,left,L,,,,,0,1,1,1,0,25,25,87,,,,,,,,,,,,,,,,,,,,,,,,,,,,,,,,,,,,,,,,,,,,216.6485194999259,None,left,1,2.270451199961826,217.14895669999532,219.73546879994683,217.14895669999532,219.23552609991748,217.14895669999532,219.23552609991748,217.14895669999532,219.23552609991748,217.14895669999532,219.23552609991748,217.14895669999532,219.23552609991748,219.2190756999189,219.718741199933,219.2190756999189,219.718741199933,219.2190756999189,219.718741199933,219.2190756999189,219.718741199933,219.2190756999189,219.718741199933,219.2190756999189,219.718741199933,219.2190756999189,219.718741199933,219.2190756999189,219.718741199933,217.14895669999532,None,219.718741199933,None,2.080000000000002,220.15267839992885,None,220.90393459994812,None,,,,,,,[[0.42]],1.740000000000001,0.7307692307692307,12006,001,2024_Jun_13_1724,MFTM_A_new1021,2021.2.3,60.16336761970307,
,,,,,,,,stim/Instruction_adaptive.png,conditions/adaptive.xlsx,test,0.6,0.6,0.6,-0.6,-0.6,right,R,,,,,0,1,1,1,0,26,26,46,,,,,,,,,,,,,,,,,,,,,,,,,,,,,,,,,,,,,,,,,,,,221.40478059998713,None,left,0,2.2968800000380725,221.9063169999281,224.37594759999774,221.9063169999281,223.8918391999323,221.9063169999281,223.8918391999323,221.9063169999281,223.8918391999323,221.9063169999281,223.8918391999323,221.9063169999281,223.8918391999323,223.85846079990733,224.3590729999123,223.85846079990733,224.3590729999123,223.85846079990733,224.3590729999123,223.85846079990733,224.3590729999123,223.85846079990733,224.3590729999123,223.85846079990733,224.3590729999123,223.85846079990733,224.3590729999123,223.85846079990733,224.3590729999123,221.9063169999281,None,224.3590729999123,224.89457839995157,1.9700000000000015,224.9098432000028,None,225.66173970000818,None,,,,,,,[[0.53]],1.5000000000000009,0.7037037037037037,12006,001,2024_Jun_13_1724,MFTM_A_new1021,2021.2.3,60.16336761970307,
,,,,,,,,stim/Instruction_adaptive.png,conditions/adaptive.xlsx,test,-0.6,-0.6,-0.6,0.6,0.6,left,L,,,,,0,1,1,1,0,27,27,3,,,,,,,,,,,,,,,,,,,,,,,,,,,,,,,,,,,,,,,,,,,,226.16278269991744,None,left,1,1.6046084000263363,226.6627822999144,229.50153309991583,226.6627822999144,228.99953439994715,226.6627822999144,228.99953439994715,226.6627822999144,228.99953439994715,226.6627822999144,228.99953439994715,226.6627822999144,228.99953439994715,228.98287089995574,229.48445919994265,228.98287089995574,229.48445919994265,228.98287089995574,229.48445919994265,228.98287089995574,229.48445919994265,228.98287089995574,229.48445919994265,228.98287089995574,229.48445919994265,228.98287089995574,229.48445919994265,228.98287089995574,229.48445919994265,226.6627822999144,None,229.4669282999821,229.65139039990027,2.330000000000002,229.66735489992425,None,230.4188947000075,None,,,,,,,[[0.17]],1.590000000000001,0.7142857142857143,12006,001,2024_Jun_13_1724,MFTM_A_new1021,2021.2.3,60.16336761970307,
,,,,,,,,stim/Instruction_adaptive.png,conditions/adaptive.xlsx,test,0.6,0.6,0.6,-0.6,-0.6,right,R,,,,,0,1,1,1,0,28,28,38,,,,,,,,,,,,,,,,,,,,,,,,,,,,,,,,,,,,,,,,,,,,230.91883320000488,None,right,1,1.6713397999992594,231.41982790001202,234.12387699994724,231.41982790001202,233.6232002999168,231.41982790001202,233.6232002999168,231.41982790001202,233.6232002999168,231.41982790001202,233.6232002999168,231.41982790001202,233.6232002999168,233.58983409998473,234.09060120000504,233.58983409998473,234.09060120000504,233.58983409998473,234.09060120000504,233.58983409998473,234.09060120000504,233.58983409998473,234.09060120000504,233.58983409998473,234.09060120000504,233.58983409998473,234.09060120000504,233.58983409998473,234.09060120000504,231.41982790001202,None,234.09060120000504,234.4075277999509,2.1900000000000017,234.42445960000623,None,235.1766877999762,None,,,,,,,[[0.31]],1.670000000000001,0.7241379310344828,12006,001,2024_Jun_13_1724,MFTM_A_new1021,2021.2.3,60.16336761970307,
,,,,,,,,stim/Instruction_adaptive.png,conditions/adaptive.xlsx,test,-0.6,-0.6,-0.6,0.6,0.6,left,L,,,,,0,1,1,1,0,29,29,85,,,,,,,,,,,,,,,,,,,,,,,,,,,,,,,,,,,,,,,,,,,,235.6769788999809,None,right,0,2.586651199962944,236.17711249995045,238.7480871999869,236.17711249995045,238.24720179999713,236.17711249995045,238.24720179999713,236.17711249995045,238.24720179999713,236.17711249995045,238.24720179999713,236.17711249995045,238.24720179999713,238.23014319990762,238.7308447000105,238.23014319990762,238.7308447000105,238.23014319990762,238.7308447000105,238.23014319990762,238.7308447000105,238.23014319990762,238.7308447000105,238.23014319990762,238.7308447000105,238.23014319990762,238.7308447000105,238.23014319990762,238.7308447000105,236.17711249995045,None,238.7308447000105,239.16474129993003,2.0700000000000016,239.18135480000637,None,239.93368079990614,None,,,,,,,[[0.43]],1.4400000000000008,0.7,12006,001,2024_Jun_13_1724,MFTM_A_new1021,2021.2.3,60.16336761970307,
,,,,,,,,stim/Instruction_adaptive.png,conditions/adaptive.xlsx,test,0.6,0.6,0.6,-0.6,-0.6,right,R,,,,,0,1,1,1,0,30,30,62,,,,,,,,,,,,,,,,,,,,,,,,,,,,,,,,,,,,,,,,,,,,240.4337905999273,None,right,1,0.9176717998925596,240.93446729995776,243.8556420999812,240.93446729995776,243.3558500999352,240.93446729995776,243.3558500999352,240.93446729995776,243.3558500999352,240.93446729995776,243.3558500999352,240.93446729995776,243.3558500999352,243.33860999997705,243.83949149993714,243.33860999997705,243.83949149993714,243.33860999997705,243.83949149993714,243.33860999997705,243.83949149993714,243.33860999997705,243.83949149993714,243.33860999997705,243.83949149993714,243.33860999997705,243.83949149993714,243.33860999997705,243.83949149993714,240.93446729995776,None,243.83949149993714,243.92233380000107,2.4200000000000017,243.9385288999183,None,244.69061209994834,None,,,,,,,[[0.08]],1.530000000000001,0.7096774193548387,12006,001,2024_Jun_13_1724,MFTM_A_new1021,2021.2.3,60.16336761970307,
,,,,,,,,stim/Instruction_adaptive.png,conditions/adaptive.xlsx,test,-0.6,-0.6,-0.6,0.6,0.6,left,L,,,,,0,1,1,1,0,31,31,27,,,,,,,,,,,,,,,,,,,,,,,,,,,,,,,,,,,,,,,,,,,,245.19175100000575,None,left,1,2.0170268999645486,245.6913685000036,248.47895819996484,245.6913685000036,247.97896929993294,245.6913685000036,247.97896929993294,245.6913685000036,247.97896929993294,245.6913685000036,247.97896929993294,245.6913685000036,247.97896929993294,247.96159139997326,248.46215199993458,247.96159139997326,248.46215199993458,247.96159139997326,248.46215199993458,247.96159139997326,248.46215199993458,247.96159139997326,248.46215199993458,247.96159139997326,248.46215199993458,247.96159139997326,248.46215199993458,247.96159139997326,248.46215199993458,245.6913685000036,None,248.46215199993458,None,2.280000000000002,248.69589450000785,None,249.44699719990604,None,,,,,,,[[0.22]],1.600000000000001,0.71875,12006,001,2024_Jun_13_1724,MFTM_A_new1021,2021.2.3,60.16336761970307,
,,,,,,,,stim/Instruction_adaptive.png,conditions/adaptive.xlsx,test,0.6,0.6,0.6,-0.6,-0.6,right,R,,,,,0,1,1,1,0,32,32,98,,,,,,,,,,,,,,,,,,,,,,,,,,,,,,,,,,,,,,,,,,,,249.94787299993914,None,left,0,2.843970299931243,250.448450799915,253.12000799993984,250.448450799915,252.61969580000732,250.448450799915,252.61969580000732,250.448450799915,252.61969580000732,250.448450799915,252.61969580000732,250.448450799915,252.61969580000732,252.60180299996864,253.10262589994818,252.60180299996864,253.10262589994818,252.60180299996864,253.10262589994818,252.60180299996864,253.10262589994818,252.60180299996864,253.10262589994818,252.60180299996864,253.10262589994818,252.60180299996864,253.10262589994818,252.60180299996864,253.10262589994818,250.448450799915,None,253.10262589994818,253.43719219998457,2.1700000000000017,253.4526227999013,None,254.204059499898,None,,,,,,,[[0.33]],1.3900000000000008,0.696969696969697,12006,001,2024_Jun_13_1724,MFTM_A_new1021,2021.2.3,60.16336761970307,
,,,,,,,,stim/Instruction_adaptive.png,conditions/adaptive.xlsx,test,0.6,0.6,0.6,-0.6,-0.6,right,R,,,,,0,1,1,1,0,33,33,94,,,,,,,,,,,,,,,,,,,,,,,,,,,,,,,,,,,,,,,,,,,,254.70578979991842,None,right,1,2.1425299999536946,255.2058107999619,None,255.2058107999619,257.726239599986,255.2058107999619,257.726239599986,255.2058107999619,257.726239599986,255.2058107999619,257.726239599986,255.2058107999619,257.726239599986,257.6927732999902,258.19357189990114,257.6927732999902,258.19357189990114,257.6927732999902,258.19357189990114,257.6927732999902,258.19357189990114,257.6927732999902,258.19357189990114,257.6927732999902,258.19357189990114,257.6927732999902,258.19357189990114,257.6927732999902,258.19357189990114,255.2058107999619,None,258.19357189990114,258.19357189990114,2.510000000000002,258.22688370000105,None,258.97778789990116,None,,,,,,,0,1.4700000000000009,0.7058823529411765,12006,001,2024_Jun_13_1724,MFTM_A_new1021,2021.2.3,60.16336761970307,
,,,,,,,,stim/Instruction_adaptive.png,conditions/adaptive.xlsx,test,-0.6,-0.6,-0.6,0.6,0.6,left,L,,,,,0,1,1,1,0,34,34,31,,,,,,,,,,,,,,,,,,,,,,,,,,,,,,,,,,,,,,,,,,,,259.47892659995705,None,left,1,1.200988999917172,259.9795559999766,262.85074659995735,259.9795559999766,262.3499842999736,259.9795559999766,262.3499842999736,259.9795559999766,262.3499842999736,259.9795559999766,262.3499842999736,259.9795559999766,262.3499842999736,262.3335150999483,262.83380049990956,262.3335150999483,262.83380049990956,262.3335150999483,262.83380049990956,262.3335150999483,262.83380049990956,262.3335150999483,262.83380049990956,262.3335150999483,262.83380049990956,262.3335150999483,262.83380049990956,262.3335150999483,262.83380049990956,259.9795559999766,None,262.83380049990956,262.96737779991236,2.370000000000002,262.9853223999962,None,263.73606149991974,None,,,,,,,[[0.13]],1.540000000000001,0.7142857142857143,12006,001,2024_Jun_13_1724,MFTM_A_new1021,2021.2.3,60.16336761970307,
,,,,,,,,stim/Instruction_adaptive.png,conditions/adaptive.xlsx,test,-0.6,-0.6,-0.6,0.6,0.6,left,L,,,,,0,1,1,1,0,35,35,15,,,,,,,,,,,,,,,,,,,,,,,,,,,,,,,,,,,,,,,,,,,,264.23616829991806,None,left,1,2.5714370000641793,264.7370074999053,267.5081444999669,264.7370074999053,267.00687009992544,264.7370074999053,267.00687009992544,264.7370074999053,267.00687009992544,264.7370074999053,267.00687009992544,264.7370074999053,267.00687009992544,266.973610999994,267.4744814999867,266.973610999994,267.4744814999867,266.973610999994,267.4744814999867,266.973610999994,267.4744814999867,266.973610999994,267.4744814999867,266.973610999994,267.4744814999867,266.973610999994,267.4744814999867,266.973610999994,267.4744814999867,264.7370074999053,None,267.4744814999867,267.72450679994654,2.2600000000000016,267.74126189993694,None,268.49304729991127,None,,,,,,,[[0.24]],1.600000000000001,0.7222222222222222,12006,001,2024_Jun_13_1724,MFTM_A_new1021,2021.2.3,60.16336761970307,
,,,,,,,,stim/Instruction_adaptive.png,conditions/adaptive.xlsx,test,-0.6,-0.6,-0.6,0.6,0.6,left,L,,,,,0,1,1,1,0,36,36,79,,,,,,,,,,,,,,,,,,,,,,,,,,,,,,,,,,,,,,,,,,,,268.9932006999152,None,left,1,1.8788618000689894,269.49368700000923,272.1654108999064,269.49368700000923,271.66388869995717,269.49368700000923,271.66388869995717,269.49368700000923,271.66388869995717,269.49368700000923,271.66388869995717,269.49368700000923,271.66388869995717,271.6477927999804,272.15035010001156,271.6477927999804,272.15035010001156,271.6477927999804,272.15035010001156,271.6477927999804,272.15035010001156,271.6477927999804,272.15035010001156,271.6477927999804,272.15035010001156,271.6477927999804,272.15035010001156,271.6477927999804,272.15035010001156,269.49368700000923,None,272.15035010001156,272.4818318999605,2.1700000000000017,272.4985200999072,None,273.25010899989866,None,,,,,,,[[0.33]],1.660000000000001,0.7297297297297297,12006,001,2024_Jun_13_1724,MFTM_A_new1021,2021.2.3,60.16336761970307,
,,,,,,,,stim/Instruction_adaptive.png,conditions/adaptive.xlsx,test,-0.6,-0.6,-0.6,0.6,0.6,left,L,,,,,0,1,1,1,0,37,37,41,,,,,,,,,,,,,,,,,,,,,,,,,,,,,,,,,,,,,,,,,,,,273.7504208999453,None,left,1,1.3288295000093058,274.25179849995766,276.83816809998825,274.25179849995766,276.3376603999641,274.25179849995766,276.3376603999641,274.25179849995766,276.3376603999641,274.25179849995766,276.3376603999641,274.25179849995766,276.3376603999641,276.3210787998978,276.8217167999828,276.3210787998978,276.8217167999828,276.3210787998978,276.8217167999828,276.3210787998978,276.8217167999828,276.3210787998978,276.8217167999828,276.3210787998978,276.8217167999828,276.3210787998978,276.8217167999828,276.3210787998978,276.8217167999828,274.25179849995766,None,276.80505909991916,277.2391160998959,2.080000000000002,277.2555907999631,None,278.0066753999563,None,,,,,,,[[0.42]],1.720000000000001,0.7368421052631579,12006,001,2024_Jun_13_1724,MFTM_A_new1021,2021.2.3,60.16336761970307,
,,,,,,,,stim/Instruction_adaptive.png,conditions/adaptive.xlsx,test,-0.6,-0.6,-0.6,0.6,0.6,left,L,,,,,0,1,1,1,0,38,38,9,,,,,,,,,,,,,,,,,,,,,,,,,,,,,,,,,,,,,,,,,,,,278.5075857999036,None,right,0,0.9609974999912083,279.0119228999829,281.51196099992376,279.0119228999829,281.0114071998978,279.0119228999829,281.0114071998978,279.0119228999829,281.0114071998978,279.0119228999829,281.0114071998978,279.0119228999829,281.0114071998978,280.99452519998886,281.4953619999578,280.99452519998886,281.4953619999578,280.99452519998886,281.4953619999578,280.99452519998886,281.4953619999578,280.99452519998886,281.4953619999578,280.99452519998886,281.4953619999578,280.99452519998886,281.4953619999578,280.99452519998886,281.4953619999578,279.0119228999829,None,281.4953619999578,281.9628419999499,2.0000000000000018,281.979230399942,None,282.7310686999699,None,,,,,,,[0.45384615],1.560000000000001,0.717948717948718,12006,001,2024_Jun_13_1724,MFTM_A_new1021,2021.2.3,60.16336761970307,
,,,,,,,,stim/Instruction_adaptive.png,conditions/adaptive.xlsx,test,0.6,0.6,0.6,-0.6,-0.6,right,R,,,,,0,1,1,1,0,39,39,72,,,,,,,,,,,,,,,,,,,,,,,,,,,,,,,,,,,,,,,,,,,,283.23235989990644,None,left,0,2.9045738999266177,283.73254699993413,286.47026879992336,283.73254699993413,285.96882670000196,283.73254699993413,285.96882670000196,283.73254699993413,285.96882670000196,283.73254699993413,285.96882670000196,283.73254699993413,285.96882670000196,285.93527999997605,286.4360567999538,285.93527999997605,286.4360567999538,285.93527999997605,286.4360567999538,285.93527999997605,286.4360567999538,285.93527999997605,286.4360567999538,285.93527999997605,286.4360567999538,285.93527999997605,286.4360567999538,285.93527999997605,286.4360567999538,283.73254699993413,None,286.4360567999538,286.71995469997637,2.2300000000000018,286.7366710999049,None,287.48824749991763,None,,,,,,,[[0.27]],1.3800000000000008,0.7,12006,001,2024_Jun_13_1724,MFTM_A_new1021,2021.2.3,60.16336761970307,
,,,,,,,,stim/Instruction_adaptive.png,conditions/adaptive.xlsx,test,0.6,0.6,0.6,-0.6,-0.6,right,R,,,,,0,1,1,1,0,40,40,80,,,,,,,,,,,,,,,,,,,,,,,,,,,,,,,,,,,,,,,,,,,,287.9883756999625,None,right,1,1.6433378999354318,288.4898102999432,None,288.4898102999432,291.02644399995916,288.4898102999432,291.02644399995916,288.4898102999432,291.02644399995916,288.4898102999432,291.02644399995916,288.4898102999432,291.02644399995916,290.9935253999429,291.4937953999033,290.9935253999429,291.4937953999033,290.9935253999429,291.4937953999033,290.9935253999429,291.4937953999033,290.9935253999429,291.4937953999033,290.9935253999429,291.4937953999033,290.9935253999429,291.4937953999033,290.9935253999429,291.4937953999033,288.4898102999432,None,291.4937953999033,291.4937953999033,2.530000000000002,291.52710319997277,None,292.27854309999384,None,,,,,,,0,1.4400000000000008,0.7073170731707317,12006,001,2024_Jun_13_1724,MFTM_A_new1021,2021.2.3,60.16336761970307,
,,,,,,,,stim/Instruction_adaptive.png,conditions/adaptive.xlsx,test,-0.6,-0.6,-0.6,0.6,0.6,left,L,,,,,0,1,1,1,0,41,41,5,,,,,,,,,,,,,,,,,,,,,,,,,,,,,,,,,,,,,,,,,,,,292.7802655999549,None,left,1,1.9414790999144316,293.2796091999626,296.2014621999115,293.2796091999626,295.7010905999923,293.2796091999626,295.7010905999923,293.2796091999626,295.7010905999923,293.2796091999626,295.7010905999923,293.2796091999626,295.7010905999923,295.6833998999791,296.1843101999257,295.6833998999791,296.1843101999257,295.6833998999791,296.1843101999257,295.6833998999791,296.1843101999257,295.6833998999791,296.1843101999257,295.6833998999791,296.1843101999257,295.6833998999791,296.1843101999257,295.6833998999791,296.1843101999257,293.2796091999626,None,296.1843101999257,296.26765539997723,2.4200000000000017,296.28450329997577,None,297.03596569993533,None,,,,,,,[[0.08]],1.5000000000000009,0.7142857142857143,12006,001,2024_Jun_13_1724,MFTM_A_new1021,2021.2.3,60.16336761970307,
,,,,,,,,stim/Instruction_adaptive.png,conditions/adaptive.xlsx,test,0.6,0.6,0.6,-0.6,-0.6,right,R,,,,,0,1,1,1,0,42,42,96,,,,,,,,,,,,,,,,,,,,,,,,,,,,,,,,,,,,,,,,,,,,297.53710739989765,None,right,1,1.6632899000542238,298.0379501999123,300.87585989991203,298.0379501999123,300.37473159993533,298.0379501999123,300.37473159993533,298.0379501999123,300.37473159993533,298.0379501999123,300.37473159993533,298.0379501999123,300.37473159993533,300.3581015999662,300.85782949998975,300.3581015999662,300.85782949998975,300.3581015999662,300.85782949998975,300.3581015999662,300.85782949998975,300.3581015999662,300.85782949998975,300.3581015999662,300.85782949998975,300.3581015999662,300.85782949998975,300.3581015999662,300.85782949998975,298.0379501999123,None,300.85782949998975,None,2.330000000000002,301.04167629999574,None,301.7925565999467,None,,,,,,,[[0.17]],1.560000000000001,0.7209302325581395,12006,001,2024_Jun_13_1724,MFTM_A_new1021,2021.2.3,60.16336761970307,
,,,,,,,,stim/Instruction_adaptive.png,conditions/adaptive.xlsx,test,-0.6,-0.6,-0.6,0.6,0.6,left,L,,,,,0,1,1,1,0,43,43,91,,,,,,,,,,,,,,,,,,,,,,,,,,,,,,,,,,,,,,,,,,,,302.293410699931,None,left,1,1.9224038999527693,302.7951170000015,305.53244209999684,302.7951170000015,305.03065480000805,302.7951170000015,305.03065480000805,302.7951170000015,305.03065480000805,302.7951170000015,305.03065480000805,302.7951170000015,305.03065480000805,304.99859809991904,305.4988416999113,304.99859809991904,305.4988416999113,304.99859809991904,305.4988416999113,304.99859809991904,305.4988416999113,304.99859809991904,305.4988416999113,304.99859809991904,305.4988416999113,304.99859809991904,305.4988416999113,304.99859809991904,305.4988416999113,302.7951170000015,None,305.4988416999113,305.7826281999005,2.2300000000000018,305.7985998999793,None,306.5498898999067,None,,,,,,,[[0.27]],1.610000000000001,0.7272727272727273,12006,001,2024_Jun_13_1724,MFTM_A_new1021,2021.2.3,60.16336761970307,
,,,,,,,,stim/Instruction_adaptive.png,conditions/adaptive.xlsx,test,0.6,0.6,0.6,-0.6,-0.6,right,R,,,,,0,1,1,1,0,44,44,22,,,,,,,,,,,,,,,,,,,,,,,,,,,,,,,,,,,,,,,,,,,,307.0514805999119,None,right,1,2.6142256999155506,307.5513714000117,310.22208529990166,307.5513714000117,309.72216429992113,307.5513714000117,309.72216429992113,307.5513714000117,309.72216429992113,307.5513714000117,309.72216429992113,307.5513714000117,309.72216429992113,309.68788869993296,310.18835309997667,309.68788869993296,310.18835309997667,309.68788869993296,310.18835309997667,309.68788869993296,310.18835309997667,309.68788869993296,310.18835309997667,309.68788869993296,310.18835309997667,309.68788869993296,310.18835309997667,309.68788869993296,310.18835309997667,307.5513714000117,None,310.18835309997667,310.53935079998337,2.160000000000002,310.5560283999657,None,311.30688249995,None,,,,,,,[[0.34]],1.660000000000001,0.7333333333333333,12006,001,2024_Jun_13_1724,MFTM_A_new1021,2021.2.3,60.16336761970307,
,,,,,,,,stim/Instruction_adaptive.png,conditions/adaptive.xlsx,test,0.6,0.6,0.6,-0.6,-0.6,right,R,,,,,0,1,1,1,0,45,45,6,,,,,,,,,,,,,,,,,,,,,,,,,,,,,,,,,,,,,,,,,,,,311.80837350001093,None,right,1,1.1286554000107571,312.30916119995527,314.89566299994476,312.30916119995527,314.39479349995963,312.30916119995527,314.39479349995963,312.30916119995527,314.39479349995963,312.30916119995527,314.39479349995963,312.30916119995527,314.39479349995963,314.37804039998446,314.87908429990057,314.37804039998446,314.87908429990057,314.37804039998446,314.87908429990057,314.37804039998446,314.87908429990057,314.37804039998446,314.87908429990057,314.37804039998446,314.87908429990057,314.37804039998446,314.87908429990057,314.37804039998446,314.87908429990057,312.30916119995527,None,314.86238669999875,315.27956399996765,2.080000000000002,315.3129182999255,None,316.06505069998093,None,,,,,,,[0.41782609],1.700000000000001,0.7391304347826086,12006,001,2024_Jun_13_1724,MFTM_A_new1021,2021.2.3,60.16336761970307,
,,,,,,,,stim/Instruction_adaptive.png,conditions/adaptive.xlsx,test,0.6,0.6,0.6,-0.6,-0.6,right,R,,,,,0,1,1,1,0,46,46,16,,,,,,,,,,,,,,,,,,,,,,,,,,,,,,,,,,,,,,,,,,,,316.5656481999904,None,right,1,0.8119271999457851,317.06595849990845,319.58606619993225,317.06595849990845,319.08611229993403,317.06595849990845,319.08611229993403,317.06595849990845,319.08611229993403,317.06595849990845,319.08611229993403,317.06595849990845,319.08611229993403,319.0688361999346,319.56946789997164,319.0688361999346,319.56946789997164,319.0688361999346,319.56946789997164,319.0688361999346,319.56946789997164,319.0688361999346,319.56946789997164,319.0688361999346,319.56946789997164,319.0688361999346,319.56946789997164,319.0688361999346,319.56946789997164,317.06595849990845,None,319.56946789997164,None,2.0200000000000014,320.00383309996687,None,320.7553442999488,None,,,,,,,[0.41914894],1.750000000000001,0.7446808510638298,12006,001,2024_Jun_13_1724,MFTM_A_new1021,2021.2.3,60.16336761970307,
,,,,,,,,stim/Instruction_adaptive.png,conditions/adaptive.xlsx,test,-0.6,-0.6,-0.6,0.6,0.6,left,L,,,,,0,1,1,1,0,47,47,55,,,,,,,,,,,,,,,,,,,,,,,,,,,,,,,,,,,,,,,,,,,,321.2560316999443,None,left,1,1.9930614000186324,321.7571593999164,324.2269463998964,321.7571593999164,323.7269960999256,321.7571593999164,323.7269960999256,321.7571593999164,323.7269960999256,321.7571593999164,323.7269960999256,321.7571593999164,323.7269960999256,323.6930151999695,324.19359079992864,323.6930151999695,324.19359079992864,323.6930151999695,324.19359079992864,323.6930151999695,324.19359079992864,323.6930151999695,324.19359079992864,323.6930151999695,324.19359079992864,323.6930151999695,324.19359079992864,323.6930151999695,324.19359079992864,321.7571593999164,None,324.19359079992864,324.6270614999812,1.9600000000000015,324.64370339992456,None,325.3951081999112,None,,,,,,,[0.42166667],1.7900000000000011,0.75,12006,001,2024_Jun_13_1724,MFTM_A_new1021,2021.2.3,60.16336761970307,
,,,,,,,,stim/Instruction_adaptive.png,conditions/adaptive.xlsx,test,0.6,0.6,0.6,-0.6,-0.6,right,R,,,,,0,1,1,1,0,48,48,0,,,,,,,,,,,,,,,,,,,,,,,,,,,,,,,,,,,,,,,,,,,,325.89645519992337,None,right,1,1.0015686000697315,326.39633179991506,328.8000913999276,326.39633179991506,328.2994045999367,326.39633179991506,328.2994045999367,326.39633179991506,328.2994045999367,326.39633179991506,328.2994045999367,326.39633179991506,328.2994045999367,328.2828542999923,328.78319210000336,328.2828542999923,328.78319210000336,328.2828542999923,328.78319210000336,328.2828542999923,328.78319210000336,328.2828542999923,328.78319210000336,328.2828542999923,328.78319210000336,328.2828542999923,328.78319210000336,328.2828542999923,328.78319210000336,326.39633179991506,None,328.78319210000336,329.21723449998535,1.9000000000000015,329.2339128999738,None,329.98608509998303,None,,,,,,,[0.42530612],1.8300000000000012,0.7551020408163265,12006,001,2024_Jun_13_1724,MFTM_A_new1021,2021.2.3,60.16336761970307,
,,,,,,,,stim/Instruction_adaptive.png,conditions/adaptive.xlsx,test,0.6,0.6,0.6,-0.6,-0.6,right,R,,,,,0,1,1,1,0,49,49,82,,,,,,,,,,,,,,,,,,,,,,,,,,,,,,,,,,,,,,,,,,,,330.48673519992735,None,right,1,0.6911879999097437,330.98706359998323,333.34000530000776,330.98706359998323,332.8397515999386,330.98706359998323,332.8397515999386,330.98706359998323,332.8397515999386,330.98706359998323,332.8397515999386,330.98706359998323,332.8397515999386,332.8227108999854,333.3247633998981,332.8227108999854,333.3247633998981,332.8227108999854,333.3247633998981,332.8227108999854,333.3247633998981,332.8227108999854,333.3247633998981,332.8227108999854,333.3247633998981,332.8227108999854,333.3247633998981,332.8227108999854,333.3247633998981,330.98706359998323,None,333.3247633998981,333.75816159998067,1.8500000000000014,333.77422649995424,None,334.5252189999446,None,,,,,,,[0.4298],1.8600000000000012,0.76,12006,001,2024_Jun_13_1724,MFTM_A_new1021,2021.2.3,60.16336761970307,
,,,,,,,,stim/Instruction_adaptive.png,conditions/adaptive.xlsx,test,-0.6,-0.6,-0.6,0.6,0.6,left,L,,,,,0,1,1,1,0,50,50,47,,,,,,,,,,,,,,,,,,,,,,,,,,,,,,,,,,,,,,,,,,,,335.02655479998793,None,left,1,2.0385713001014665,335.5276621999219,337.8467645999044,335.5276621999219,337.3473535999656,335.5276621999219,337.3473535999656,335.5276621999219,337.3473535999656,335.5276621999219,337.3473535999656,335.5276621999219,337.3473535999656,337.31281759997364,337.81425069994293,337.31281759997364,337.81425069994293,337.31281759997364,337.81425069994293,337.31281759997364,337.81425069994293,337.31281759997364,337.81425069994293,337.31281759997364,337.81425069994293,337.31281759997364,337.81425069994293,337.31281759997364,337.81425069994293,335.5276621999219,None,337.81425069994293,338.26440649991855,1.8100000000000014,338.28112719999626,None,339.03233650000766,None,,,,,,,[0.43490196],1.9000000000000012,0.7647058823529411,12006,001,2024_Jun_13_1724,MFTM_A_new1021,2021.2.3,60.16336761970307,
,,,,,,,,stim/Instruction_adaptive.png,conditions/adaptive.xlsx,test,-0.6,-0.6,-0.6,0.6,0.6,left,L,,,,,0,1,1,1,0,51,51,67,,,,,,,,,,,,,,,,,,,,,,,,,,,,,,,,,,,,,,,,,,,,339.5338695999235,None,left,1,1.7807946000248194,340.033755499986,342.3043865999207,340.033755499986,341.80335699999705,340.033755499986,341.80335699999705,340.033755499986,341.80335699999705,340.033755499986,341.80335699999705,340.033755499986,341.80335699999705,341.77047339989804,342.2702341999393,341.77047339989804,342.2702341999393,341.77047339989804,342.2702341999393,341.77047339989804,342.2702341999393,341.77047339989804,342.2702341999393,341.77047339989804,342.2702341999393,341.77047339989804,342.2702341999393,341.77047339989804,342.2702341999393,340.033755499986,None,342.2702341999393,342.72101709991693,1.7600000000000013,342.7378468000097,None,343.48995169997215,None,,,,,,,[0.44076923],1.9400000000000013,0.7692307692307693,12006,001,2024_Jun_13_1724,MFTM_A_new1021,2021.2.3,60.16336761970307,
,,,,,,,,stim/Instruction_adaptive.png,conditions/adaptive.xlsx,test,-0.6,-0.6,-0.6,0.6,0.6,left,L,,,,,0,1,1,1,0,52,52,13,,,,,,,,,,,,,,,,,,,,,,,,,,,,,,,,,,,,,,,,,,,,343.9898591999663,None,left,1,2.188522099982947,344.4904779999051,346.7114289999008,344.4904779999051,346.21017079998273,344.4904779999051,346.21017079998273,344.4904779999051,346.21017079998273,344.4904779999051,346.21017079998273,344.4904779999051,346.21017079998273,346.1762732999632,346.67798179993406,346.1762732999632,346.67798179993406,346.1762732999632,346.67798179993406,346.1762732999632,346.67798179993406,346.1762732999632,346.67798179993406,346.1762732999632,346.67798179993406,346.1762732999632,346.67798179993406,346.1762732999632,346.67798179993406,344.4904779999051,None,346.67798179993406,347.1277305999538,1.7100000000000013,347.1621390999062,None,347.9122198999394,None,,,,,,,[0.44735849],1.9700000000000013,0.7735849056603774,12006,001,2024_Jun_13_1724,MFTM_A_new1021,2021.2.3,60.16336761970307,
,,,,,,,,stim/Instruction_adaptive.png,conditions/adaptive.xlsx,test,-0.6,-0.6,-0.6,0.6,0.6,left,L,,,,,0,1,1,1,0,53,53,53,,,,,,,,,,,,,,,,,,,,,,,,,,,,,,,,,,,,,,,,,,,,348.41354959993623,None,left,1,2.2846286999993026,348.9138810998993,351.10034839995205,348.9138810998993,350.6003234999953,348.9138810998993,350.6003234999953,348.9138810998993,350.6003234999953,348.9138810998993,350.6003234999953,348.9138810998993,350.6003234999953,350.58441989996936,351.0835683000041,350.58441989996936,351.0835683000041,350.58441989996936,351.0835683000041,350.58441989996936,351.0835683000041,350.58441989996936,351.0835683000041,350.58441989996936,351.0835683000041,350.58441989996936,351.0835683000041,350.58441989996936,351.0835683000041,348.9138810998993,None,351.0835683000041,None,1.6800000000000013,351.5510394999292,None,352.30267419992015,None,,,,,,,[0.45425926],2.0000000000000013,0.7777777777777778,12006,001,2024_Jun_13_1724,MFTM_A_new1021,2021.2.3,60.16336761970307,
,,,,,,,,stim/Instruction_adaptive.png,conditions/adaptive.xlsx,test,-0.6,-0.6,-0.6,0.6,0.6,left,L,,,,,0,1,1,1,0,54,54,37,,,,,,,,,,,,,,,,,,,,,,,,,,,,,,,,,,,,,,,,,,,,352.80289329995867,None,left,1,1.4226037999615073,353.3043024999788,355.4572225000011,353.3043024999788,354.9560969999293,353.3043024999788,354.9560969999293,353.3043024999788,354.9560969999293,353.3043024999788,354.9560969999293,353.3043024999788,354.9560969999293,354.92262929992285,355.4244168999139,354.92262929992285,355.4244168999139,354.92262929992285,355.4244168999139,354.92262929992285,355.4244168999139,354.92262929992285,355.4244168999139,354.92262929992285,355.4244168999139,354.92262929992285,355.4244168999139,354.92262929992285,355.4244168999139,353.3043024999788,None,355.4244168999139,355.8910308999475,1.6400000000000012,355.9082892999286,None,356.6589833999751,None,,,,,,,[0.46163636],2.030000000000001,0.7818181818181819,12006,001,2024_Jun_13_1724,MFTM_A_new1021,2021.2.3,60.16336761970307,
,,,,,,,,stim/Instruction_adaptive.png,conditions/adaptive.xlsx,test,-0.6,-0.6,-0.6,0.6,0.6,left,L,,,,,0,1,1,1,0,55,55,71,,,,,,,,,,,,,,,,,,,,,,,,,,,,,,,,,,,,,,,,,,,,357.16017599997576,None,left,1,1.8509560999227688,357.660477599944,359.78007109998725,357.660477599944,359.27934119990095,357.660477599944,359.27934119990095,357.660477599944,359.27934119990095,357.660477599944,359.27934119990095,357.660477599944,359.27934119990095,359.24661289993674,359.7466274999315,359.24661289993674,359.7466274999315,359.24661289993674,359.7466274999315,359.24661289993674,359.7466274999315,359.24661289993674,359.7466274999315,359.24661289993674,359.7466274999315,359.24661289993674,359.7466274999315,359.24661289993674,359.7466274999315,357.660477599944,None,359.7466274999315,360.23070509999525,1.6100000000000012,360.2474799999036,None,360.998700199998,None,,,,,,,[0.46928571],2.0600000000000014,0.7857142857142857,12006,001,2024_Jun_13_1724,MFTM_A_new1021,2021.2.3,60.16336761970307,
,,,,,,,,stim/Instruction_adaptive.png,conditions/adaptive.xlsx,test,-0.6,-0.6,-0.6,0.6,0.6,left,L,,,,,0,1,1,1,0,56,56,1,,,,,,,,,,,,,,,,,,,,,,,,,,,,,,,,,,,,,,,,,,,,361.49989069998264,None,left,1,1.2303371999878436,362.0007364999037,364.08626639994327,362.0007364999037,363.58581109996885,362.0007364999037,363.58581109996885,362.0007364999037,363.58581109996885,362.0007364999037,363.58581109996885,362.0007364999037,363.58581109996885,363.56906579993665,364.06994710001163,363.56906579993665,364.06994710001163,363.56906579993665,364.06994710001163,363.56906579993665,364.06994710001163,363.56906579993665,364.06994710001163,363.56906579993665,364.06994710001163,363.56906579993665,364.06994710001163,363.56906579993665,364.06994710001163,362.0007364999037,None,364.05319549993146,364.53729079989716,1.5800000000000012,364.5705931999255,None,365.32177699997555,None,,,,,,,[0.47719298],2.0900000000000016,0.7894736842105263,12006,001,2024_Jun_13_1724,MFTM_A_new1021,2021.2.3,60.16336761970307,
,,,,,,,,stim/Instruction_adaptive.png,conditions/adaptive.xlsx,test,-0.6,-0.6,-0.6,0.6,0.6,left,L,,,,,0,1,1,1,0,57,57,89,,,,,,,,,,,,,,,,,,,,,,,,,,,,,,,,,,,,,,,,,,,,365.82336269994266,None,left,1,1.3236149000003934,366.32347679999657,368.3765722999815,366.32347679999657,367.8756835999666,366.32347679999657,367.8756835999666,366.32347679999657,367.8756835999666,366.32347679999657,367.8756835999666,366.32347679999657,367.8756835999666,367.85902499989606,368.3596838999074,367.85902499989606,368.3596838999074,367.85902499989606,368.3596838999074,367.85902499989606,368.3596838999074,367.85902499989606,368.3596838999074,367.85902499989606,368.3596838999074,367.85902499989606,368.3596838999074,367.85902499989606,368.3596838999074,366.32347679999657,None,368.3596838999074,368.84379640000407,1.5500000000000012,368.86031639995053,None,369.612134099938,None,,,,,,,[0.48534483],2.1200000000000014,0.7931034482758621,12006,001,2024_Jun_13_1724,MFTM_A_new1021,2021.2.3,60.16336761970307,
,,,,,,,,stim/Instruction_adaptive.png,conditions/adaptive.xlsx,test,0.6,0.6,0.6,-0.6,-0.6,right,R,,,,,0,1,1,1,0,58,58,48,,,,,,,,,,,,,,,,,,,,,,,,,,,,,,,,,,,,,,,,,,,,370.11238700000104,None,left,0,1.7294355001067743,370.61372719996143,372.63320819998626,370.61372719996143,372.1329415999353,370.61372719996143,372.1329415999353,370.61372719996143,372.1329415999353,370.61372719996143,372.1329415999353,370.61372719996143,372.1329415999353,372.0987162999809,372.6001661999617,372.0987162999809,372.6001661999617,372.0987162999809,372.6001661999617,372.0987162999809,372.6001661999617,372.0987162999809,372.6001661999617,372.0987162999809,372.6001661999617,372.0987162999809,372.6001661999617,372.0987162999809,372.6001661999617,370.61372719996143,None,372.6001661999617,373.10021029994823,1.5100000000000011,373.116891499958,None,373.86801909992937,None,,,,,,,[0.49389831],2.0400000000000014,0.7796610169491526,12006,001,2024_Jun_13_1724,MFTM_A_new1021,2021.2.3,60.16336761970307,
,,,,,,,,stim/Instruction_adaptive.png,conditions/adaptive.xlsx,test,-0.6,-0.6,-0.6,0.6,0.6,left,L,,,,,0,1,1,1,0,59,59,77,,,,,,,,,,,,,,,,,,,,,,,,,,,,,,,,,,,,,,,,,,,,374.3687610999914,None,right,0,1.8730006000259891,374.8702380999457,376.9737381999148,374.8702380999457,376.47204469994176,374.8702380999457,376.47204469994176,374.8702380999457,376.47204469994176,374.8702380999457,376.47204469994176,374.8702380999457,376.47204469994176,376.4559810999781,376.95694549998734,376.4559810999781,376.95694549998734,376.4559810999781,376.95694549998734,376.4559810999781,376.95694549998734,376.4559810999781,376.95694549998734,376.4559810999781,376.95694549998734,376.4559810999781,376.95694549998734,376.4559810999781,376.95694549998734,374.8702380999457,None,376.95694549998734,377.457359299995,1.6000000000000012,377.473307200009,None,378.2255974999862,None,,,,,,,[0.50066667],1.9500000000000013,0.7666666666666667,12006,001,2024_Jun_13_1724,MFTM_A_new1021,2021.2.3,60.16336761970307,
,,,,,,,,stim/Instruction_adaptive.png,conditions/adaptive.xlsx,test,0.6,0.6,0.6,-0.6,-0.6,right,R,,,,,0,1,1,1,0,60,60,50,,,,,,,,,,,,,,,,,,,,,,,,,,,,,,,,,,,,,,,,,,,,378.7259585999418,None,left,0,2.973474200000055,379.2260022999253,381.4300390999997,379.2260022999253,380.92929879995063,379.2260022999253,380.92929879995063,379.2260022999253,380.92929879995063,379.2260022999253,380.92929879995063,379.2260022999253,380.92929879995063,380.9119830999989,381.41359979996923,380.9119830999989,381.41359979996923,380.9119830999989,381.41359979996923,380.9119830999989,381.41359979996923,380.9119830999989,381.41359979996923,380.9119830999989,381.41359979996923,380.9119830999989,381.41359979996923,380.9119830999989,381.41359979996923,379.2260022999253,None,381.41359979996923,382.2311979999067,1.7000000000000013,382.24669049994554,None,382.9993901998969,None,,,,,,,[0.50557377],1.8600000000000012,0.7540983606557377,12006,001,2024_Jun_13_1724,MFTM_A_new1021,2021.2.3,60.16336761970307,
,,,,,,,,stim/Instruction_adaptive.png,conditions/adaptive.xlsx,test,0.6,0.6,0.6,-0.6,-0.6,right,R,,,,,0,1,1,1,0,61,61,2,,,,,,,,,,,,,,,,,,,,,,,,,,,,,,,,,,,,,,,,,,,,383.4998046999099,None,right,1,1.8394907999318093,384.0000573999714,386.32007199991494,384.0000573999714,385.82035499997437,384.0000573999714,385.82035499997437,384.0000573999714,385.82035499997437,384.0000573999714,385.82035499997437,384.0000573999714,385.82035499997437,385.7870549999643,386.2879450999899,385.7870549999643,386.2879450999899,385.7870549999643,386.2879450999899,385.7870549999643,386.2879450999899,385.7870549999643,386.2879450999899,385.7870549999643,386.2879450999899,385.7870549999643,386.2879450999899,385.7870549999643,386.2879450999899,384.0000573999714,None,386.30381029995624,None,1.8100000000000014,386.82082959997933,None,387.5718308999203,None,,,,,,,[0.50854839],1.8900000000000012,0.7580645161290323,12006,001,2024_Jun_13_1724,MFTM_A_new1021,2021.2.3,60.16336761970307,
,,,,,,,,stim/Instruction_adaptive.png,conditions/adaptive.xlsx,test,-0.6,-0.6,-0.6,0.6,0.6,left,L,,,,,0,1,1,1,0,62,62,7,,,,,,,,,,,,,,,,,,,,,,,,,,,,,,,,,,,,,,,,,,,,388.07272989989724,None,left,1,2.586661599925719,388.57346749992575,390.86090189998504,388.57346749992575,390.3606960999314,388.57346749992575,390.3606960999314,388.57346749992575,390.3606960999314,388.57346749992575,390.3606960999314,388.57346749992575,390.3606960999314,390.34396919992287,390.8448854999151,390.34396919992287,390.8448854999151,390.34396919992287,390.8448854999151,390.34396919992287,390.8448854999151,390.34396919992287,390.8448854999151,390.34396919992287,390.8448854999151,390.34396919992287,390.8448854999151,390.34396919992287,390.8448854999151,388.57346749992575,None,390.8448854999151,391.36161259992514,1.7800000000000014,391.37860629998613,None,392.1298792999005,None,,,,,,,[0.51190476],1.9200000000000013,0.7619047619047619,12006,001,2024_Jun_13_1724,MFTM_A_new1021,2021.2.3,60.16336761970307,
,,,,,,,,stim/Instruction_adaptive.png,conditions/adaptive.xlsx,test,0.6,0.6,0.6,-0.6,-0.6,right,R,,,,,0,1,1,1,0,63,63,58,,,,,,,,,,,,,,,,,,,,,,,,,,,,,,,,,,,,,,,,,,,,392.6301762999501,None,right,1,1.6698726000031456,393.1303966999985,395.38415999989957,393.1303966999985,394.88388599990867,393.1303966999985,394.88388599990867,393.1303966999985,394.88388599990867,393.1303966999985,394.88388599990867,393.1303966999985,394.88388599990867,394.8497503999388,395.35119419998955,394.8497503999388,395.35119419998955,394.8497503999388,395.35119419998955,394.8497503999388,395.35119419998955,394.8497503999388,395.35119419998955,394.8497503999388,395.35119419998955,394.8497503999388,395.35119419998955,394.8497503999388,395.35119419998955,393.1303966999985,None,395.35119419998955,395.868907499942,1.7400000000000013,395.88436989998445,None,396.6356562000001,None,,,,,,,[0.51578125],1.9500000000000013,0.765625,12006,001,2024_Jun_13_1724,MFTM_A_new1021,2021.2.3,60.16336761970307,
,,,,,,,,stim/Instruction_adaptive.png,conditions/adaptive.xlsx,test,0.6,0.6,0.6,-0.6,-0.6,right,R,,,,,0,1,1,1,0,64,64,54,,,,,,,,,,,,,,,,,,,,,,,,,,,,,,,,,,,,,,,,,,,,397.1373387000058,None,left,0,2.0274004999082536,397.63712249998935,399.84054239990655,397.63712249998935,399.33955619996414,397.63712249998935,399.33955619996414,397.63712249998935,399.33955619996414,397.63712249998935,399.33955619996414,397.63712249998935,399.33955619996414,399.3230627999874,399.82391689997166,399.3230627999874,399.82391689997166,399.3230627999874,399.82391689997166,399.3230627999874,399.82391689997166,399.3230627999874,399.82391689997166,399.3230627999874,399.82391689997166,399.3230627999874,399.82391689997166,399.3230627999874,399.82391689997166,397.63712249998935,None,399.82391689997166,None,1.7000000000000013,400.3577542999992,None,401.1092226000037,None,,,,,,,[0.52015385],1.8700000000000012,0.7538461538461538,12006,001,2024_Jun_13_1724,MFTM_A_new1021,2021.2.3,60.16336761970307,
,,,,,,,,stim/Instruction_adaptive.png,conditions/adaptive.xlsx,test,-0.6,-0.6,-0.6,0.6,0.6,left,L,,,,,0,1,1,1,0,65,65,69,,,,,,,,,,,,,,,,,,,,,,,,,,,,,,,,,,,,,,,,,,,,401.60991249990184,None,left,1,1.5132565000094473,402.11079740000423,404.4140124999685,402.11079740000423,403.91440359991975,402.11079740000423,403.91440359991975,402.11079740000423,403.91440359991975,402.11079740000423,403.91440359991975,402.11079740000423,403.91440359991975,403.8973929999629,404.39749919995666,403.8973929999629,404.39749919995666,403.8973929999629,404.39749919995666,403.8973929999629,404.39749919995666,403.8973929999629,404.39749919995666,403.8973929999629,404.39749919995666,403.8973929999629,404.39749919995666,403.8973929999629,404.39749919995666,402.11079740000423,None,404.39749919995666,404.9314539999468,1.8000000000000014,404.9481248999946,None,405.6999418999767,None,,,,,,,[0.52287879],1.9000000000000012,0.7575757575757576,12006,001,2024_Jun_13_1724,MFTM_A_new1021,2021.2.3,60.16336761970307,
,,,,,,,,stim/Instruction_adaptive.png,conditions/adaptive.xlsx,test,-0.6,-0.6,-0.6,0.6,0.6,left,L,,,,,0,1,1,1,0,66,66,29,,,,,,,,,,,,,,,,,,,,,,,,,,,,,,,,,,,,,,,,,,,,406.2001553999726,None,right,0,1.2684718000236899,406.7010317000095,408.9709673000034,406.7010317000095,408.47009699989576,406.7010317000095,408.47009699989576,406.7010317000095,408.47009699989576,406.7010317000095,408.47009699989576,406.7010317000095,408.47009699989576,408.43681139999535,408.9375716999639,408.43681139999535,408.9375716999639,408.43681139999535,408.9375716999639,408.43681139999535,408.9375716999639,408.43681139999535,408.9375716999639,408.43681139999535,408.9375716999639,408.43681139999535,408.9375716999639,408.43681139999535,408.9375716999639,406.7010317000095,None,408.9375716999639,409.4724440999562,1.7600000000000013,409.4882798999315,None,410.2401450999314,None,,,,,,,[0.5261194],1.8100000000000012,0.746268656716418,12006,001,2024_Jun_13_1724,MFTM_A_new1021,2021.2.3,60.16336761970307,
,,,,,,,,stim/Instruction_adaptive.png,conditions/adaptive.xlsx,test,0.6,0.6,0.6,-0.6,-0.6,right,R,,,,,0,1,1,1,0,67,67,44,,,,,,,,,,,,,,,,,,,,,,,,,,,,,,,,,,,,,,,,,,,,410.7403830999974,None,right,1,2.079237599973567,411.24087739991955,413.6285564999562,411.24087739991955,413.1284432999091,411.24087739991955,413.1284432999091,411.24087739991955,413.1284432999091,411.24087739991955,413.1284432999091,411.24087739991955,413.1284432999091,413.11090450000484,413.6125019999454,413.11090450000484,413.6125019999454,413.11090450000484,413.6125019999454,413.11090450000484,413.6125019999454,413.11090450000484,413.6125019999454,413.11090450000484,413.6125019999454,413.11090450000484,413.6125019999454,413.11090450000484,413.6125019999454,411.24087739991955,None,413.6125019999454,414.14563869999256,1.8800000000000014,414.1618435999844,None,414.913991099922,None,,,,,,,[0.5275],1.8400000000000012,0.75,12006,001,2024_Jun_13_1724,MFTM_A_new1021,2021.2.3,60.16336761970307,
,,,,,,,,stim/Instruction_adaptive.png,conditions/adaptive.xlsx,test,-0.6,-0.6,-0.6,0.6,0.6,left,L,,,,,0,1,1,1,0,68,68,83,,,,,,,,,,,,,,,,,,,,,,,,,,,,,,,,,,,,,,,,,,,,415.4139905999182,None,left,1,1.750069300062023,415.91473660001066,418.26828019996174,415.91473660001066,417.7675591999432,415.91473660001066,417.7675591999432,415.91473660001066,417.7675591999432,415.91473660001066,417.7675591999432,415.91473660001066,417.7675591999432,417.73410339991096,418.2347780999262,417.73410339991096,418.2347780999262,417.73410339991096,418.2347780999262,417.73410339991096,418.2347780999262,417.73410339991096,418.2347780999262,417.73410339991096,418.2347780999262,417.73410339991096,418.2347780999262,417.73410339991096,418.2347780999262,415.91473660001066,None,418.2347780999262,418.7712838998996,1.8400000000000014,418.7856085000094,None,419.53674289991613,None,,,,,,,[0.52942029],1.8700000000000012,0.7536231884057971,12006,001,2024_Jun_13_1724,MFTM_A_new1021,2021.2.3,60.16336761970307,
,,,,,,,,stim/Instruction_adaptive.png,conditions/adaptive.xlsx,test,0.6,0.6,0.6,-0.6,-0.6,right,R,,,,,0,1,1,1,0,69,69,4,,,,,,,,,,,,,,,,,,,,,,,,,,,,,,,,,,,,,,,,,,,,420.0375098999357,None,right,1,1.3258896000916138,420.53849879989866,422.84191799990367,420.53849879989866,422.341491799918,420.53849879989866,422.341491799918,420.53849879989866,422.341491799918,420.53849879989866,422.341491799918,420.53849879989866,422.341491799918,422.324415299925,422.82512339996174,422.324415299925,422.82512339996174,422.324415299925,422.82512339996174,422.324415299925,422.82512339996174,422.324415299925,422.82512339996174,422.324415299925,422.82512339996174,422.324415299925,422.82512339996174,422.324415299925,422.82512339996174,420.53849879989866,None,422.82512339996174,423.35948839993216,1.8000000000000014,423.3757520999061,None,424.12732969992794,None,,,,,,,[0.53185714],1.9000000000000012,0.7571428571428571,12006,001,2024_Jun_13_1724,MFTM_A_new1021,2021.2.3,60.16336761970307,
,,,,,,,,stim/Instruction_adaptive.png,conditions/adaptive.xlsx,test,-0.6,-0.6,-0.6,0.6,0.6,left,L,,,,,0,1,1,1,0,70,70,93,,,,,,,,,,,,,,,,,,,,,,,,,,,,,,,,,,,,,,,,,,,,424.6286855000071,None,left,1,1.5442399999592453,425.1286090000067,427.398664599983,425.1286090000067,426.8994281999767,425.1286090000067,426.8994281999767,425.1286090000067,426.8994281999767,425.1286090000067,426.8994281999767,425.1286090000067,426.8994281999767,426.86463139997795,427.36636639991775,426.86463139997795,427.36636639991775,426.86463139997795,427.36636639991775,426.86463139997795,427.36636639991775,426.86463139997795,427.36636639991775,426.86463139997795,427.36636639991775,426.86463139997795,427.36636639991775,426.86463139997795,427.36636639991775,425.1286090000067,None,427.36636639991775,427.900536299916,1.7600000000000013,427.9328146999469,None,428.6839422999183,None,,,,,,,[0.53478873],1.9200000000000013,0.7605633802816901,12006,001,2024_Jun_13_1724,MFTM_A_new1021,2021.2.3,60.16336761970307,
,,,,,,,,stim/Instruction_adaptive.png,conditions/adaptive.xlsx,test,-0.6,-0.6,-0.6,0.6,0.6,left,L,,,,,0,1,1,1,0,71,71,61,,,,,,,,,,,,,,,,,,,,,,,,,,,,,,,,,,,,,,,,,,,,429.1854311999632,None,left,1,1.3793525999644771,429.68559739994816,431.9397312999936,429.68559739994816,431.4391252999194,429.68559739994816,431.4391252999194,429.68559739994816,431.4391252999194,429.68559739994816,431.4391252999194,429.68559739994816,431.4391252999194,431.4045022999635,431.9055425999686,431.4045022999635,431.9055425999686,431.4045022999635,431.9055425999686,431.4045022999635,431.9055425999686,431.4045022999635,431.9055425999686,431.4045022999635,431.9055425999686,431.4045022999635,431.9055425999686,431.4045022999635,431.9055425999686,429.68559739994816,None,431.9055425999686,432.4569713999517,1.7400000000000013,432.47308559995145,None,433.22480169998016,None,,,,,,,[0.53791667],1.9500000000000013,0.7638888888888888,12006,001,2024_Jun_13_1724,MFTM_A_new1021,2021.2.3,60.16336761970307,
,,,,,,,,stim/Instruction_adaptive.png,conditions/adaptive.xlsx,test,0.6,0.6,0.6,-0.6,-0.6,right,R,,,,,0,1,1,1,0,72,72,32,,,,,,,,,,,,,,,,,,,,,,,,,,,,,,,,,,,,,,,,,,,,433.72496209992096,None,right,1,1.3114485999103636,434.2255366999889,436.42902599996887,434.2255366999889,435.9282263999339,434.2255366999889,435.9282263999339,434.2255366999889,435.9282263999339,434.2255366999889,435.9282263999339,434.2255366999889,435.9282263999339,435.91148729994893,436.41232779994607,435.91148729994893,436.41232779994607,435.91148729994893,436.41232779994607,435.91148729994893,436.41232779994607,435.91148729994893,436.41232779994607,435.91148729994893,436.41232779994607,435.91148729994893,436.41232779994607,435.91148729994893,436.41232779994607,434.2255366999889,None,436.41232779994607,436.96431219996884,1.7000000000000013,436.9797369999578,None,437.7318402999081,None,,,,,,,[0.54150685],1.9800000000000013,0.7671232876712328,12006,001,2024_Jun_13_1724,MFTM_A_new1021,2021.2.3,60.16336761970307,
,,,,,,,,stim/Instruction_adaptive.png,conditions/adaptive.xlsx,test,-0.6,-0.6,-0.6,0.6,0.6,left,L,,,,,0,1,1,1,0,73,73,57,,,,,,,,,,,,,,,,,,,,,,,,,,,,,,,,,,,,,,,,,,,,438.2322016999824,None,left,1,1.5405238999519497,438.7323230999755,440.90335159993265,438.7323230999755,440.4021429999266,438.7323230999755,440.4021429999266,438.7323230999755,440.4021429999266,438.7323230999755,440.4021429999266,438.7323230999755,440.4021429999266,440.3855913999723,440.88680779992137,440.3855913999723,440.88680779992137,440.3855913999723,440.88680779992137,440.3855913999723,440.88680779992137,440.3855913999723,440.88680779992137,440.3855913999723,440.88680779992137,440.3855913999723,440.88680779992137,440.3855913999723,440.88680779992137,438.7323230999755,None,440.88680779992137,441.4370552999899,1.6700000000000013,441.45413420000114,None,442.2047060999321,None,,,,,,,[0.54540541],2.0000000000000013,0.7702702702702703,12006,001,2024_Jun_13_1724,MFTM_A_new1021,2021.2.3,60.16336761970307,
,,,,,,,,stim/Instruction_adaptive.png,conditions/adaptive.xlsx,test,-0.6,-0.6,-0.6,0.6,0.6,left,L,,,,,0,1,1,1,0,74,74,99,,,,,,,,,,,,,,,,,,,,,,,,,,,,,,,,,,,,,,,,,,,,442.70597809995525,None,left,1,1.6110520999645814,443.2059245998971,445.3599523999728,443.2059245998971,444.8598810000112,443.2059245998971,444.8598810000112,443.2059245998971,444.8598810000112,443.2059245998971,444.8598810000112,443.2059245998971,444.8598810000112,444.8250018999679,445.3255681999726,444.8250018999679,445.3255681999726,444.8250018999679,445.3255681999726,444.8250018999679,445.3255681999726,444.8250018999679,445.3255681999726,444.8250018999679,445.3255681999726,444.8250018999679,445.3255681999726,444.8250018999679,445.3255681999726,443.2059245998971,None,445.3255681999726,445.8773750999244,1.6400000000000012,445.90999600000214,None,446.66106499999296,None,,,,,,,[0.5496],2.0200000000000014,0.7733333333333333,12006,001,2024_Jun_13_1724,MFTM_A_new1021,2021.2.3,60.16336761970307,
,,,,,,,,stim/Instruction_adaptive.png,conditions/adaptive.xlsx,test,0.6,0.6,0.6,-0.6,-0.6,right,R,,,,,0,1,1,1,0,75,75,92,,,,,,,,,,,,,,,,,,,,,,,,,,,,,,,,,,,,,,,,,,,,447.16182619996835,None,right,1,1.1062051999615505,447.6634219000116,449.78230650001206,447.6634219000116,449.29837129998486,447.6634219000116,449.29837129998486,447.6634219000116,449.29837129998486,447.6634219000116,449.29837129998486,447.6634219000116,449.29837129998486,449.2650694999611,449.76665409991983,449.2650694999611,449.76665409991983,449.2650694999611,449.76665409991983,449.2650694999611,449.76665409991983,449.2650694999611,449.76665409991983,449.2650694999611,449.76665409991983,449.2650694999611,449.76665409991983,449.2650694999611,449.76665409991983,447.6634219000116,None,449.76665409991983,450.3332686999347,1.6200000000000012,450.34999129991047,None,451.10100869997405,None,,,,,,,[0.55394737],2.0500000000000016,0.7763157894736842,12006,001,2024_Jun_13_1724,MFTM_A_new1021,2021.2.3,60.16336761970307,
,,,,,,,,stim/Instruction_adaptive.png,conditions/adaptive.xlsx,test,-0.6,-0.6,-0.6,0.6,0.6,left,L,,,,,0,1,1,1,0,76,76,95,,,,,,,,,,,,,,,,,,,,,,,,,,,,,,,,,,,,,,,,,,,,451.60279359994456,None,left,1,1.5535394999897107,452.10378070001025,454.20586300001014,452.10378070001025,453.7052446999587,452.10378070001025,453.7052446999587,452.10378070001025,453.7052446999587,452.10378070001025,453.7052446999587,452.10378070001025,453.7052446999587,453.6718063999433,454.17300209996756,453.6718063999433,454.17300209996756,453.6718063999433,454.17300209996756,453.6718063999433,454.17300209996756,453.6718063999433,454.17300209996756,453.6718063999433,454.17300209996756,453.6718063999433,454.17300209996756,453.6718063999433,454.17300209996756,452.10378070001025,None,454.17300209996756,454.73987099993974,1.5900000000000012,454.75674310000613,None,455.5077570999274,None,,,,,,,[0.55857143],2.070000000000001,0.7792207792207793,12006,001,2024_Jun_13_1724,MFTM_A_new1021,2021.2.3,60.16336761970307,
,,,,,,,,stim/Instruction_adaptive.png,conditions/adaptive.xlsx,test,-0.6,-0.6,-0.6,0.6,0.6,left,L,,,,,0,1,1,1,0,77,77,21,,,,,,,,,,,,,,,,,,,,,,,,,,,,,,,,,,,,,,,,,,,,456.0093829999678,None,None,0,0,456.5102222999558,458.57995069993194,456.5102222999558,458.0792235999834,456.5102222999558,458.0792235999834,456.5102222999558,458.0792235999834,456.5102222999558,458.0792235999834,456.5102222999558,458.0792235999834,458.0627524999436,458.563124599983,458.0627524999436,458.563124599983,458.0627524999436,458.563124599983,458.0627524999436,458.563124599983,458.0627524999436,458.563124599983,458.0627524999436,458.563124599983,458.0627524999436,458.563124599983,458.0627524999436,458.563124599983,456.5102222999558,None,458.563124599983,459.99892059993,1.5700000000000012,460.0147788999602,None,460.7664603999583,None,,,,,,,[[1.43]],2.0000000000000013,0.7692307692307693,12006,001,2024_Jun_13_1724,MFTM_A_new1021,2021.2.3,60.16336761970307,
,,,,,,,,stim/Instruction_adaptive.png,conditions/adaptive.xlsx,test,-0.6,-0.6,-0.6,0.6,0.6,left,L,,,,,0,1,1,1,0,78,78,49,,,,,,,,,,,,,,,,,,,,,,,,,,,,,,,,,,,,,,,,,,,,461.26675319997594,None,left,1,1.4266232999507338,461.76718619989697,463.9208715999266,461.76718619989697,463.4196864999831,461.76718619989697,463.4196864999831,461.76718619989697,463.4196864999831,461.76718619989697,463.4196864999831,461.76718619989697,463.4196864999831,463.3863623999059,463.8868912999751,463.3863623999059,463.8868912999751,463.3863623999059,463.8868912999751,463.3863623999059,463.8868912999751,463.3863623999059,463.8868912999751,463.3863623999059,463.8868912999751,463.3863623999059,463.8868912999751,463.3863623999059,463.8868912999751,461.76718619989697,None,463.8868912999751,464.45455999998376,1.6400000000000012,464.48790209996514,None,465.2394320999738,None,,,,,,,[0.56708861],2.030000000000001,0.7721518987341772,12006,001,2024_Jun_13_1724,MFTM_A_new1021,2021.2.3,60.16336761970307,
,,,,,,,,stim/Instruction_adaptive.png,conditions/adaptive.xlsx,test,0.6,0.6,0.6,-0.6,-0.6,right,R,,,,,0,1,1,1,0,79,79,64,,,,,,,,,,,,,,,,,,,,,,,,,,,,,,,,,,,,,,,,,,,,465.74058350000996,None,right,1,1.3360514999367297,466.24164429993834,468.36057689995505,466.24164429993834,467.8597604999086,466.24164429993834,467.8597604999086,466.24164429993834,467.8597604999086,466.24164429993834,467.8597604999086,466.24164429993834,467.8597604999086,467.826910499949,468.3269242999377,467.826910499949,468.3269242999377,467.826910499949,468.3269242999377,467.826910499949,468.3269242999377,467.826910499949,468.3269242999377,467.826910499949,468.3269242999377,467.826910499949,468.3269242999377,467.826910499949,468.3269242999377,466.24164429993834,None,468.3269242999377,468.9111281000078,1.6100000000000012,468.9280218000058,None,469.6792167999083,None,,,,,,,[0.571125],2.0500000000000016,0.775,12006,001,2024_Jun_13_1724,MFTM_A_new1021,2021.2.3,60.16336761970307,
,,,,,,,,stim/Instruction_adaptive.png,conditions/adaptive.xlsx,test,0.6,0.6,0.6,-0.6,-0.6,right,R,,,,,0,1,1,1,0,80,80,12,,,,,,,,,,,,,,,,,,,,,,,,,,,,,,,,,,,,,,,,,,,,470.18037379998714,None,right,1,1.6011012999806553,470.6811260000104,472.7837645999389,470.6811260000104,472.2830648999661,470.6811260000104,472.2830648999661,470.6811260000104,472.2830648999661,470.6811260000104,472.2830648999661,470.6811260000104,472.2830648999661,472.2496905999724,472.75031079992186,472.2496905999724,472.75031079992186,472.2496905999724,472.75031079992186,472.2496905999724,472.75031079992186,472.2496905999724,472.75031079992186,472.2496905999724,472.75031079992186,472.2496905999724,472.75031079992186,472.2496905999724,472.75031079992186,470.6811260000104,None,472.75031079992186,473.33476120000705,1.5900000000000012,473.3513651000103,None,474.1025385999819,None,,,,,,,[0.57530864],2.070000000000001,0.7777777777777778,12006,001,2024_Jun_13_1724,MFTM_A_new1021,2021.2.3,60.16336761970307,
,,,,,,,,stim/Instruction_adaptive.png,conditions/adaptive.xlsx,test,0.6,0.6,0.6,-0.6,-0.6,right,R,,,,,0,1,1,1,0,81,81,40,,,,,,,,,,,,,,,,,,,,,,,,,,,,,,,,,,,,,,,,,,,,474.6033003999619,None,right,1,2.114015799947083,475.10412009991705,477.17380929994397,475.10412009991705,476.6730079000117,475.10412009991705,476.6730079000117,475.10412009991705,476.6730079000117,475.10412009991705,476.6730079000117,475.10412009991705,476.6730079000117,476.656542899902,477.1570550999604,476.656542899902,477.1570550999604,476.656542899902,477.1570550999604,476.656542899902,477.1570550999604,476.656542899902,477.1570550999604,476.656542899902,477.1570550999604,476.656542899902,477.1570550999604,476.656542899902,477.1570550999604,475.10412009991705,None,477.1570550999604,477.742133099935,1.5700000000000012,477.7579665000085,None,478.50919649994466,None,,,,,,,[0.57963415],2.0900000000000016,0.7804878048780488,12006,001,2024_Jun_13_1724,MFTM_A_new1021,2021.2.3,60.16336761970307,
,,,,,,,,stim/Instruction_adaptive.png,conditions/adaptive.xlsx,test,0.6,0.6,0.6,-0.6,-0.6,right,R,,,,,0,1,1,1,0,82,82,36,,,,,,,,,,,,,,,,,,,,,,,,,,,,,,,,,,,,,,,,,,,,479.0098693999462,None,left,0,2.0430187999736518,479.51134629989974,481.56447009998374,479.51134629989974,481.06301849999,479.51134629989974,481.06301849999,479.51134629989974,481.06301849999,479.51134629989974,481.06301849999,479.51134629989974,481.06301849999,481.04649869992863,481.5478834999958,481.04649869992863,481.5478834999958,481.04649869992863,481.5478834999958,481.04649869992863,481.5478834999958,481.04649869992863,481.5478834999958,481.04649869992863,481.5478834999958,481.04649869992863,481.5478834999958,481.04649869992863,481.5478834999958,479.51134629989974,None,481.5478834999958,482.1312350999797,1.5500000000000012,482.1479235999286,None,482.89917709992733,None,,,,,,,[0.58409639],2.030000000000001,0.7710843373493976,12006,001,2024_Jun_13_1724,MFTM_A_new1021,2021.2.3,60.16336761970307,
,,,,,,,,stim/Instruction_adaptive.png,conditions/adaptive.xlsx,test,0.6,0.6,0.6,-0.6,-0.6,right,R,,,,,0,1,1,1,0,83,83,26,,,,,,,,,,,,,,,,,,,,,,,,,,,,,,,,,,,,,,,,,,,,483.3997805999825,None,right,1,2.1347692999988794,483.9005667999154,486.0205303999828,483.9005667999154,485.5208982999902,483.9005667999154,485.5208982999902,483.9005667999154,485.5208982999902,483.9005667999154,485.5208982999902,483.9005667999154,485.5208982999902,485.5029395999154,486.0059245999437,485.5029395999154,486.0059245999437,485.5029395999154,486.0059245999437,485.5029395999154,486.0059245999437,485.5029395999154,486.0059245999437,485.5029395999154,486.0059245999437,485.5029395999154,486.0059245999437,485.5029395999154,486.0059245999437,483.9005667999154,None,485.987052799901,486.589470100007,1.6100000000000012,486.62269379990175,None,487.3734403999988,None,,,,,,,[0.5877381],2.0500000000000016,0.7738095238095238,12006,001,2024_Jun_13_1724,MFTM_A_new1021,2021.2.3,60.16336761970307,
,,,,,,,,stim/Instruction_adaptive.png,conditions/adaptive.xlsx,test,-0.6,-0.6,-0.6,0.6,0.6,left,L,,,,,0,1,1,1,0,84,84,63,,,,,,,,,,,,,,,,,,,,,,,,,,,,,,,,,,,,,,,,,,,,487.87391759990714,None,left,1,1.684852399979718,488.3740571999224,490.47713149990886,488.3740571999224,489.97645909991115,488.3740571999224,489.97645909991115,488.3740571999224,489.97645909991115,488.3740571999224,489.97645909991115,488.3740571999224,489.97645909991115,489.942948199925,490.4440022999188,489.942948199925,490.4440022999188,489.942948199925,490.4440022999188,489.942948199925,490.4440022999188,489.942948199925,490.4440022999188,489.942948199925,490.4440022999188,489.942948199925,490.4440022999188,489.942948199925,490.4440022999188,488.3740571999224,None,490.4440022999188,491.04568380001,1.5900000000000012,491.06281259993557,None,491.8134041999001,None,,,,,,,[0.59152941],2.070000000000001,0.7764705882352941,12006,001,2024_Jun_13_1724,MFTM_A_new1021,2021.2.3,60.16336761970307,
,,,,,,,,stim/Instruction_adaptive.png,conditions/adaptive.xlsx,test,0.6,0.6,0.6,-0.6,-0.6,right,R,,,,,0,1,1,1,0,85,85,84,,,,,,,,,,,,,,,,,,,,,,,,,,,,,,,,,,,,,,,,,,,,492.31411249993835,None,right,1,2.012630800018087,492.81419889989775,494.88360219995957,492.81419889989775,494.3831249999348,492.81419889989775,494.3831249999348,492.81419889989775,494.3831249999348,492.81419889989775,494.3831249999348,492.81419889989775,494.3831249999348,494.3671338999411,494.86699039989617,494.3671338999411,494.86699039989617,494.3671338999411,494.86699039989617,494.3671338999411,494.86699039989617,494.3671338999411,494.86699039989617,494.3671338999411,494.86699039989617,494.3671338999411,494.86699039989617,494.3671338999411,494.86699039989617,492.81419889989775,None,494.86699039989617,495.46799329994246,1.5700000000000012,495.4847366999602,None,496.23674510000274,None,,,,,,,[0.59546512],2.0900000000000016,0.7790697674418605,12006,001,2024_Jun_13_1724,MFTM_A_new1021,2021.2.3,60.16336761970307,
,,,,,,,,stim/Instruction_adaptive.png,conditions/adaptive.xlsx,test,0.6,0.6,0.6,-0.6,-0.6,right,R,,,,,0,1,1,1,0,86,86,70,,,,,,,,,,,,,,,,,,,,,,,,,,,,,,,,,,,,,,,,,,,,496.73799779999536,None,right,1,2.0370564999757335,497.23738129995763,499.290222599986,497.23738129995763,498.78965539997444,497.23738129995763,498.78965539997444,497.23738129995763,498.78965539997444,497.23738129995763,498.78965539997444,497.23738129995763,498.78965539997444,498.7741065999726,499.27351550001185,498.7741065999726,499.27351550001185,498.7741065999726,499.27351550001185,498.7741065999726,499.27351550001185,498.7741065999726,499.27351550001185,498.7741065999726,499.27351550001185,498.7741065999726,499.27351550001185,498.7741065999726,499.27351550001185,497.23738129995763,None,499.27351550001185,499.8745326999342,1.5500000000000012,499.89119379990734,None,500.64307759993244,None,,,,,,,[0.59954023],2.110000000000001,0.7816091954022989,12006,001,2024_Jun_13_1724,MFTM_A_new1021,2021.2.3,60.16336761970307,
,,,,,,,,stim/Instruction_adaptive.png,conditions/adaptive.xlsx,test,0.6,0.6,0.6,-0.6,-0.6,right,R,,,,,0,1,1,1,0,87,87,14,,,,,,,,,,,,,,,,,,,,,,,,,,,,,,,,,,,,,,,,,,,,501.1441842999775,None,right,1,1.4215532999951392,501.64511479996145,503.6813566999044,501.64511479996145,503.1797534999205,501.64511479996145,503.1797534999205,501.64511479996145,503.1797534999205,501.64511479996145,503.1797534999205,501.64511479996145,503.1797534999205,503.1463257999858,503.6470654999139,503.1463257999858,503.6470654999139,503.1463257999858,503.6470654999139,503.1463257999858,503.6470654999139,503.1463257999858,503.6470654999139,503.1463257999858,503.6470654999139,503.1463257999858,503.6470654999139,503.1463257999858,503.6470654999139,501.64511479996145,None,503.6470654999139,504.2646249999525,1.5200000000000011,504.2812222999055,None,505.0322564999806,None,,,,,,,[0.60386364],2.1300000000000017,0.7840909090909091,12006,001,2024_Jun_13_1724,MFTM_A_new1021,2021.2.3,60.16336761970307,
,,,,,,,,stim/Instruction_adaptive.png,conditions/adaptive.xlsx,test,-0.6,-0.6,-0.6,0.6,0.6,left,L,,,,,0,1,1,1,0,88,88,39,,,,,,,,,,,,,,,,,,,,,,,,,,,,,,,,,,,,,,,,,,,,505.5332258999115,None,left,1,1.5849040999310091,506.0340548999375,508.0376024999423,506.0340548999375,507.5363895999035,506.0340548999375,507.5363895999035,506.0340548999375,507.5363895999035,506.0340548999375,507.5363895999035,506.0340548999375,507.5363895999035,507.51954349991865,508.02130309992936,507.51954349991865,508.02130309992936,507.51954349991865,508.02130309992936,507.51954349991865,508.02130309992936,507.51954349991865,508.02130309992936,507.51954349991865,508.02130309992936,507.51954349991865,508.02130309992936,507.51954349991865,508.02130309992936,506.0340548999375,None,508.02130309992936,508.63789709995035,1.500000000000001,508.654556299909,None,509.40685269993264,None,,,,,,,[0.60831461],2.1500000000000012,0.7865168539325843,12006,001,2024_Jun_13_1724,MFTM_A_new1021,2021.2.3,60.16336761970307,
,,,,,,,,stim/Instruction_adaptive.png,conditions/adaptive.xlsx,test,-0.6,-0.6,-0.6,0.6,0.6,left,L,,,,,0,1,1,1,0,89,89,19,,,,,,,,,,,,,,,,,,,,,,,,,,,,,,,,,,,,,,,,,,,,509.90721949993167,None,left,1,1.6119840999599546,510.407130699954,512.3942652000114,510.407130699954,511.89336579991505,510.407130699954,511.89336579991505,510.407130699954,511.89336579991505,510.407130699954,511.89336579991505,510.407130699954,511.89336579991505,511.8762285999255,512.377568099997,511.8762285999255,512.377568099997,511.8762285999255,512.377568099997,511.8762285999255,512.377568099997,511.8762285999255,512.377568099997,511.8762285999255,512.377568099997,511.8762285999255,512.377568099997,511.8762285999255,512.377568099997,510.407130699954,None,512.377568099997,512.995269499952,1.480000000000001,513.0112033999758,None,513.7620053999126,None,,,,,,,[0.61288889],2.1700000000000017,0.7888888888888889,12006,001,2024_Jun_13_1724,MFTM_A_new1021,2021.2.3,60.16336761970307,
,,,,,,,,stim/Instruction_adaptive.png,conditions/adaptive.xlsx,test,0.6,0.6,0.6,-0.6,-0.6,right,R,,,,,0,1,1,1,0,90,90,18,,,,,,,,,,,,,,,,,,,,,,,,,,,,,,,,,,,,,,,,,,,,514.263110299944,None,left,0,2.1354571999982,514.7637963999296,516.7346747999545,514.7637963999296,516.2326566999545,514.7637963999296,516.2326566999545,514.7637963999296,516.2326566999545,514.7637963999296,516.2326566999545,514.7637963999296,516.2326566999545,516.1993808000116,516.7007566000102,516.1993808000116,516.7007566000102,516.1993808000116,516.7007566000102,516.1993808000116,516.7007566000102,516.1993808000116,516.7007566000102,516.1993808000116,516.7007566000102,516.1993808000116,516.7007566000102,516.1993808000116,516.7007566000102,514.7637963999296,None,516.7007566000102,517.3180972000118,1.460000000000001,517.3509732999373,None,518.1032535999548,None,,,,,,,[0.61758242],2.110000000000001,0.7802197802197802,12006,001,2024_Jun_13_1724,MFTM_A_new1021,2021.2.3,60.16336761970307,
,,,,,,,,stim/Instruction_adaptive.png,conditions/adaptive.xlsx,test,-0.6,-0.6,-0.6,0.6,0.6,left,L,,,,,0,1,1,1,0,91,91,75,,,,,,,,,,,,,,,,,,,,,,,,,,,,,,,,,,,,,,,,,,,,518.6036947999382,None,left,1,1.4350562000181526,519.1046262999298,521.1410034999717,519.1046262999298,520.6392925999826,519.1046262999298,520.6392925999826,519.1046262999298,520.6392925999826,519.1046262999298,520.6392925999826,519.1046262999298,520.6392925999826,520.6060161999194,521.1065509999171,520.6060161999194,521.1065509999171,520.6060161999194,521.1065509999171,520.6060161999194,521.1065509999171,520.6060161999194,521.1065509999171,520.6060161999194,521.1065509999171,520.6060161999194,521.1065509999171,520.6060161999194,521.1065509999171,519.1046262999298,None,521.1065509999171,521.7419903998962,1.5200000000000011,521.7575918999501,None,522.5088556999108,None,,,,,,,[0.62152174],2.1300000000000017,0.782608695652174,12006,001,2024_Jun_13_1724,MFTM_A_new1021,2021.2.3,60.16336761970307,
,,,,,,,,stim/Instruction_adaptive.png,conditions/adaptive.xlsx,test,0.6,0.6,0.6,-0.6,-0.6,right,R,,,,,0,1,1,1,0,92,92,78,,,,,,,,,,,,,,,,,,,,,,,,,,,,,,,,,,,,,,,,,,,,523.0094348998973,None,left,0,1.3568595999386162,523.5104251999874,525.5132450999226,523.5104251999874,525.0125745999394,523.5104251999874,525.0125745999394,523.5104251999874,525.0125745999394,523.5104251999874,525.0125745999394,523.5104251999874,525.0125745999394,524.9958974999608,525.4966674000025,524.9958974999608,525.4966674000025,524.9958974999608,525.4966674000025,524.9958974999608,525.4966674000025,524.9958974999608,525.4966674000025,524.9958974999608,525.4966674000025,524.9958974999608,525.4966674000025,524.9958974999608,525.4966674000025,523.5104251999874,None,525.4966674000025,526.1309127999702,1.500000000000001,526.1476654999424,None,526.8994945999002,None,,,,,,,[0.6255914],2.0800000000000014,0.7741935483870968,12006,001,2024_Jun_13_1724,MFTM_A_new1021,2021.2.3,60.16336761970307,
,,,,,,,,stim/Instruction_adaptive.png,conditions/adaptive.xlsx,test,0.6,0.6,0.6,-0.6,-0.6,right,R,,,,,0,1,1,1,0,93,93,74,,,,,,,,,,,,,,,,,,,,,,,,,,,,,,,,,,,,,,,,,,,,527.399568199995,None,right,1,1.3273333000252023,527.900309599936,529.9700442999601,527.900309599936,529.469378599897,527.900309599936,529.469378599897,527.900309599936,529.469378599897,527.900309599936,529.469378599897,527.900309599936,529.469378599897,529.4358565999428,529.9367343999911,529.4358565999428,529.9367343999911,529.4358565999428,529.9367343999911,529.4358565999428,529.9367343999911,529.4358565999428,529.9367343999911,529.4358565999428,529.9367343999911,529.4358565999428,529.9367343999911,529.4358565999428,529.9367343999911,527.900309599936,None,529.9367343999911,530.5715815000003,1.5600000000000012,530.587561299908,None,531.3388823999558,None,,,,,,,[0.62893617],2.0900000000000016,0.776595744680851,12006,001,2024_Jun_13_1724,MFTM_A_new1021,2021.2.3,60.16336761970307,
