arrwidth1,arrwidth2,arrwidth3,arrwidth4,arrwidth5,keyb,type,orientation,instruction_image,block_filename,block_type,arrow11,arrow22,arrow33,arrow44,arrow55,keyb_3,orientation3,trials.thisRepN,trials.thisTrialN,trials.thisN,trials.thisIndex,trials_3.thisRepN,trials_3.thisTrialN,trials_3.thisN,trials_3.thisIndex,trials_2.thisRepN,trials_2.thisTrialN,trials_2.thisN,trials_2.thisIndex,welcome.started,welcome.stopped,key_resp.keys,key_resp.rt,key_resp.started,key_resp.stopped,instruction_example.started,instruction_example.stopped,key_resp_3.keys,key_resp_3.rt,key_resp_3.started,key_resp_3.stopped,instruction_task.started,instruction_task.stopped,key_resp_2.keys,key_resp_2.rt,key_resp_2.started,key_resp_2.stopped,text_2.started,text_2.stopped,A1.started,A1.stopped,A2.started,A2.stopped,A3.started,A3.stopped,A4.started,A4.stopped,A5.started,A5.stopped,key_resp_4.keys,key_resp_4.corr,key_resp_4.rt,key_resp_4.started,key_resp_4.stopped,fb.started,fb.stopped,instruction_block.started,instruction_block.stopped,key_resp_8.keys,key_resp_8.rt,key_resp_8.started,key_resp_8.stopped,text_8.started,text_8.stopped,key_resp_9.keys,key_resp_9.corr,key_resp_9.rt,text_5.started,text_5.stopped,A11_3.started,A11_3.stopped,A22_2.started,A22_2.stopped,A33_2.started,A33_2.stopped,A44_2.started,A44_2.stopped,A55_2.started,A55_2.stopped,M1_3.started,M1_3.stopped,M2_2.started,M2_2.stopped,M3_2.started,M3_2.stopped,M4_2.started,M4_2.stopped,M5_2.started,M5_2.stopped,M6_2.started,M6_2.stopped,M7_2.started,M7_2.stopped,M8_2.started,M8_2.stopped,key_resp_9.started,key_resp_9.stopped,fixation.started,fixation.stopped,ET,fb_3.started,fb_3.stopped,text_9.started,text_9.stopped,fb_4.started,fb_4.stopped,text_7.started,text_7.stopped,endtext.started,endtext.stopped,fixation_ITI,CCC,Acc,participant,session,date,expName,psychopyVersion,frameRate,
,,,,,,,,,,,,,,,,,,,,,,,,,,,,,,16.28684879996581,None,space,1.764101099979598,16.28684879996581,None,,,,,,,,,,,,,,,,,,,,,,,,,,,,,,,,,,,,,,,,,,,,,,,,,,,,,,,,,,,,,,,,,,,,,,,,,,,,,,,,,,,,,,,,,12002,001,2024_Jun_02_1758,MFTM_A_new1021,2021.2.3,59.78694324149237,
,,,,,,,,,,,,,,,,,,,,,,,,,,,,,,,,,,,,18.072986399987713,None,space,12.178194100037217,18.072986399987713,None,,,,,,,,,,,,,,,,,,,,,,,,,,,,,,,,,,,,,,,,,,,,,,,,,,,,,,,,,,,,,,,,,,,,,,,,,,,,,,,,,,,12002,001,2024_Jun_02_1758,MFTM_A_new1021,2021.2.3,59.78694324149237,
,,,,,,,,,,,,,,,,,,,,,,,,,,,,,,,,,,,,,,,,,,30.275651299976744,None,down,3.79164969996782,30.275651299976744,None,,,,,,,,,,,,,,,,,,,,,,,,,,,,,,,,,,,,,,,,,,,,,,,,,,,,,,,,,,,,,,,,,,,,,,,,,,,,,12002,001,2024_Jun_02_1758,MFTM_A_new1021,2021.2.3,59.78694324149237,
0.6,0.6,0.6,-0.6,-0.6,right,3:2,R,,,,,,,,,,,0,0,0,0,,,,,,,,,,,,,,,,,,,,,,,,,,,34.1160089999903,None,34.1160089999903,None,34.1160089999903,None,34.1160089999903,None,34.1160089999903,None,34.1160089999903,None,right,1,1.6872172000003047,34.1160089999903,None,35.85123329999624,None,,,,,,,,,,,,,,,,,,,,,,,,,,,,,,,,,,,,,,,,,,,,,,,,,,,,,,,,,,12002,001,2024_Jun_02_1758,MFTM_A_new1021,2021.2.3,59.78694324149237,
-0.6,-0.6,-0.6,0.6,0.6,left,3:2,L,,,,,,,,,,,0,1,1,1,,,,,,,,,,,,,,,,,,,,,,,,,,,36.60202079999726,None,36.60202079999726,None,36.60202079999726,None,36.60202079999726,None,36.60202079999726,None,36.60202079999726,None,left,1,1.2497844999888912,36.60202079999726,None,37.871860899962485,None,,,,,,,,,,,,,,,,,,,,,,,,,,,,,,,,,,,,,,,,,,,,,,,,,,,,,,,,,,12002,001,2024_Jun_02_1758,MFTM_A_new1021,2021.2.3,59.78694324149237,
0.6,0.6,0.6,-0.6,-0.6,right,3:2,R,,,,,,,,,,,1,0,2,0,,,,,,,,,,,,,,,,,,,,,,,,,,,38.62160899996525,None,38.62160899996525,None,38.62160899996525,None,38.62160899996525,None,38.62160899996525,None,38.62160899996525,None,right,1,1.6937668999889866,38.62160899996525,None,40.3404395999969,None,,,,,,,,,,,,,,,,,,,,,,,,,,,,,,,,,,,,,,,,,,,,,,,,,,,,,,,,,,12002,001,2024_Jun_02_1758,MFTM_A_new1021,2021.2.3,59.78694324149237,
-0.6,-0.6,-0.6,0.6,0.6,left,3:2,L,,,,,,,,,,,1,1,3,1,,,,,,,,,,,,,,,,,,,,,,,,,,,41.0914119000081,None,41.0914119000081,None,41.0914119000081,None,41.0914119000081,None,41.0914119000081,None,41.0914119000081,None,left,1,1.1685587999527343,41.0914119000081,None,42.29349599999841,None,,,,,,,,,,,,,,,,,,,,,,,,,,,,,,,,,,,,,,,,,,,,,,,,,,,,,,,,,,12002,001,2024_Jun_02_1758,MFTM_A_new1021,2021.2.3,59.78694324149237,
,,,,,,,,stim/Instruction_mask.png,conditions/adaptive.xlsx,practice,0.6,0.6,0.6,-0.6,-0.6,right,R,,,,,0,0,0,0,0,0,0,22,,,,,,,,,,,,,,,,,,,,,,,,,,,,,,,,,,,,,,43.39427059999434,None,down,24.122027899953537,43.39427059999434,None,67.64919189998182,None,right,1,1.5150470999651588,68.04931169998599,None,68.04931169998599,71.0539283999824,68.04931169998599,71.0539283999824,68.04931169998599,71.0539283999824,68.04931169998599,71.0539283999824,68.04931169998599,71.0539283999824,71.03720669995528,71.53794700000435,71.03720669995528,71.53794700000435,71.03720669995528,71.53794700000435,71.03720669995528,71.53794700000435,71.03720669995528,71.53794700000435,71.03720669995528,71.53794700000435,71.03720669995528,71.53794700000435,71.03720669995528,71.53794700000435,68.04931169998599,None,71.53794700000435,71.53794700000435,3,71.57186609995551,None,72.32260819996009,None,,,,,,,,,,12002,001,2024_Jun_02_1758,MFTM_A_new1021,2021.2.3,59.78694324149237,
,,,,,,,,stim/Instruction_mask.png,conditions/adaptive.xlsx,practice,-0.6,-0.6,-0.6,0.6,0.6,left,L,,,,,0,0,0,0,0,1,1,11,,,,,,,,,,,,,,,,,,,,,,,,,,,,,,,,,,,,,,,,,,,,72.8232474999968,None,left,1,0.8964231999707408,73.32407989999047,75.32651300000725,73.32407989999047,74.82624879997456,73.32407989999047,74.82624879997456,73.32407989999047,74.82624879997456,73.32407989999047,74.82624879997456,73.32407989999047,74.82624879997456,74.80914239998674,75.30941719998373,74.80914239998674,75.30941719998373,74.80914239998674,75.30941719998373,74.80914239998674,75.30941719998373,74.80914239998674,75.30941719998373,74.80914239998674,75.30941719998373,74.80914239998674,75.30941719998373,74.80914239998674,75.30941719998373,73.32407989999047,None,75.30941719998373,76.81271410000045,1.5,76.8293435999658,None,77.5795938000083,None,,,,,,,,,,12002,001,2024_Jun_02_1758,MFTM_A_new1021,2021.2.3,59.78694324149237,
,,,,,,,,stim/Instruction_mask.png,conditions/adaptive.xlsx,practice,0.6,0.6,0.6,-0.6,-0.6,right,R,,,,,0,0,0,0,0,2,2,2,,,,,,,,,,,,,,,,,,,,,,,,,,,,,,,,,,,,,,,,,,,,78.08090120000998,None,right,1,0.7652050000033341,78.59930429997621,79.9006979999831,78.59930429997621,79.39926219999325,78.59930429997621,79.39926219999325,78.59930429997621,79.39926219999325,78.59930429997621,79.39926219999325,78.59930429997621,79.39926219999325,79.36598349997075,79.86712020001141,79.36598349997075,79.86712020001141,79.36598349997075,79.86712020001141,79.36598349997075,79.86712020001141,79.36598349997075,79.86712020001141,79.36598349997075,79.86712020001141,79.36598349997075,79.86712020001141,79.36598349997075,79.86712020001141,78.59930429997621,None,79.86712020001141,82.07043139997404,0.8,82.10407760000089,None,82.85404649999691,None,,,,,,,,,,12002,001,2024_Jun_02_1758,MFTM_A_new1021,2021.2.3,59.78694324149237,
,,,,,,,,stim/Instruction_mask.png,conditions/adaptive.xlsx,practice,0.6,0.6,0.6,-0.6,-0.6,right,R,,,,,0,0,0,0,0,3,3,60,,,,,,,,,,,,,,,,,,,,,,,,,,,,,,,,,,,,,,,,,,,,83.35566030000336,None,right,1,0.5497491999994963,83.8556844999548,84.60775829997147,83.8556844999548,84.10701949999202,83.8556844999548,84.10701949999202,83.8556844999548,84.10701949999202,83.8556844999548,84.10701949999202,83.8556844999548,84.10701949999202,84.09031219995813,84.59123919997364,84.09031219995813,84.59123919997364,84.09031219995813,84.59123919997364,84.09031219995813,84.59123919997364,84.09031219995813,84.59123919997364,84.09031219995813,84.59123919997364,84.09031219995813,84.59123919997364,84.09031219995813,84.59123919997364,83.8556844999548,None,84.59123919997364,87.34434229996987,3,87.36191629996756,None,88.1131096999743,None,,,,,,,,,,12002,001,2024_Jun_02_1758,MFTM_A_new1021,2021.2.3,59.78694324149237,
,,,,,,,,stim/Instruction_mask.png,conditions/adaptive.xlsx,practice,,,,,,,,,,,,0,0,0,0,,,,,,,,,,,,,,,,,,,,,,,,,,,,,,,,,,,,,,,,,,,,,,,,,,,,,,,,,,,,,,,,,,,,,,,,,,,,,,,,,,,,,,,,,,88.68029539997224,89.68194889998995,89.6652647999581,89.6652647999581,89.6652647999581,None,,,,12002,001,2024_Jun_02_1758,MFTM_A_new1021,2021.2.3,59.78694324149237,
,,,,,,,,stim/Instruction_adaptive.png,conditions/adaptive.xlsx,test,-0.6,-0.6,-0.6,0.6,0.6,left,L,,,,,0,1,1,1,0,0,0,23,,,,,,,,,,,,,,,,,,,,,,,,,,,,,,,,,,,,,,92.93606899998849,None,down,11.189149200043175,92.93606899998849,None,104.18701549997786,None,left,1,0.7346676000161096,104.67142339999555,None,104.67142339999555,107.67546259996016,104.67142339999555,107.67546259996016,104.67142339999555,107.67546259996016,104.67142339999555,107.67546259996016,104.67142339999555,107.67546259996016,107.65923599997768,108.15959279995877,107.65923599997768,108.15959279995877,107.65923599997768,108.15959279995877,107.65923599997768,108.15959279995877,107.65923599997768,108.15959279995877,107.65923599997768,108.15959279995877,107.65923599997768,108.15959279995877,107.65923599997768,108.15959279995877,104.67142339999555,None,108.15959279995877,108.15959279995877,3,108.17585929995403,None,108.92755099997157,None,,,,,,,0,6.000000000000005,1.0,12002,001,2024_Jun_02_1758,MFTM_A_new1021,2021.2.3,59.78694324149237,
,,,,,,,,stim/Instruction_adaptive.png,conditions/adaptive.xlsx,test,0.6,0.6,0.6,-0.6,-0.6,right,R,,,,,0,1,1,1,0,1,1,12,,,,,,,,,,,,,,,,,,,,,,,,,,,,,,,,,,,,,,,,,,,,109.4280526000075,None,right,1,0.6531718999613076,109.9282036999939,110.68002520001028,109.9282036999939,110.17954689997714,109.9282036999939,110.17954689997714,109.9282036999939,110.17954689997714,109.9282036999939,110.17954689997714,109.9282036999939,110.17954689997714,110.16320770001039,110.66370779997669,110.16320770001039,110.66370779997669,110.16320770001039,110.66370779997669,110.16320770001039,110.66370779997669,110.16320770001039,110.66370779997669,110.16320770001039,110.66370779997669,110.16320770001039,110.66370779997669,110.16320770001039,110.66370779997669,109.9282036999939,None,110.66370779997669,111.54827440000372,0.25,111.56394789996557,None,112.31584579998162,None,,,,,,,[0.875],6.000000000000005,1.0,12002,001,2024_Jun_02_1758,MFTM_A_new1021,2021.2.3,59.78694324149237,
,,,,,,,,stim/Instruction_adaptive.png,conditions/adaptive.xlsx,test,0.6,0.6,0.6,-0.6,-0.6,right,R,,,,,0,1,1,1,0,2,2,74,,,,,,,,,,,,,,,,,,,,,,,,,,,,,,,,,,,,,,,,,,,,112.8160787000088,None,left,0,0.4798608999699354,113.3175166999572,114.06876459997147,113.3175166999572,113.56805090000853,113.3175166999572,113.56805090000853,113.3175166999572,113.56805090000853,113.3175166999572,113.56805090000853,113.3175166999572,113.56805090000853,113.55108359997394,114.05208489997312,113.55108359997394,114.05208489997312,113.55108359997394,114.05208489997312,113.55108359997394,114.05208489997312,113.55108359997394,114.05208489997312,113.55108359997394,114.05208489997312,113.55108359997394,114.05208489997312,113.55108359997394,114.05208489997312,113.3175166999572,None,114.05208489997312,115.3873595999903,0.25,115.42091159999836,None,116.17203449999215,None,,,,,,,[1.33333333],3.1800000000000024,0.6666666666666666,12002,001,2024_Jun_02_1758,MFTM_A_new1021,2021.2.3,59.78694324149237,
,,,,,,,,stim/Instruction_adaptive.png,conditions/adaptive.xlsx,test,-0.6,-0.6,-0.6,0.6,0.6,left,L,,,,,0,1,1,1,0,3,3,81,,,,,,,,,,,,,,,,,,,,,,,,,,,,,,,,,,,,,,,,,,,,116.67288729996653,None,right,0,0.560767599963583,117.17287030001171,118.40883279999252,117.17287030001171,117.90785309998319,117.17287030001171,117.90785309998319,117.17287030001171,117.90785309998319,117.17287030001171,117.90785309998319,117.17287030001171,117.90785309998319,117.89087669999572,118.39202809997369,117.89087669999572,118.39202809997369,117.89087669999572,118.39202809997369,117.89087669999572,118.39202809997369,117.89087669999572,118.39202809997369,117.89087669999572,118.39202809997369,117.89087669999572,118.39202809997369,117.89087669999572,118.39202809997369,117.17287030001171,None,118.39202809997369,119.84420079999836,0.7300000000000004,119.87823349999962,None,120.62876479997067,None,,,,,,,[1.4425],1.510000000000001,0.5,12002,001,2024_Jun_02_1758,MFTM_A_new1021,2021.2.3,59.78694324149237,
,,,,,,,,stim/Instruction_adaptive.png,conditions/adaptive.xlsx,test,0.6,0.6,0.6,-0.6,-0.6,right,R,,,,,0,1,1,1,0,4,4,44,,,,,,,,,,,,,,,,,,,,,,,,,,,,,,,,,,,,,,,,,,,,121.12829449999845,None,left,0,1.0875822000089101,121.6303770999657,124.45005769998534,121.6303770999657,123.9505336000002,121.6303770999657,123.9505336000002,121.6303770999657,123.9505336000002,121.6303770999657,123.9505336000002,121.6303770999657,123.9505336000002,123.91664499999024,124.41771489998791,123.91664499999024,124.41771489998791,123.91664499999024,124.41771489998791,123.91664499999024,124.41771489998791,123.91664499999024,124.41771489998791,123.91664499999024,124.41771489998791,123.91664499999024,124.41771489998791,123.91664499999024,124.41771489998791,121.6303770999657,None,124.41771489998791,124.6179836000083,2.310000000000002,124.65176929999143,None,125.40264869999373,None,,,,,,,[[0.19]],0.5,0.4,12002,001,2024_Jun_02_1758,MFTM_A_new1021,2021.2.3,59.78694324149237,
,,,,,,,,stim/Instruction_adaptive.png,conditions/adaptive.xlsx,test,0.6,0.6,0.6,-0.6,-0.6,right,R,,,,,0,1,1,1,0,5,5,50,,,,,,,,,,,,,,,,,,,,,,,,,,,,,,,,,,,,,,,,,,,,125.90308289998211,None,right,1,0.6664715000079013,126.40376560000004,None,126.40376560000004,129.40962990000844,126.40376560000004,129.40962990000844,126.40376560000004,129.40962990000844,126.40376560000004,129.40962990000844,126.40376560000004,129.40962990000844,129.39096489996882,129.89257949998137,129.39096489996882,129.89257949998137,129.39096489996882,129.89257949998137,129.39096489996882,129.89257949998137,129.39096489996882,129.89257949998137,129.39096489996882,129.89257949998137,129.39096489996882,129.89257949998137,129.39096489996882,129.89257949998137,126.40376560000004,None,129.89257949998137,129.89257949998137,3.0000000000000027,129.92568929999834,None,130.67708799999673,None,,,,,,,0,0.5,0.5,12002,001,2024_Jun_02_1758,MFTM_A_new1021,2021.2.3,59.78694324149237,
,,,,,,,,stim/Instruction_adaptive.png,conditions/adaptive.xlsx,test,-0.6,-0.6,-0.6,0.6,0.6,left,L,,,,,0,1,1,1,0,6,6,27,,,,,,,,,,,,,,,,,,,,,,,,,,,,,,,,,,,,,,,,,,,,131.1779591999948,None,left,1,0.783657799998764,131.6786570000113,None,131.6786570000113,134.68219139997382,131.6786570000113,134.68219139997382,131.6786570000113,134.68219139997382,131.6786570000113,134.68219139997382,131.6786570000113,134.68219139997382,134.66604009998264,135.16701009997632,134.66604009998264,135.16701009997632,134.66604009998264,135.16701009997632,134.66604009998264,135.16701009997632,134.66604009998264,135.16701009997632,134.66604009998264,135.16701009997632,134.66604009998264,135.16701009997632,134.66604009998264,135.16701009997632,131.6786570000113,None,135.16701009997632,135.16701009997632,3.0000000000000027,135.18275219999487,None,135.93516930000624,None,,,,,,,0,1.1000000000000005,0.5714285714285714,12002,001,2024_Jun_02_1758,MFTM_A_new1021,2021.2.3,59.78694324149237,
,,,,,,,,stim/Instruction_adaptive.png,conditions/adaptive.xlsx,test,-0.6,-0.6,-0.6,0.6,0.6,left,L,,,,,0,1,1,1,0,7,7,17,,,,,,,,,,,,,,,,,,,,,,,,,,,,,,,,,,,,,,,,,,,,136.43579929997213,None,left,1,1.5828377999714576,136.9356958999997,None,136.9356958999997,139.94113519997336,136.9356958999997,139.94113519997336,136.9356958999997,139.94113519997336,136.9356958999997,139.94113519997336,136.9356958999997,139.94113519997336,139.92446730000665,140.42498469998827,139.92446730000665,140.42498469998827,139.92446730000665,140.42498469998827,139.92446730000665,140.42498469998827,139.92446730000665,140.42498469998827,139.92446730000665,140.42498469998827,139.92446730000665,140.42498469998827,139.92446730000665,140.42498469998827,136.9356958999997,None,140.42498469998827,140.42498469998827,3.0000000000000027,140.44092600001022,None,141.19202429999132,None,,,,,,,0,1.5000000000000009,0.625,12002,001,2024_Jun_02_1758,MFTM_A_new1021,2021.2.3,59.78694324149237,
,,,,,,,,stim/Instruction_adaptive.png,conditions/adaptive.xlsx,test,-0.6,-0.6,-0.6,0.6,0.6,left,L,,,,,0,1,1,1,0,8,8,15,,,,,,,,,,,,,,,,,,,,,,,,,,,,,,,,,,,,,,,,,,,,141.6936809999752,None,left,1,0.8596877999952994,142.19455660000676,145.0321757000056,142.19455660000676,144.5305066999863,142.19455660000676,144.5305066999863,142.19455660000676,144.5305066999863,142.19455660000676,144.5305066999863,142.19455660000676,144.5305066999863,144.49700509995455,144.99835700000403,144.49700509995455,144.99835700000403,144.49700509995455,144.99835700000403,144.49700509995455,144.99835700000403,144.49700509995455,144.99835700000403,144.49700509995455,144.99835700000403,144.49700509995455,144.99835700000403,144.49700509995455,144.99835700000403,142.19455660000676,None,145.01527460000943,None,2.330000000000002,145.21627509995596,None,145.9666829999769,None,,,,,,,[[0.17]],1.7800000000000011,0.6666666666666666,12002,001,2024_Jun_02_1758,MFTM_A_new1021,2021.2.3,59.78694324149237,
,,,,,,,,stim/Instruction_adaptive.png,conditions/adaptive.xlsx,test,0.6,0.6,0.6,-0.6,-0.6,right,R,,,,,0,1,1,1,0,9,9,52,,,,,,,,,,,,,,,,,,,,,,,,,,,,,,,,,,,,,,,,,,,,146.46749429998454,None,right,1,1.4939868999645114,146.9685138000059,149.38865509995958,146.9685138000059,148.8880006999825,146.9685138000059,148.8880006999825,146.9685138000059,148.8880006999825,146.9685138000059,148.8880006999825,146.9685138000059,148.8880006999825,148.87127619999228,149.37189569999464,148.87127619999228,149.37189569999464,148.87127619999228,149.37189569999464,148.87127619999228,149.37189569999464,148.87127619999228,149.37189569999464,148.87127619999228,149.37189569999464,148.87127619999228,149.37189569999464,148.87127619999228,149.37189569999464,146.9685138000059,None,149.37189569999464,149.90601410000818,1.9200000000000015,149.92176190001192,None,150.67354459996568,None,,,,,,,[0.521],1.9900000000000013,0.7,12002,001,2024_Jun_02_1758,MFTM_A_new1021,2021.2.3,59.78694324149237,
,,,,,,,,stim/Instruction_adaptive.png,conditions/adaptive.xlsx,test,0.6,0.6,0.6,-0.6,-0.6,right,R,,,,,0,1,1,1,0,10,10,46,,,,,,,,,,,,,,,,,,,,,,,,,,,,,,,,,,,,,,,,,,,,151.17378209996969,None,left,0,0.7478573999833316,151.67504319996806,153.8455175999552,151.67504319996806,153.34470899996813,151.67504319996806,153.34470899996813,151.67504319996806,153.34470899996813,151.67504319996806,153.34470899996813,151.67504319996806,153.34470899996813,153.32760590000544,153.82868699997198,153.32760590000544,153.82868699997198,153.32760590000544,153.82868699997198,153.32760590000544,153.82868699997198,153.32760590000544,153.82868699997198,153.32760590000544,153.82868699997198,153.32760590000544,153.82868699997198,153.32760590000544,153.82868699997198,151.67504319996806,None,153.81214339996222,154.36271419998957,1.6600000000000013,154.39498909999384,None,155.14778800000204,None,,,,,,,[0.55],1.4600000000000009,0.6363636363636364,12002,001,2024_Jun_02_1758,MFTM_A_new1021,2021.2.3,59.78694324149237,
,,,,,,,,stim/Instruction_adaptive.png,conditions/adaptive.xlsx,test,-0.6,-0.6,-0.6,0.6,0.6,left,L,,,,,0,1,1,1,0,11,11,65,,,,,,,,,,,,,,,,,,,,,,,,,,,,,,,,,,,,,,,,,,,,155.64818199997535,None,right,0,2.4584708999609575,156.14835919998586,159.05324179999297,156.14835919998586,158.5524696999928,156.14835919998586,158.5524696999928,156.14835919998586,158.5524696999928,156.14835919998586,158.5524696999928,156.14835919998586,158.5524696999928,158.51916510000592,159.0202320999815,158.51916510000592,159.0202320999815,158.51916510000592,159.0202320999815,158.51916510000592,159.0202320999815,158.51916510000592,159.0202320999815,158.51916510000592,159.0202320999815,158.51916510000592,159.0202320999815,158.51916510000592,159.0202320999815,156.14835919998586,None,159.0202320999815,159.136697000009,2.390000000000002,159.17044919996988,None,159.92071219999343,None,,,,,,,[[0.11]],0.7800000000000002,0.5833333333333334,12002,001,2024_Jun_02_1758,MFTM_A_new1021,2021.2.3,59.78694324149237,
,,,,,,,,stim/Instruction_adaptive.png,conditions/adaptive.xlsx,test,-0.6,-0.6,-0.6,0.6,0.6,left,L,,,,,0,1,1,1,0,12,12,85,,,,,,,,,,,,,,,,,,,,,,,,,,,,,,,,,,,,,,,,,,,,160.42214619996957,None,left,1,0.8692468000226654,160.92218980001053,None,160.92218980001053,163.92769699997734,160.92218980001053,163.92769699997734,160.92218980001053,163.92769699997734,160.92218980001053,163.92769699997734,160.92218980001053,163.92769699997734,163.89368739997735,164.39462159998948,163.89368739997735,164.39462159998948,163.89368739997735,164.39462159998948,163.89368739997735,164.39462159998948,163.89368739997735,164.39462159998948,163.89368739997735,164.39462159998948,163.89368739997735,164.39462159998948,163.89368739997735,164.39462159998948,160.92218980001053,None,164.39462159998948,164.39462159998948,3.0000000000000027,164.44499990000622,None,165.19591539999237,None,,,,,,,0,1.0700000000000005,0.6153846153846154,12002,001,2024_Jun_02_1758,MFTM_A_new1021,2021.2.3,59.78694324149237,
,,,,,,,,stim/Instruction_adaptive.png,conditions/adaptive.xlsx,test,-0.6,-0.6,-0.6,0.6,0.6,left,L,,,,,0,1,1,1,0,13,13,69,,,,,,,,,,,,,,,,,,,,,,,,,,,,,,,,,,,,,,,,,,,,165.69646939996164,None,right,0,1.6180318999686278,166.19751609995728,None,166.19751609995728,169.20159969996894,166.19751609995728,169.20159969996894,166.19751609995728,169.20159969996894,166.19751609995728,169.20159969996894,166.19751609995728,169.20159969996894,169.18509159999667,169.68586349999532,169.18509159999667,169.68586349999532,169.18509159999667,169.68586349999532,169.18509159999667,169.68586349999532,169.18509159999667,169.68586349999532,169.18509159999667,169.68586349999532,169.18509159999667,169.68586349999532,169.18509159999667,169.68586349999532,166.19751609995728,None,169.68586349999532,169.68586349999532,3.0000000000000027,169.71886389999418,None,170.47063239995623,None,,,,,,,0,0.5,0.5714285714285714,12002,001,2024_Jun_02_1758,MFTM_A_new1021,2021.2.3,59.78694324149237,
,,,,,,,,stim/Instruction_adaptive.png,conditions/adaptive.xlsx,test,-0.6,-0.6,-0.6,0.6,0.6,left,L,,,,,0,1,1,1,0,14,14,99,,,,,,,,,,,,,,,,,,,,,,,,,,,,,,,,,,,,,,,,,,,,170.97043129999656,None,left,1,2.343711699999403,171.47212990000844,None,171.47212990000844,174.4764079999877,171.47212990000844,174.4764079999877,171.47212990000844,174.4764079999877,171.47212990000844,174.4764079999877,171.47212990000844,174.4764079999877,174.45988119998947,174.95970839995425,174.45988119998947,174.95970839995425,174.45988119998947,174.95970839995425,174.45988119998947,174.95970839995425,174.45988119998947,174.95970839995425,174.45988119998947,174.95970839995425,174.45988119998947,174.95970839995425,174.45988119998947,174.95970839995425,171.47212990000844,None,174.95970839995425,174.95970839995425,3.0000000000000027,174.97639629995683,None,175.7283489999827,None,,,,,,,0,0.6600000000000001,0.6,12002,001,2024_Jun_02_1758,MFTM_A_new1021,2021.2.3,59.78694324149237,
,,,,,,,,stim/Instruction_adaptive.png,conditions/adaptive.xlsx,test,-0.6,-0.6,-0.6,0.6,0.6,left,L,,,,,0,1,1,1,0,15,15,61,,,,,,,,,,,,,,,,,,,,,,,,,,,,,,,,,,,,,,,,,,,,176.2292007000069,None,left,1,1.4702037000097334,176.7294195999857,None,176.7294195999857,179.734222900006,176.7294195999857,179.734222900006,176.7294195999857,179.734222900006,176.7294195999857,179.734222900006,176.7294195999857,179.734222900006,179.7178617999889,180.21814029995585,179.7178617999889,180.21814029995585,179.7178617999889,180.21814029995585,179.7178617999889,180.21814029995585,179.7178617999889,180.21814029995585,179.7178617999889,180.21814029995585,179.7178617999889,180.21814029995585,179.7178617999889,180.21814029995585,176.7294195999857,None,180.21814029995585,180.21814029995585,3.0000000000000027,180.234277200012,None,180.9863904999802,None,,,,,,,0,0.9000000000000004,0.625,12002,001,2024_Jun_02_1758,MFTM_A_new1021,2021.2.3,59.78694324149237,
,,,,,,,,stim/Instruction_adaptive.png,conditions/adaptive.xlsx,test,-0.6,-0.6,-0.6,0.6,0.6,left,L,,,,,0,1,1,1,0,16,16,35,,,,,,,,,,,,,,,,,,,,,,,,,,,,,,,,,,,,,,,,,,,,181.48720069997944,None,left,1,3.1159351999522187,181.98788939998485,None,181.98788939998485,184.99277459998848,181.98788939998485,184.99277459998848,181.98788939998485,184.99277459998848,181.98788939998485,184.99277459998848,181.98788939998485,184.99277459998848,184.97559499996714,185.47653139999602,184.97559499996714,185.47653139999602,184.97559499996714,185.47653139999602,184.97559499996714,185.47653139999602,184.97559499996714,185.47653139999602,184.97559499996714,185.47653139999602,184.97559499996714,185.47653139999602,184.97559499996714,185.47653139999602,181.98788939998485,None,185.47653139999602,185.47653139999602,3.0000000000000027,185.49213349999627,None,186.2441157999565,None,,,,,,,0,1.0900000000000005,0.6470588235294118,12002,001,2024_Jun_02_1758,MFTM_A_new1021,2021.2.3,59.78694324149237,
,,,,,,,,stim/Instruction_adaptive.png,conditions/adaptive.xlsx,test,0.6,0.6,0.6,-0.6,-0.6,right,R,,,,,0,1,1,1,0,17,17,48,,,,,,,,,,,,,,,,,,,,,,,,,,,,,,,,,,,,,,,,,,,,186.74496320000617,None,right,1,1.4746343999868259,187.24493349995464,None,187.24493349995464,190.25024389999453,187.24493349995464,190.25024389999453,187.24493349995464,190.25024389999453,187.24493349995464,190.25024389999453,187.24493349995464,190.25024389999453,190.23341210000217,190.7342684000032,190.23341210000217,190.7342684000032,190.23341210000217,190.7342684000032,190.23341210000217,190.7342684000032,190.23341210000217,190.7342684000032,190.23341210000217,190.7342684000032,190.23341210000217,190.7342684000032,190.23341210000217,190.7342684000032,187.24493349995464,None,190.7342684000032,190.7342684000032,3.0000000000000027,190.76830759999575,None,191.51874669996323,None,,,,,,,0,1.2500000000000007,0.6666666666666666,12002,001,2024_Jun_02_1758,MFTM_A_new1021,2021.2.3,59.78694324149237,
,,,,,,,,stim/Instruction_adaptive.png,conditions/adaptive.xlsx,test,-0.6,-0.6,-0.6,0.6,0.6,left,L,,,,,0,1,1,1,0,18,18,71,,,,,,,,,,,,,,,,,,,,,,,,,,,,,,,,,,,,,,,,,,,,192.01940569997532,None,left,1,1.0315085999900475,192.5204235999845,None,192.5204235999845,195.29128659999697,192.5204235999845,195.29128659999697,192.5204235999845,195.29128659999697,192.5204235999845,195.29128659999697,192.5204235999845,195.29128659999697,195.2747101999703,195.7750785999815,195.2747101999703,195.7750785999815,195.2747101999703,195.7750785999815,195.2747101999703,195.7750785999815,195.2747101999703,195.7750785999815,195.2747101999703,195.7750785999815,195.2747101999703,195.7750785999815,195.2747101999703,195.7750785999815,192.5204235999845,None,195.7750785999815,195.7750785999815,2.7700000000000022,195.79130340000847,None,196.54319559998112,None,,,,,,,0,1.3700000000000008,0.6842105263157895,12002,001,2024_Jun_02_1758,MFTM_A_new1021,2021.2.3,59.78694324149237,
,,,,,,,,stim/Instruction_adaptive.png,conditions/adaptive.xlsx,test,0.6,0.6,0.6,-0.6,-0.6,right,R,,,,,0,1,1,1,0,19,19,62,,,,,,,,,,,,,,,,,,,,,,,,,,,,,,,,,,,,,,,,,,,,197.04416449996643,None,right,1,2.9674242000328377,197.54451330000302,None,197.54451330000302,200.0983806999866,197.54451330000302,200.0983806999866,197.54451330000302,200.0983806999866,197.54451330000302,200.0983806999866,197.54451330000302,200.0983806999866,200.0817878000089,200.58266239997465,200.0817878000089,200.58266239997465,200.0817878000089,200.58266239997465,200.0817878000089,200.58266239997465,200.0817878000089,200.58266239997465,200.0817878000089,200.58266239997465,200.0817878000089,200.58266239997465,200.0817878000089,200.58266239997465,197.54451330000302,None,200.58266239997465,200.58266239997465,2.550000000000002,200.61686989996815,None,201.36707059998298,None,,,,,,,0,1.4900000000000009,0.7,12002,001,2024_Jun_02_1758,MFTM_A_new1021,2021.2.3,59.78694324149237,
,,,,,,,,stim/Instruction_adaptive.png,conditions/adaptive.xlsx,test,0.6,0.6,0.6,-0.6,-0.6,right,R,,,,,0,1,1,1,0,20,20,66,,,,,,,,,,,,,,,,,,,,,,,,,,,,,,,,,,,,,,,,,,,,201.8676324999542,None,right,1,1.7672722999705002,202.3690965999849,205.22288199997274,202.3690965999849,204.72199270001147,202.3690965999849,204.72199270001147,202.3690965999849,204.72199270001147,202.3690965999849,204.72199270001147,202.3690965999849,204.72199270001147,204.6886225999915,205.18956699996488,204.6886225999915,205.18956699996488,204.6886225999915,205.18956699996488,204.6886225999915,205.18956699996488,204.6886225999915,205.18956699996488,204.6886225999915,205.18956699996488,204.6886225999915,205.18956699996488,204.6886225999915,205.18956699996488,202.3690965999849,None,205.18956699996488,205.3397479999694,2.3400000000000016,205.37378749996424,None,206.124341799994,None,,,,,,,[0.14285714],1.590000000000001,0.7142857142857143,12002,001,2024_Jun_02_1758,MFTM_A_new1021,2021.2.3,59.78694324149237,
,,,,,,,,stim/Instruction_adaptive.png,conditions/adaptive.xlsx,test,0.6,0.6,0.6,-0.6,-0.6,right,R,,,,,0,1,1,1,0,21,21,6,,,,,,,,,,,,,,,,,,,,,,,,,,,,,,,,,,,,,,,,,,,,206.62486399995396,None,right,1,1.3940962999477051,207.1258966999594,209.82944419997511,207.1258966999594,209.32906620000722,207.1258966999594,209.32906620000722,207.1258966999594,209.32906620000722,207.1258966999594,209.32906620000722,207.1258966999594,209.32906620000722,209.29562799999258,209.79682599997614,209.29562799999258,209.79682599997614,209.29562799999258,209.79682599997614,209.29562799999258,209.79682599997614,209.29562799999258,209.79682599997614,209.29562799999258,209.79682599997614,209.29562799999258,209.79682599997614,209.29562799999258,209.79682599997614,207.1258966999594,None,209.79682599997614,209.94669549999526,2.1900000000000017,209.97957809997024,None,210.73060799995437,None,,,,,,,[0.15045455],1.680000000000001,0.7272727272727273,12002,001,2024_Jun_02_1758,MFTM_A_new1021,2021.2.3,59.78694324149237,
,,,,,,,,stim/Instruction_adaptive.png,conditions/adaptive.xlsx,test,0.6,0.6,0.6,-0.6,-0.6,right,R,,,,,0,1,1,1,0,22,22,14,,,,,,,,,,,,,,,,,,,,,,,,,,,,,,,,,,,,,,,,,,,,211.23185789998388,None,right,1,2.0847467000130564,211.73186209995765,214.2867324000108,211.73186209995765,213.7858697999618,211.73186209995765,213.7858697999618,211.73186209995765,213.7858697999618,211.73186209995765,213.7858697999618,211.73186209995765,213.7858697999618,213.768830099958,214.26964929996757,213.768830099958,214.26964929996757,213.768830099958,214.26964929996757,213.768830099958,214.26964929996757,213.768830099958,214.26964929996757,213.768830099958,214.26964929996757,213.768830099958,214.26964929996757,213.768830099958,214.26964929996757,211.73186209995765,None,214.26964929996757,214.43628779996652,2.0500000000000016,214.4522100999602,None,215.20454690000042,None,,,,,,,[0.16347826],1.7600000000000011,0.7391304347826086,12002,001,2024_Jun_02_1758,MFTM_A_new1021,2021.2.3,59.78694324149237,
,,,,,,,,stim/Instruction_adaptive.png,conditions/adaptive.xlsx,test,-0.6,-0.6,-0.6,0.6,0.6,left,L,,,,,0,1,1,1,0,23,23,7,,,,,,,,,,,,,,,,,,,,,,,,,,,,,,,,,,,,,,,,,,,,215.70535939995898,None,left,1,1.1786252000019886,216.20556729997043,218.6592568999622,216.20556729997043,218.1590101000038,216.20556729997043,218.1590101000038,216.20556729997043,218.1590101000038,216.20556729997043,218.1590101000038,216.20556729997043,218.1590101000038,218.12544779997552,218.6256322999834,218.12544779997552,218.6256322999834,218.12544779997552,218.6256322999834,218.12544779997552,218.6256322999834,218.12544779997552,218.6256322999834,218.12544779997552,218.6256322999834,218.12544779997552,218.6256322999834,218.12544779997552,218.6256322999834,216.20556729997043,None,218.6256322999834,218.81009859999176,1.9400000000000015,218.825802700012,None,219.57797399995616,None,,,,,,,[0.18],1.8300000000000012,0.75,12002,001,2024_Jun_02_1758,MFTM_A_new1021,2021.2.3,59.78694324149237,
,,,,,,,,stim/Instruction_adaptive.png,conditions/adaptive.xlsx,test,0.6,0.6,0.6,-0.6,-0.6,right,R,,,,,0,1,1,1,0,24,24,84,,,,,,,,,,,,,,,,,,,,,,,,,,,,,,,,,,,,,,,,,,,,220.0787973999977,None,right,1,1.4779823999851942,220.5782947000116,222.93213359999936,220.5782947000116,222.43223370000487,220.5782947000116,222.43223370000487,220.5782947000116,222.43223370000487,220.5782947000116,222.43223370000487,220.5782947000116,222.43223370000487,222.41540379996877,222.9153770999983,222.41540379996877,222.9153770999983,222.41540379996877,222.9153770999983,222.41540379996877,222.9153770999983,222.41540379996877,222.9153770999983,222.41540379996877,222.9153770999983,222.41540379996877,222.9153770999983,222.41540379996877,222.9153770999983,220.5782947000116,None,222.9153770999983,223.11664319998818,1.8500000000000014,223.15065440000035,None,223.9011751000071,None,,,,,,,[0.1988],1.9000000000000012,0.76,12002,001,2024_Jun_02_1758,MFTM_A_new1021,2021.2.3,59.78694324149237,
,,,,,,,,stim/Instruction_adaptive.png,conditions/adaptive.xlsx,test,0.6,0.6,0.6,-0.6,-0.6,right,R,,,,,0,1,1,1,0,25,25,26,,,,,,,,,,,,,,,,,,,,,,,,,,,,,,,,,,,,,,,,,,,,224.4019887999748,None,left,0,1.458285300002899,224.90274109999882,227.17255809996277,224.90274109999882,226.67175809998298,224.90274109999882,226.67175809998298,224.90274109999882,226.67175809998298,224.90274109999882,226.67175809998298,224.90274109999882,226.67175809998298,226.6385631999583,227.13919349998469,226.6385631999583,227.13919349998469,226.6385631999583,227.13919349998469,226.6385631999583,227.13919349998469,226.6385631999583,227.13919349998469,226.6385631999583,227.13919349998469,226.6385631999583,227.13919349998469,226.6385631999583,227.13919349998469,224.90274109999882,None,227.13919349998469,227.37311449996196,1.7600000000000013,227.40672919998178,None,228.15764629998012,None,,,,,,,[0.21961538],1.710000000000001,0.7307692307692307,12002,001,2024_Jun_02_1758,MFTM_A_new1021,2021.2.3,59.78694324149237,
,,,,,,,,stim/Instruction_adaptive.png,conditions/adaptive.xlsx,test,0.6,0.6,0.6,-0.6,-0.6,right,R,,,,,0,1,1,1,0,26,26,70,,,,,,,,,,,,,,,,,,,,,,,,,,,,,,,,,,,,,,,,,,,,228.65798429999268,None,right,1,1.5540262999711558,229.15864290000172,231.67845710000256,229.15864290000172,231.1777557999594,229.15864290000172,231.1777557999594,229.15864290000172,231.1777557999594,229.15864290000172,231.1777557999594,229.15864290000172,231.1777557999594,231.1443420999567,231.64659879996907,231.1443420999567,231.64659879996907,231.1443420999567,231.64659879996907,231.1443420999567,231.64659879996907,231.1443420999567,231.64659879996907,231.1443420999567,231.64659879996907,231.1443420999567,231.64659879996907,231.1443420999567,231.64659879996907,229.15864290000172,None,231.64659879996907,231.87957389996154,2.0100000000000016,231.9302346999757,None,232.68148400000064,None,,,,,,,[0.22962963],1.7800000000000011,0.7407407407407407,12002,001,2024_Jun_02_1758,MFTM_A_new1021,2021.2.3,59.78694324149237,
,,,,,,,,stim/Instruction_adaptive.png,conditions/adaptive.xlsx,test,-0.6,-0.6,-0.6,0.6,0.6,left,L,,,,,0,1,1,1,0,27,27,53,,,,,,,,,,,,,,,,,,,,,,,,,,,,,,,,,,,,,,,,,,,,233.18169820000185,None,left,1,2.2387200000230223,233.68192659999477,236.10279259999515,233.68192659999477,235.60147160000633,233.68192659999477,235.60147160000633,233.68192659999477,235.60147160000633,233.68192659999477,235.60147160000633,233.68192659999477,235.60147160000633,235.58436049998272,236.08618879999267,235.58436049998272,236.08618879999267,235.58436049998272,236.08618879999267,235.58436049998272,236.08618879999267,235.58436049998272,236.08618879999267,235.58436049998272,236.08618879999267,235.58436049998272,236.08618879999267,235.58436049998272,236.08618879999267,233.68192659999477,None,236.08618879999267,236.3364273000043,1.9200000000000015,236.36982899997383,None,237.1206018999801,None,,,,,,,[0.24214286],1.8400000000000012,0.75,12002,001,2024_Jun_02_1758,MFTM_A_new1021,2021.2.3,59.78694324149237,
,,,,,,,,stim/Instruction_adaptive.png,conditions/adaptive.xlsx,test,-0.6,-0.6,-0.6,0.6,0.6,left,L,,,,,0,1,1,1,0,28,28,49,,,,,,,,,,,,,,,,,,,,,,,,,,,,,,,,,,,,,,,,,,,,237.62175200000638,None,left,1,1.462290399998892,238.1226311000064,240.47634900000412,238.1226311000064,239.97434720001183,238.1226311000064,239.97434720001183,238.1226311000064,239.97434720001183,238.1226311000064,239.97434720001183,238.1226311000064,239.97434720001183,239.94146929995622,240.44258329999866,239.94146929995622,240.44258329999866,239.94146929995622,240.44258329999866,239.94146929995622,240.44258329999866,239.94146929995622,240.44258329999866,239.94146929995622,240.44258329999866,239.94146929995622,240.44258329999866,239.94146929995622,240.44258329999866,238.1226311000064,None,240.44258329999866,240.70969180000247,1.8400000000000014,240.72570549999364,None,241.47670259996084,None,,,,,,,[0.25655172],1.9000000000000012,0.7586206896551724,12002,001,2024_Jun_02_1758,MFTM_A_new1021,2021.2.3,59.78694324149237,
,,,,,,,,stim/Instruction_adaptive.png,conditions/adaptive.xlsx,test,0.6,0.6,0.6,-0.6,-0.6,right,R,,,,,0,1,1,1,0,29,29,40,,,,,,,,,,,,,,,,,,,,,,,,,,,,,,,,,,,,,,,,,,,,241.97808520001126,None,left,0,2.0109420000226237,242.47883529996034,244.74922499997774,242.47883529996034,244.24845499999356,242.47883529996034,244.24845499999356,242.47883529996034,244.24845499999356,242.47883529996034,244.24845499999356,242.47883529996034,244.24845499999356,244.21402219997253,244.71585320000304,244.21402219997253,244.71585320000304,244.21402219997253,244.71585320000304,244.21402219997253,244.71585320000304,244.21402219997253,244.71585320000304,244.21402219997253,244.71585320000304,244.21402219997253,244.71585320000304,244.21402219997253,244.71585320000304,242.47883529996034,None,244.71585320000304,244.99938699998893,1.7600000000000013,245.0334630999714,None,245.7842589999782,None,,,,,,,[0.27266667],1.730000000000001,0.7333333333333333,12002,001,2024_Jun_02_1758,MFTM_A_new1021,2021.2.3,59.78694324149237,
,,,,,,,,stim/Instruction_adaptive.png,conditions/adaptive.xlsx,test,-0.6,-0.6,-0.6,0.6,0.6,left,L,,,,,0,1,1,1,0,30,30,25,,,,,,,,,,,,,,,,,,,,,,,,,,,,,,,,,,,,,,,,,,,,246.28492770000594,None,right,0,2.7122532000066712,246.7856552999583,249.27323240000987,246.7856552999583,248.77193290001014,246.7856552999583,248.77193290001014,246.7856552999583,248.77193290001014,246.7856552999583,248.77193290001014,246.7856552999583,248.77193290001014,248.7384082999779,249.23915869998746,248.7384082999779,249.23915869998746,248.7384082999779,249.23915869998746,248.7384082999779,249.23915869998746,248.7384082999779,249.23915869998746,248.7384082999779,249.23915869998746,248.7384082999779,249.23915869998746,248.7384082999779,249.23915869998746,246.7856552999583,None,249.23915869998746,249.52305439999327,1.9800000000000015,249.5731090999907,None,250.32383509998908,None,,,,,,,[0.28064516],1.540000000000001,0.7096774193548387,12002,001,2024_Jun_02_1758,MFTM_A_new1021,2021.2.3,59.78694324149237,
,,,,,,,,stim/Instruction_adaptive.png,conditions/adaptive.xlsx,test,-0.6,-0.6,-0.6,0.6,0.6,left,L,,,,,0,1,1,1,0,31,31,89,,,,,,,,,,,,,,,,,,,,,,,,,,,,,,,,,,,,,,,,,,,,250.8247532999958,None,left,1,1.7715497000026517,251.3257331000059,254.09576009999728,251.3257331000059,253.59584219998214,251.3257331000059,253.59584219998214,251.3257331000059,253.59584219998214,251.3257331000059,253.59584219998214,251.3257331000059,253.59584219998214,253.561850099999,254.0628401999711,253.561850099999,254.0628401999711,253.561850099999,254.0628401999711,253.561850099999,254.0628401999711,253.561850099999,254.0628401999711,253.561850099999,254.0628401999711,253.561850099999,254.0628401999711,253.561850099999,254.0628401999711,251.3257331000059,None,254.0628401999711,254.31346859998303,2.2600000000000016,254.34740379999857,None,255.09819250000874,None,,,,,,,[[0.24]],1.610000000000001,0.71875,12002,001,2024_Jun_02_1758,MFTM_A_new1021,2021.2.3,59.78694324149237,
,,,,,,,,stim/Instruction_adaptive.png,conditions/adaptive.xlsx,test,-0.6,-0.6,-0.6,0.6,0.6,left,L,,,,,0,1,1,1,0,32,32,77,,,,,,,,,,,,,,,,,,,,,,,,,,,,,,,,,,,,,,,,,,,,255.5988000999787,None,right,0,2.7259017000324093,256.0995912000071,258.77037039998686,256.0995912000071,258.2686457000091,256.0995912000071,258.2686457000091,256.0995912000071,258.2686457000091,256.0995912000071,258.2686457000091,256.0995912000071,258.2686457000091,258.236342899967,258.7367564999731,258.236342899967,258.7367564999731,258.236342899967,258.7367564999731,258.236342899967,258.7367564999731,258.236342899967,258.7367564999731,258.236342899967,258.7367564999731,258.236342899967,258.7367564999731,258.236342899967,258.7367564999731,256.0995912000071,None,258.7367564999731,259.0202856999822,2.160000000000002,259.0711941999616,None,259.8215753000113,None,,,,,,,[0.28121212],1.4200000000000008,0.696969696969697,12002,001,2024_Jun_02_1758,MFTM_A_new1021,2021.2.3,59.78694324149237,
,,,,,,,,stim/Instruction_adaptive.png,conditions/adaptive.xlsx,test,0.6,0.6,0.6,-0.6,-0.6,right,R,,,,,0,1,1,1,0,33,33,18,,,,,,,,,,,,,,,,,,,,,,,,,,,,,,,,,,,,,,,,,,,,260.3225084999576,None,right,1,2.8263626000261866,260.82337489997735,263.7942395999562,260.82337489997735,263.2938481000019,260.82337489997735,263.2938481000019,260.82337489997735,263.2938481000019,260.82337489997735,263.2938481000019,260.82337489997735,263.2938481000019,263.2604890000075,263.76071760000195,263.2604890000075,263.76071760000195,263.2604890000075,263.76071760000195,263.2604890000075,263.76071760000195,263.2604890000075,263.76071760000195,263.2604890000075,263.76071760000195,263.2604890000075,263.76071760000195,263.2604890000075,263.76071760000195,260.82337489997735,None,263.76071760000195,263.81125639996026,2.4600000000000017,263.82667939999374,None,264.5791354000103,None,,,,,,,[[0.04]],1.4900000000000009,0.7058823529411765,12002,001,2024_Jun_02_1758,MFTM_A_new1021,2021.2.3,59.78694324149237,
,,,,,,,,stim/Instruction_adaptive.png,conditions/adaptive.xlsx,test,-0.6,-0.6,-0.6,0.6,0.6,left,L,,,,,0,1,1,1,0,34,34,63,,,,,,,,,,,,,,,,,,,,,,,,,,,,,,,,,,,,,,,,,,,,265.0798616000102,None,left,1,1.318676199996844,265.5800024999771,268.4349797999603,265.5800024999771,267.9336420999607,265.5800024999771,267.9336420999607,265.5800024999771,267.9336420999607,265.5800024999771,267.9336420999607,265.5800024999771,267.9336420999607,267.89966170000844,268.401297000004,267.89966170000844,268.401297000004,267.89966170000844,268.401297000004,267.89966170000844,268.401297000004,267.89966170000844,268.401297000004,267.89966170000844,268.401297000004,267.89966170000844,268.401297000004,267.89966170000844,268.401297000004,265.5800024999771,None,268.401297000004,268.56853079999564,2.3400000000000016,268.6020284999977,None,269.3530002000043,None,,,,,,,[[0.16]],1.550000000000001,0.7142857142857143,12002,001,2024_Jun_02_1758,MFTM_A_new1021,2021.2.3,59.78694324149237,
,,,,,,,,stim/Instruction_adaptive.png,conditions/adaptive.xlsx,test,-0.6,-0.6,-0.6,0.6,0.6,left,L,,,,,0,1,1,1,0,35,35,33,,,,,,,,,,,,,,,,,,,,,,,,,,,,,,,,,,,,,,,,,,,,269.8536857999861,None,left,1,2.0232007000013255,270.35455709998496,273.1076732999645,270.35455709998496,272.6076488000108,270.35455709998496,272.6076488000108,270.35455709998496,272.6076488000108,270.35455709998496,272.6076488000108,270.35455709998496,272.6076488000108,272.5908783999621,273.0910470999661,272.5908783999621,273.0910470999661,272.5908783999621,273.0910470999661,272.5908783999621,273.0910470999661,272.5908783999621,273.0910470999661,272.5908783999621,273.0910470999661,272.5908783999621,273.0910470999661,272.5908783999621,273.0910470999661,270.35455709998496,None,273.0910470999661,273.3420123999822,2.2500000000000018,273.35837899998296,None,274.109187199967,None,,,,,,,[[0.25]],1.610000000000001,0.7222222222222222,12002,001,2024_Jun_02_1758,MFTM_A_new1021,2021.2.3,59.78694324149237,
,,,,,,,,stim/Instruction_adaptive.png,conditions/adaptive.xlsx,test,0.6,0.6,0.6,-0.6,-0.6,right,R,,,,,0,1,1,1,0,36,36,64,,,,,,,,,,,,,,,,,,,,,,,,,,,,,,,,,,,,,,,,,,,,274.6112677999772,None,right,1,1.1392401999910362,275.1110889999545,277.7822457999573,275.1110889999545,277.2807630999596,275.1110889999545,277.2807630999596,275.1110889999545,277.2807630999596,275.1110889999545,277.2807630999596,275.1110889999545,277.2807630999596,277.24817689997144,277.7489184999722,277.24817689997144,277.7489184999722,277.24817689997144,277.7489184999722,277.24817689997144,277.7489184999722,277.24817689997144,277.7489184999722,277.24817689997144,277.7489184999722,277.24817689997144,277.7489184999722,277.24817689997144,277.7489184999722,275.1110889999545,None,277.7489184999722,278.03266899997834,2.160000000000002,278.0483230999671,None,278.79972889996134,None,,,,,,,[0.27216216],1.670000000000001,0.7297297297297297,12002,001,2024_Jun_02_1758,MFTM_A_new1021,2021.2.3,59.78694324149237,
,,,,,,,,stim/Instruction_adaptive.png,conditions/adaptive.xlsx,test,0.6,0.6,0.6,-0.6,-0.6,right,R,,,,,0,1,1,1,0,37,37,78,,,,,,,,,,,,,,,,,,,,,,,,,,,,,,,,,,,,,,,,,,,,279.3011123999604,None,right,1,1.2008024000097066,279.8014450999908,282.37274249998154,279.8014450999908,281.8717522000079,279.8014450999908,281.8717522000079,279.8014450999908,281.8717522000079,279.8014450999908,281.8717522000079,279.8014450999908,281.8717522000079,281.8541365999845,282.35588829999324,281.8541365999845,282.35588829999324,281.8541365999845,282.35588829999324,281.8541365999845,282.35588829999324,281.8541365999845,282.35588829999324,281.8541365999845,282.35588829999324,281.8541365999845,282.35588829999324,281.8541365999845,282.35588829999324,279.8014450999908,None,282.35588829999324,282.6394215999753,2.0700000000000016,282.6558791999705,None,283.4077601999743,None,,,,,,,[0.27631579],1.720000000000001,0.7368421052631579,12002,001,2024_Jun_02_1758,MFTM_A_new1021,2021.2.3,59.78694324149237,
,,,,,,,,stim/Instruction_adaptive.png,conditions/adaptive.xlsx,test,-0.6,-0.6,-0.6,0.6,0.6,left,L,,,,,0,1,1,1,0,38,38,79,,,,,,,,,,,,,,,,,,,,,,,,,,,,,,,,,,,,,,,,,,,,283.9077756999759,None,left,1,1.1623732000007294,284.4078113999567,286.91233229998033,284.4078113999567,286.4119742999901,284.4078113999567,286.4119742999901,284.4078113999567,286.4119742999901,284.4078113999567,286.4119742999901,284.4078113999567,286.4119742999901,286.3951477999799,286.89574429998174,286.3951477999799,286.89574429998174,286.3951477999799,286.89574429998174,286.3951477999799,286.89574429998174,286.3951477999799,286.89574429998174,286.3951477999799,286.89574429998174,286.3951477999799,286.89574429998174,286.3951477999799,286.89574429998174,284.4078113999567,None,286.89574429998174,287.17991219996475,2.0000000000000018,287.2137309999671,None,287.9644124999759,None,,,,,,,[0.28205128],1.7700000000000011,0.7435897435897436,12002,001,2024_Jun_02_1758,MFTM_A_new1021,2021.2.3,59.78694324149237,
,,,,,,,,stim/Instruction_adaptive.png,conditions/adaptive.xlsx,test,-0.6,-0.6,-0.6,0.6,0.6,left,L,,,,,0,1,1,1,0,39,39,91,,,,,,,,,,,,,,,,,,,,,,,,,,,,,,,,,,,,,,,,,,,,288.4651872999966,None,left,1,2.0610111000132747,288.9657419999712,291.4017980999779,288.9657419999712,290.9022194999852,288.9657419999712,290.9022194999852,288.9657419999712,290.9022194999852,288.9657419999712,290.9022194999852,288.9657419999712,290.9022194999852,290.8686568000121,291.3695361999562,290.8686568000121,291.3695361999562,290.8686568000121,291.3695361999562,290.8686568000121,291.3695361999562,290.8686568000121,291.3695361999562,290.8686568000121,291.3695361999562,290.8686568000121,291.3695361999562,290.8686568000121,291.3695361999562,288.9657419999712,None,291.3695361999562,291.66965209995396,1.9300000000000015,291.6859237999888,None,292.4372681999812,None,,,,,,,[0.28925],1.8100000000000012,0.75,12002,001,2024_Jun_02_1758,MFTM_A_new1021,2021.2.3,59.78694324149237,
,,,,,,,,stim/Instruction_adaptive.png,conditions/adaptive.xlsx,test,-0.6,-0.6,-0.6,0.6,0.6,left,L,,,,,0,1,1,1,0,40,40,47,,,,,,,,,,,,,,,,,,,,,,,,,,,,,,,,,,,,,,,,,,,,292.9382536999765,None,right,0,2.0689124999917112,293.4380000999663,295.8260287999874,293.4380000999663,295.32570779998787,293.4380000999663,295.32570779998787,293.4380000999663,295.32570779998787,293.4380000999663,295.32570779998787,293.4380000999663,295.32570779998787,295.3084183000028,295.809542700008,295.3084183000028,295.809542700008,295.3084183000028,295.809542700008,295.3084183000028,295.809542700008,295.3084183000028,295.809542700008,295.3084183000028,295.809542700008,295.3084183000028,295.809542700008,295.3084183000028,295.809542700008,293.4380000999663,None,295.809542700008,296.1097324999864,1.8800000000000014,296.144159199961,None,296.89498619997175,None,,,,,,,[0.29731707],1.680000000000001,0.7317073170731707,12002,001,2024_Jun_02_1758,MFTM_A_new1021,2021.2.3,59.78694324149237,
,,,,,,,,stim/Instruction_adaptive.png,conditions/adaptive.xlsx,test,-0.6,-0.6,-0.6,0.6,0.6,left,L,,,,,0,1,1,1,0,41,41,41,,,,,,,,,,,,,,,,,,,,,,,,,,,,,,,,,,,,,,,,,,,,297.3951187999919,None,left,1,2.2839123000157997,297.8950533999596,300.4494445999735,297.8950533999596,299.948690899997,297.8950533999596,299.948690899997,297.8950533999596,299.948690899997,297.8950533999596,299.948690899997,297.8950533999596,299.948690899997,299.9314863999607,300.43309969996335,299.9314863999607,300.43309969996335,299.9314863999607,300.43309969996335,299.9314863999607,300.43309969996335,299.9314863999607,300.43309969996335,299.9314863999607,300.43309969996335,299.9314863999607,300.43309969996335,299.9314863999607,300.43309969996335,297.8950533999596,None,300.43309969996335,300.73355989996344,2.0500000000000016,300.7676283000037,None,301.5183229999966,None,,,,,,,[0.30095238],1.730000000000001,0.7380952380952381,12002,001,2024_Jun_02_1758,MFTM_A_new1021,2021.2.3,59.78694324149237,
,,,,,,,,stim/Instruction_adaptive.png,conditions/adaptive.xlsx,test,0.6,0.6,0.6,-0.6,-0.6,right,R,,,,,0,1,1,1,0,42,42,32,,,,,,,,,,,,,,,,,,,,,,,,,,,,,,,,,,,,,,,,,,,,302.0196919000009,None,right,1,1.5630185999907553,302.51951529999496,305.00583879998885,302.51951529999496,304.5050277999835,302.51951529999496,304.5050277999835,302.51951529999496,304.5050277999835,302.51951529999496,304.5050277999835,302.51951529999496,304.5050277999835,304.4884072999703,304.9889950999641,304.4884072999703,304.9889950999641,304.4884072999703,304.9889950999641,304.4884072999703,304.9889950999641,304.4884072999703,304.9889950999641,304.4884072999703,304.9889950999641,304.4884072999703,304.9889950999641,304.4884072999703,304.9889950999641,302.51951529999496,None,304.9729752999847,305.29046980000567,1.9800000000000015,305.3245641000103,None,306.07456479995744,None,,,,,,,[0.30604651],1.7700000000000011,0.7441860465116279,12002,001,2024_Jun_02_1758,MFTM_A_new1021,2021.2.3,59.78694324149237,
,,,,,,,,stim/Instruction_adaptive.png,conditions/adaptive.xlsx,test,0.6,0.6,0.6,-0.6,-0.6,right,R,,,,,0,1,1,1,0,43,43,56,,,,,,,,,,,,,,,,,,,,,,,,,,,,,,,,,,,,,,,,,,,,306.5757580999634,None,right,1,0.8065343000344001,307.07646119996207,309.5135571999708,307.07646119996207,309.0120556000038,307.07646119996207,309.0120556000038,307.07646119996207,309.0120556000038,307.07646119996207,309.0120556000038,307.07646119996207,309.0120556000038,308.99508540000534,309.4964887999813,308.99508540000534,309.4964887999813,308.99508540000534,309.4964887999813,308.99508540000534,309.4964887999813,308.99508540000534,309.4964887999813,308.99508540000534,309.4964887999813,308.99508540000534,309.4964887999813,308.99508540000534,309.4964887999813,307.07646119996207,None,309.480136499973,309.7970576999942,1.9300000000000015,309.8479254999547,None,310.59860149997985,None,,,,,,,[0.31204545],1.8100000000000012,0.75,12002,001,2024_Jun_02_1758,MFTM_A_new1021,2021.2.3,59.78694324149237,
,,,,,,,,stim/Instruction_adaptive.png,conditions/adaptive.xlsx,test,0.6,0.6,0.6,-0.6,-0.6,right,R,,,,,0,1,1,1,0,44,44,20,,,,,,,,,,,,,,,,,,,,,,,,,,,,,,,,,,,,,,,,,,,,311.0983969999943,None,right,1,1.6836384999915026,311.5994871999719,313.98621549998643,311.5994871999719,313.48531139997067,311.5994871999719,313.48531139997067,311.5994871999719,313.48531139997067,311.5994871999719,313.48531139997067,311.5994871999719,313.48531139997067,313.4695233000093,313.97011649998603,313.4695233000093,313.97011649998603,313.4695233000093,313.97011649998603,313.4695233000093,313.97011649998603,313.4695233000093,313.97011649998603,313.4695233000093,313.97011649998603,313.4695233000093,313.97011649998603,313.4695233000093,313.97011649998603,311.5994871999719,None,313.9534629000118,314.28710999997566,1.8800000000000014,314.30299219995504,None,315.0546059999615,None,,,,,,,[0.31888889],1.8500000000000012,0.7555555555555555,12002,001,2024_Jun_02_1758,MFTM_A_new1021,2021.2.3,59.78694324149237,
,,,,,,,,stim/Instruction_adaptive.png,conditions/adaptive.xlsx,test,0.6,0.6,0.6,-0.6,-0.6,right,R,,,,,0,1,1,1,0,45,45,38,,,,,,,,,,,,,,,,,,,,,,,,,,,,,,,,,,,,,,,,,,,,315.55602729995735,None,right,1,1.6676703999983147,316.05600659997435,318.37670129997423,316.05600659997435,317.8761370999855,316.05600659997435,317.8761370999855,316.05600659997435,317.8761370999855,316.05600659997435,317.8761370999855,316.05600659997435,317.8761370999855,317.8593407999724,318.3599322999944,317.8593407999724,318.3599322999944,317.8593407999724,318.3599322999944,317.8593407999724,318.3599322999944,317.8593407999724,318.3599322999944,317.8593407999724,318.3599322999944,317.8593407999724,318.3599322999944,317.8593407999724,318.3599322999944,316.05600659997435,None,318.3599322999944,318.6938943999703,1.8200000000000014,318.72767930000555,None,319.4785414999933,None,,,,,,,[0.32673913],1.8900000000000012,0.7608695652173914,12002,001,2024_Jun_02_1758,MFTM_A_new1021,2021.2.3,59.78694324149237,
,,,,,,,,stim/Instruction_adaptive.png,conditions/adaptive.xlsx,test,0.6,0.6,0.6,-0.6,-0.6,right,R,,,,,0,1,1,1,0,46,46,42,,,,,,,,,,,,,,,,,,,,,,,,,,,,,,,,,,,,,,,,,,,,319.97913639998296,None,right,1,1.371830800024327,320.4796094999765,322.766387199983,320.4796094999765,322.26597569999285,320.4796094999765,322.26597569999285,320.4796094999765,322.26597569999285,320.4796094999765,322.26597569999285,320.4796094999765,322.26597569999285,322.2325770999887,322.73343159997603,322.2325770999887,322.73343159997603,322.2325770999887,322.73343159997603,322.2325770999887,322.73343159997603,322.2325770999887,322.73343159997603,322.2325770999887,322.73343159997603,322.2325770999887,322.73343159997603,322.2325770999887,322.73343159997603,320.4796094999765,None,322.73343159997603,323.0830699999933,1.7800000000000014,323.0992702000076,None,323.8518844000064,None,,,,,,,[0.33510638],1.9300000000000013,0.7659574468085106,12002,001,2024_Jun_02_1758,MFTM_A_new1021,2021.2.3,59.78694324149237,
,,,,,,,,stim/Instruction_adaptive.png,conditions/adaptive.xlsx,test,0.6,0.6,0.6,-0.6,-0.6,right,R,,,,,0,1,1,1,0,47,47,86,,,,,,,,,,,,,,,,,,,,,,,,,,,,,,,,,,,,,,,,,,,,324.35250899998937,None,right,1,1.1991782000404783,324.85268489999,327.0896298000007,324.85268489999,326.58933889999753,324.85268489999,326.58933889999753,324.85268489999,326.58933889999753,324.85268489999,326.58933889999753,324.85268489999,326.58933889999753,326.5722325000097,327.0735353999771,326.5722325000097,327.0735353999771,326.5722325000097,327.0735353999771,326.5722325000097,327.0735353999771,326.5722325000097,327.0735353999771,326.5722325000097,327.0735353999771,326.5722325000097,327.0735353999771,326.5722325000097,327.0735353999771,324.85268489999,None,327.0735353999771,327.42369679996045,1.7300000000000013,327.4394134999602,None,328.19071529997746,None,,,,,,,[0.34416667],1.9700000000000013,0.7708333333333334,12002,001,2024_Jun_02_1758,MFTM_A_new1021,2021.2.3,59.78694324149237,
,,,,,,,,stim/Instruction_adaptive.png,conditions/adaptive.xlsx,test,0.6,0.6,0.6,-0.6,-0.6,right,R,,,,,0,1,1,1,0,48,48,4,,,,,,,,,,,,,,,,,,,,,,,,,,,,,,,,,,,,,,,,,,,,328.6924661999801,None,right,1,2.0029671999509446,329.1928498999914,331.379429899971,329.1928498999914,330.87866519996896,329.1928498999914,330.87866519996896,329.1928498999914,330.87866519996896,329.1928498999914,330.87866519996896,329.1928498999914,330.87866519996896,330.8620467999717,331.3626744999783,330.8620467999717,331.3626744999783,330.8620467999717,331.3626744999783,330.8620467999717,331.3626744999783,330.8620467999717,331.3626744999783,330.8620467999717,331.3626744999783,330.8620467999717,331.3626744999783,330.8620467999717,331.3626744999783,329.1928498999914,None,331.3626744999783,None,1.6800000000000013,331.74761099996977,None,332.49785739998333,None,,,,,,,[0.35387755],2.0000000000000013,0.7755102040816326,12002,001,2024_Jun_02_1758,MFTM_A_new1021,2021.2.3,59.78694324149237,
,,,,,,,,stim/Instruction_adaptive.png,conditions/adaptive.xlsx,test,0.6,0.6,0.6,-0.6,-0.6,right,R,,,,,0,1,1,1,0,49,49,92,,,,,,,,,,,,,,,,,,,,,,,,,,,,,,,,,,,,,,,,,,,,332.9981932999799,None,right,1,0.9758732000482269,333.4994965000078,335.6531209999812,333.4994965000078,335.15215400001034,333.4994965000078,335.15215400001034,333.4994965000078,335.15215400001034,333.4994965000078,335.15215400001034,333.4994965000078,335.15215400001034,335.1184198000119,335.6196888999548,335.1184198000119,335.6196888999548,335.1184198000119,335.6196888999548,335.1184198000119,335.6196888999548,335.1184198000119,335.6196888999548,335.1184198000119,335.6196888999548,335.1184198000119,335.6196888999548,335.1184198000119,335.6196888999548,333.4994965000078,None,335.6196888999548,335.9859507000074,1.6400000000000012,336.0023164000013,None,336.7535662999726,None,,,,,,,[0.364],2.030000000000001,0.78,12002,001,2024_Jun_02_1758,MFTM_A_new1021,2021.2.3,59.78694324149237,
,,,,,,,,stim/Instruction_adaptive.png,conditions/adaptive.xlsx,test,0.6,0.6,0.6,-0.6,-0.6,right,R,,,,,0,1,1,1,0,50,50,28,,,,,,,,,,,,,,,,,,,,,,,,,,,,,,,,,,,,,,,,,,,,337.25543849996757,None,right,1,1.3377284999587573,337.754771500011,339.8757474999875,337.754771500011,339.37513729999773,337.754771500011,339.37513729999773,337.754771500011,339.37513729999773,337.754771500011,339.37513729999773,337.754771500011,339.37513729999773,339.3584031999926,339.859476899961,339.3584031999926,339.859476899961,339.3584031999926,339.859476899961,339.3584031999926,339.859476899961,339.3584031999926,339.859476899961,339.3584031999926,339.859476899961,339.3584031999926,339.859476899961,339.3584031999926,339.859476899961,337.754771500011,None,339.859476899961,None,1.6100000000000012,340.2605067999684,None,341.0105857999879,None,,,,,,,[0.37431373],2.070000000000001,0.7843137254901961,12002,001,2024_Jun_02_1758,MFTM_A_new1021,2021.2.3,59.78694324149237,
,,,,,,,,stim/Instruction_adaptive.png,conditions/adaptive.xlsx,test,-0.6,-0.6,-0.6,0.6,0.6,left,L,,,,,0,1,1,1,0,51,51,43,,,,,,,,,,,,,,,,,,,,,,,,,,,,,,,,,,,,,,,,,,,,341.51155659998767,None,left,1,1.3767239000299014,342.01144699996803,344.08143349998863,342.01144699996803,343.581652999972,342.01144699996803,343.581652999972,342.01144699996803,343.581652999972,342.01144699996803,343.581652999972,342.01144699996803,343.581652999972,343.56381909997435,344.065651199955,343.56381909997435,344.065651199955,343.56381909997435,344.065651199955,343.56381909997435,344.065651199955,343.56381909997435,344.065651199955,343.56381909997435,344.065651199955,343.56381909997435,344.065651199955,343.56381909997435,344.065651199955,342.01144699996803,None,344.065651199955,None,1.5700000000000012,344.4833703999757,None,345.23373009997886,None,,,,,,,[0.385],2.1000000000000014,0.7884615384615384,12002,001,2024_Jun_02_1758,MFTM_A_new1021,2021.2.3,59.78694324149237,
,,,,,,,,stim/Instruction_adaptive.png,conditions/adaptive.xlsx,test,-0.6,-0.6,-0.6,0.6,0.6,left,L,,,,,0,1,1,1,0,52,52,59,,,,,,,,,,,,,,,,,,,,,,,,,,,,,,,,,,,,,,,,,,,,345.7348628999898,None,left,1,1.0727973000030033,346.23532749997685,348.2719580999692,346.23532749997685,347.7712338999845,346.23532749997685,347.7712338999845,346.23532749997685,347.7712338999845,346.23532749997685,347.7712338999845,346.23532749997685,347.7712338999845,347.75340909999795,348.2553052000003,347.75340909999795,348.2553052000003,347.75340909999795,348.2553052000003,347.75340909999795,348.2553052000003,347.75340909999795,348.2553052000003,347.75340909999795,348.2553052000003,347.75340909999795,348.2553052000003,347.75340909999795,348.2553052000003,346.23532749997685,None,348.2385324999923,348.63878819998354,1.5300000000000011,348.67128650000086,None,349.42375299998093,None,,,,,,,[0.39603774],2.1300000000000017,0.7924528301886793,12002,001,2024_Jun_02_1758,MFTM_A_new1021,2021.2.3,59.78694324149237,
,,,,,,,,stim/Instruction_adaptive.png,conditions/adaptive.xlsx,test,-0.6,-0.6,-0.6,0.6,0.6,left,L,,,,,0,1,1,1,0,53,53,75,,,,,,,,,,,,,,,,,,,,,,,,,,,,,,,,,,,,,,,,,,,,349.92449989996385,None,right,0,1.6988438999978825,350.4414534000098,352.4439662999939,350.4414534000098,351.943344099971,350.4414534000098,351.943344099971,350.4414534000098,351.943344099971,350.4414534000098,351.943344099971,350.4414534000098,351.943344099971,351.9106055999873,352.4113466999843,351.9106055999873,352.4113466999843,351.9106055999873,352.4113466999843,351.9106055999873,352.4113466999843,351.9106055999873,352.4113466999843,351.9106055999873,352.4113466999843,351.9106055999873,352.4113466999843,351.9106055999873,352.4113466999843,350.4414534000098,None,352.4113466999843,352.82860479998635,1.500000000000001,352.8794357999577,None,353.63015139999334,None,,,,,,,[0.40722222],2.0400000000000014,0.7777777777777778,12002,001,2024_Jun_02_1758,MFTM_A_new1021,2021.2.3,59.78694324149237,
,,,,,,,,stim/Instruction_adaptive.png,conditions/adaptive.xlsx,test,-0.6,-0.6,-0.6,0.6,0.6,left,L,,,,,0,1,1,1,0,54,54,9,,,,,,,,,,,,,,,,,,,,,,,,,,,,,,,,,,,,,,,,,,,,354.13082819996634,None,left,1,1.2453975999960676,354.63066359999357,356.7347965000081,354.63066359999357,356.2339353999705,354.63066359999357,356.2339353999705,354.63066359999357,356.2339353999705,354.63066359999357,356.2339353999705,354.63066359999357,356.2339353999705,356.217467200011,356.7180946999579,356.217467200011,356.7180946999579,356.217467200011,356.7180946999579,356.217467200011,356.7180946999579,356.217467200011,356.7180946999579,356.217467200011,356.7180946999579,356.217467200011,356.7180946999579,356.217467200011,356.7180946999579,354.63066359999357,None,356.7180946999579,357.13515459996415,1.6000000000000012,357.1693598999991,None,357.9198703999864,None,,,,,,,[0.41618182],2.070000000000001,0.7818181818181819,12002,001,2024_Jun_02_1758,MFTM_A_new1021,2021.2.3,59.78694324149237,
,,,,,,,,stim/Instruction_adaptive.png,conditions/adaptive.xlsx,test,0.6,0.6,0.6,-0.6,-0.6,right,R,,,,,0,1,1,1,0,55,55,68,,,,,,,,,,,,,,,,,,,,,,,,,,,,,,,,,,,,,,,,,,,,358.4206381000113,None,right,1,1.747054899984505,358.9210384999751,360.9909497000044,358.9210384999751,360.5072145999875,358.9210384999751,360.5072145999875,358.9210384999751,360.5072145999875,358.9210384999751,360.5072145999875,358.9210384999751,360.5072145999875,360.47303569997894,360.97446379996836,360.47303569997894,360.97446379996836,360.47303569997894,360.97446379996836,360.47303569997894,360.97446379996836,360.47303569997894,360.97446379996836,360.47303569997894,360.97446379996836,360.47303569997894,360.97446379996836,360.47303569997894,360.97446379996836,358.9210384999751,None,360.97446379996836,361.408563999983,1.5700000000000012,361.42401429999154,None,362.1757205000031,None,,,,,,,[0.42535714],2.1000000000000014,0.7857142857142857,12002,001,2024_Jun_02_1758,MFTM_A_new1021,2021.2.3,59.78694324149237,
,,,,,,,,stim/Instruction_adaptive.png,conditions/adaptive.xlsx,test,-0.6,-0.6,-0.6,0.6,0.6,left,L,,,,,0,1,1,1,0,56,56,37,,,,,,,,,,,,,,,,,,,,,,,,,,,,,,,,,,,,,,,,,,,,362.6770505000022,None,left,1,1.69136029999936,363.17680650000693,365.214176199981,363.17680650000693,364.7122522999998,363.17680650000693,364.7122522999998,363.17680650000693,364.7122522999998,363.17680650000693,364.7122522999998,363.17680650000693,364.7122522999998,364.69558609998785,365.1972252999549,364.69558609998785,365.1972252999549,364.69558609998785,365.1972252999549,364.69558609998785,365.1972252999549,364.69558609998785,365.1972252999549,364.69558609998785,365.1972252999549,364.69558609998785,365.1972252999549,364.69558609998785,365.1972252999549,363.17680650000693,None,365.1972252999549,365.6315382999601,1.5300000000000011,365.66497589997016,None,366.41584889998194,None,,,,,,,[0.43491228],2.1300000000000017,0.7894736842105263,12002,001,2024_Jun_02_1758,MFTM_A_new1021,2021.2.3,59.78694324149237,
,,,,,,,,stim/Instruction_adaptive.png,conditions/adaptive.xlsx,test,-0.6,-0.6,-0.6,0.6,0.6,left,L,,,,,0,1,1,1,0,57,57,95,,,,,,,,,,,,,,,,,,,,,,,,,,,,,,,,,,,,,,,,,,,,366.9171239999705,None,left,1,1.8747952000121586,367.41760869999416,369.42032869998366,367.41760869999416,368.91988790000323,367.41760869999416,368.91988790000323,367.41760869999416,368.91988790000323,367.41760869999416,368.91988790000323,367.41760869999416,368.91988790000323,368.90324139996665,369.4039033000008,368.90324139996665,369.4039033000008,368.90324139996665,369.4039033000008,368.90324139996665,369.4039033000008,368.90324139996665,369.4039033000008,368.90324139996665,369.4039033000008,368.90324139996665,369.4039033000008,368.90324139996665,369.4039033000008,367.41760869999416,None,369.4039033000008,369.8542382000014,1.500000000000001,369.8699133999762,None,370.6223290999769,None,,,,,,,[0.44465517],2.1500000000000012,0.7931034482758621,12002,001,2024_Jun_02_1758,MFTM_A_new1021,2021.2.3,59.78694324149237,
,,,,,,,,stim/Instruction_adaptive.png,conditions/adaptive.xlsx,test,-0.6,-0.6,-0.6,0.6,0.6,left,L,,,,,0,1,1,1,0,58,58,83,,,,,,,,,,,,,,,,,,,,,,,,,,,,,,,,,,,,,,,,,,,,371.12202169996453,None,right,0,1.494458900007885,371.6231068999623,373.60995670000557,371.6231068999623,373.10938909999095,371.6231068999623,373.10938909999095,371.6231068999623,373.10938909999095,371.6231068999623,373.10938909999095,371.6231068999623,373.10938909999095,373.0924715999863,373.59343839995563,373.0924715999863,373.59343839995563,373.0924715999863,373.59343839995563,373.0924715999863,373.59343839995563,373.0924715999863,373.59343839995563,373.0924715999863,373.59343839995563,373.0924715999863,373.59343839995563,373.0924715999863,373.59343839995563,371.6231068999623,None,373.59343839995563,None,1.480000000000001,374.07786279998254,None,374.8290312999743,None,,,,,,,[0.45440678],2.070000000000001,0.7796610169491526,12002,001,2024_Jun_02_1758,MFTM_A_new1021,2021.2.3,59.78694324149237,
,,,,,,,,stim/Instruction_adaptive.png,conditions/adaptive.xlsx,test,0.6,0.6,0.6,-0.6,-0.6,right,R,,,,,0,1,1,1,0,59,59,24,,,,,,,,,,,,,,,,,,,,,,,,,,,,,,,,,,,,,,,,,,,,375.3295028999564,None,left,0,1.7667211999651045,375.83030520001194,377.8998316999641,375.83030520001194,377.3993019000045,375.83030520001194,377.3993019000045,375.83030520001194,377.3993019000045,375.83030520001194,377.3993019000045,375.83030520001194,377.3993019000045,377.38263700000243,377.8832748999703,377.38263700000243,377.8832748999703,377.38263700000243,377.8832748999703,377.38263700000243,377.8832748999703,377.38263700000243,377.8832748999703,377.38263700000243,377.8832748999703,377.38263700000243,377.8832748999703,377.38263700000243,377.8832748999703,375.83030520001194,None,377.8832748999703,378.35113439999986,1.5700000000000012,378.38446199998725,None,379.1349609000026,None,,,,,,,[0.46233333],1.9900000000000013,0.7666666666666667,12002,001,2024_Jun_02_1758,MFTM_A_new1021,2021.2.3,59.78694324149237,
,,,,,,,,stim/Instruction_adaptive.png,conditions/adaptive.xlsx,test,-0.6,-0.6,-0.6,0.6,0.6,left,L,,,,,0,1,1,1,0,60,60,51,,,,,,,,,,,,,,,,,,,,,,,,,,,,,,,,,,,,,,,,,,,,379.63593549997313,None,left,1,1.3964047000044957,380.1363241999643,382.30624649999663,380.1363241999643,381.8057997999713,380.1363241999643,381.8057997999713,380.1363241999643,381.8057997999713,380.1363241999643,381.8057997999713,380.1363241999643,381.8057997999713,381.77251659997273,382.2733639999642,381.77251659997273,382.2733639999642,381.77251659997273,382.2733639999642,381.77251659997273,382.2733639999642,381.77251659997273,382.2733639999642,381.77251659997273,382.2733639999642,381.77251659997273,382.2733639999642,381.77251659997273,382.2733639999642,380.1363241999643,None,382.2733639999642,382.7571014999994,1.6600000000000013,382.79094509995775,None,383.54130109999096,None,,,,,,,[0.46852459],2.0200000000000014,0.7704918032786885,12002,001,2024_Jun_02_1758,MFTM_A_new1021,2021.2.3,59.78694324149237,
,,,,,,,,stim/Instruction_adaptive.png,conditions/adaptive.xlsx,test,0.6,0.6,0.6,-0.6,-0.6,right,R,,,,,0,1,1,1,0,61,61,10,,,,,,,,,,,,,,,,,,,,,,,,,,,,,,,,,,,,,,,,,,,,384.0425968999625,None,right,1,2.0220235000015236,384.5432344999863,386.6633512999979,384.5432344999863,386.16248519998044,384.5432344999863,386.16248519998044,384.5432344999863,386.16248519998044,384.5432344999863,386.16248519998044,384.5432344999863,386.16248519998044,386.1458204999799,386.6465446999646,386.1458204999799,386.6465446999646,386.1458204999799,386.6465446999646,386.1458204999799,386.6465446999646,386.1458204999799,386.6465446999646,386.1458204999799,386.6465446999646,386.1458204999799,386.6465446999646,386.1458204999799,386.6465446999646,384.5432344999863,None,386.6465446999646,387.13055090000853,1.6200000000000012,387.16466799995396,None,387.91538550000405,None,,,,,,,[0.47516129],2.0500000000000016,0.7741935483870968,12002,001,2024_Jun_02_1758,MFTM_A_new1021,2021.2.3,59.78694324149237,
,,,,,,,,stim/Instruction_adaptive.png,conditions/adaptive.xlsx,test,0.6,0.6,0.6,-0.6,-0.6,right,R,,,,,0,1,1,1,0,62,62,96,,,,,,,,,,,,,,,,,,,,,,,,,,,,,,,,,,,,,,,,,,,,388.41556659998605,None,right,1,1.5126139000058174,388.9161933999858,391.0198684000061,388.9161933999858,390.51795680000214,388.9161933999858,390.51795680000214,388.9161933999858,390.51795680000214,388.9161933999858,390.51795680000214,388.9161933999858,390.51795680000214,390.4845012999722,390.98548739997204,390.4845012999722,390.98548739997204,390.4845012999722,390.98548739997204,390.4845012999722,390.98548739997204,390.4845012999722,390.98548739997204,390.4845012999722,390.98548739997204,390.4845012999722,390.98548739997204,390.4845012999722,390.98548739997204,388.9161933999858,None,390.98548739997204,391.47043829999166,1.5900000000000012,391.50265929999296,None,392.2550018999609,None,,,,,,,[0.48206349],2.070000000000001,0.7777777777777778,12002,001,2024_Jun_02_1758,MFTM_A_new1021,2021.2.3,59.78694324149237,
,,,,,,,,stim/Instruction_adaptive.png,conditions/adaptive.xlsx,test,0.6,0.6,0.6,-0.6,-0.6,right,R,,,,,0,1,1,1,0,63,63,60,,,,,,,,,,,,,,,,,,,,,,,,,,,,,,,,,,,,,,,,,,,,392.755652599968,None,right,1,1.909390299988445,393.25626160000684,395.32582679996267,393.25626160000684,394.84220529999584,393.25626160000684,394.84220529999584,393.25626160000684,394.84220529999584,393.25626160000684,394.84220529999584,393.25626160000684,394.84220529999584,394.8083228999749,395.3095228999737,394.8083228999749,395.3095228999737,394.8083228999749,395.3095228999737,394.8083228999749,395.3095228999737,394.8083228999749,395.3095228999737,394.8083228999749,395.3095228999737,394.8083228999749,395.3095228999737,394.8083228999749,395.3095228999737,393.25626160000684,None,395.3095228999737,395.8093269999954,1.5700000000000012,395.8429510999704,None,396.5937928999774,None,,,,,,,[0.4890625],2.1000000000000014,0.78125,12002,001,2024_Jun_02_1758,MFTM_A_new1021,2021.2.3,59.78694324149237,
,,,,,,,,stim/Instruction_adaptive.png,conditions/adaptive.xlsx,test,0.6,0.6,0.6,-0.6,-0.6,right,R,,,,,0,1,1,1,0,64,64,58,,,,,,,,,,,,,,,,,,,,,,,,,,,,,,,,,,,,,,,,,,,,397.09453559998656,None,right,1,1.5380935000139289,397.59514359995956,399.631562799972,397.59514359995956,399.13133790000575,397.59514359995956,399.13133790000575,397.59514359995956,399.13133790000575,397.59514359995956,399.13133790000575,397.59514359995956,399.13133790000575,399.1145295999595,399.6148451999761,399.1145295999595,399.6148451999761,399.1145295999595,399.6148451999761,399.1145295999595,399.6148451999761,399.1145295999595,399.6148451999761,399.1145295999595,399.6148451999761,399.1145295999595,399.6148451999761,399.1145295999595,399.6148451999761,397.59514359995956,None,399.59811099997023,400.0989971999661,1.5300000000000011,400.132593599963,None,400.883405999979,None,,,,,,,[0.49646154],2.1300000000000017,0.7846153846153846,12002,001,2024_Jun_02_1758,MFTM_A_new1021,2021.2.3,59.78694324149237,
,,,,,,,,stim/Instruction_adaptive.png,conditions/adaptive.xlsx,test,-0.6,-0.6,-0.6,0.6,0.6,left,L,,,,,0,1,1,1,0,65,65,3,,,,,,,,,,,,,,,,,,,,,,,,,,,,,,,,,,,,,,,,,,,,401.38504309998825,None,left,1,1.6960495000239462,401.8861647999729,403.88944719999563,401.8861647999729,403.3873913999996,401.8861647999729,403.3873913999996,401.8861647999729,403.3873913999996,401.8861647999729,403.3873913999996,401.8861647999729,403.3873913999996,403.3708580000093,403.8714619000093,403.3708580000093,403.8714619000093,403.3708580000093,403.8714619000093,403.3708580000093,403.8714619000093,403.3708580000093,403.8714619000093,403.3708580000093,403.8714619000093,403.3708580000093,403.8714619000093,403.3708580000093,403.8714619000093,401.8861647999729,None,403.8714619000093,None,1.500000000000001,404.3886575999786,None,405.1398862999631,None,,,,,,,[0.50409091],2.1500000000000012,0.7878787878787878,12002,001,2024_Jun_02_1758,MFTM_A_new1021,2021.2.3,59.78694324149237,
,,,,,,,,stim/Instruction_adaptive.png,conditions/adaptive.xlsx,test,0.6,0.6,0.6,-0.6,-0.6,right,R,,,,,0,1,1,1,0,66,66,80,,,,,,,,,,,,,,,,,,,,,,,,,,,,,,,,,,,,,,,,,,,,405.6413360000006,None,right,1,1.559310699987691,406.1422231000033,408.1288270999794,406.1422231000033,407.628190599964,406.1422231000033,407.628190599964,406.1422231000033,407.628190599964,406.1422231000033,407.628190599964,406.1422231000033,407.628190599964,407.6115583999781,408.1112199999625,407.6115583999781,408.1112199999625,407.6115583999781,408.1112199999625,407.6115583999781,408.1112199999625,407.6115583999781,408.1112199999625,407.6115583999781,408.1112199999625,407.6115583999781,408.1112199999625,407.6115583999781,408.1112199999625,406.1422231000033,None,408.1112199999625,408.6295452999766,1.480000000000001,408.6453304999741,None,409.3967008999898,None,,,,,,,[0.51179104],2.1700000000000017,0.7910447761194029,12002,001,2024_Jun_02_1758,MFTM_A_new1021,2021.2.3,59.78694324149237,
,,,,,,,,stim/Instruction_adaptive.png,conditions/adaptive.xlsx,test,-0.6,-0.6,-0.6,0.6,0.6,left,L,,,,,0,1,1,1,0,67,67,1,,,,,,,,,,,,,,,,,,,,,,,,,,,,,,,,,,,,,,,,,,,,409.8981877999613,None,left,1,0.7996457999688573,410.39829300000565,412.3681416999898,410.39829300000565,411.8678316999576,410.39829300000565,411.8678316999576,410.39829300000565,411.8678316999576,410.39829300000565,411.8678316999576,410.39829300000565,411.8678316999576,411.8341943999985,412.33426059997873,411.8341943999985,412.33426059997873,411.8341943999985,412.33426059997873,411.8341943999985,412.33426059997873,411.8341943999985,412.33426059997873,411.8341943999985,412.33426059997873,411.8341943999985,412.33426059997873,411.8341943999985,412.33426059997873,410.39829300000565,None,412.33426059997873,412.8689819999854,1.460000000000001,412.8856336000026,None,413.6371469000005,None,,,,,,,[0.51955882],2.2000000000000015,0.7941176470588235,12002,001,2024_Jun_02_1758,MFTM_A_new1021,2021.2.3,59.78694324149237,
,,,,,,,,stim/Instruction_adaptive.png,conditions/adaptive.xlsx,test,-0.6,-0.6,-0.6,0.6,0.6,left,L,,,,,0,1,1,1,0,68,68,5,,,,,,,,,,,,,,,,,,,,,,,,,,,,,,,,,,,,,,,,,,,,414.13814519997686,None,left,1,1.4320558999897912,414.6380358999595,416.57475470000645,414.6380358999595,416.0738717999775,414.6380358999595,416.0738717999775,414.6380358999595,416.0738717999775,414.6380358999595,416.0738717999775,414.6380358999595,416.0738717999775,416.0568488999852,416.5577140999958,416.0568488999852,416.5577140999958,416.0568488999852,416.5577140999958,416.0568488999852,416.5577140999958,416.0568488999852,416.5577140999958,416.0568488999852,416.5577140999958,416.0568488999852,416.5577140999958,416.0568488999852,416.5577140999958,414.6380358999595,None,416.5577140999958,417.0923221000121,1.430000000000001,417.1263833999983,None,417.87694339995505,None,,,,,,,[0.52753623],2.2200000000000015,0.7971014492753623,12002,001,2024_Jun_02_1758,MFTM_A_new1021,2021.2.3,59.78694324149237,
,,,,,,,,stim/Instruction_adaptive.png,conditions/adaptive.xlsx,test,0.6,0.6,0.6,-0.6,-0.6,right,R,,,,,0,1,1,1,0,69,69,76,,,,,,,,,,,,,,,,,,,,,,,,,,,,,,,,,,,,,,,,,,,,418.37781149998773,None,right,1,0.9996266000089236,418.8783695999882,420.7978521999903,418.8783695999882,420.2962615999859,418.8783695999882,420.2962615999859,418.8783695999882,420.2962615999859,418.8783695999882,420.2962615999859,418.8783695999882,420.2962615999859,420.2628307999694,420.76464579999447,420.2628307999694,420.76464579999447,420.2628307999694,420.76464579999447,420.2628307999694,420.76464579999447,420.2628307999694,420.76464579999447,420.2628307999694,420.76464579999447,420.2628307999694,420.76464579999447,420.2628307999694,420.76464579999447,418.8783695999882,None,420.76464579999447,421.3152528000064,1.410000000000001,421.3314319999772,None,422.0837290000054,None,,,,,,,[0.53557143],2.2400000000000015,0.8,12002,001,2024_Jun_02_1758,MFTM_A_new1021,2021.2.3,59.78694324149237,
,,,,,,,,stim/Instruction_adaptive.png,conditions/adaptive.xlsx,test,-0.6,-0.6,-0.6,0.6,0.6,left,L,,,,,0,1,1,1,0,70,70,55,,,,,,,,,,,,,,,,,,,,,,,,,,,,,,,,,,,,,,,,,,,,422.58379149995744,None,left,1,1.2658713000128046,423.08422560000326,424.98734819999663,423.08422560000326,424.4865860999562,423.08422560000326,424.4865860999562,423.08422560000326,424.4865860999562,423.08422560000326,424.4865860999562,423.08422560000326,424.4865860999562,424.4533595999819,424.9541341000004,424.4533595999819,424.9541341000004,424.4533595999819,424.9541341000004,424.4533595999819,424.9541341000004,424.4533595999819,424.9541341000004,424.4533595999819,424.9541341000004,424.4533595999819,424.9541341000004,424.4533595999819,424.9541341000004,423.08422560000326,None,424.9541341000004,425.50512290000916,1.390000000000001,425.52084700000705,None,426.2725564999855,None,,,,,,,[0.54366197],2.2700000000000014,0.8028169014084507,12002,001,2024_Jun_02_1758,MFTM_A_new1021,2021.2.3,59.78694324149237,
,,,,,,,,stim/Instruction_adaptive.png,conditions/adaptive.xlsx,test,0.6,0.6,0.6,-0.6,-0.6,right,R,,,,,0,1,1,1,0,71,71,2,,,,,,,,,,,,,,,,,,,,,,,,,,,,,,,,,,,,,,,,,,,,426.7736210000003,None,left,0,2.05391120002605,427.2733622000087,429.1437245999696,427.2733622000087,428.64215599995805,427.2733622000087,428.64215599995805,427.2733622000087,428.64215599995805,427.2733622000087,428.64215599995805,427.2733622000087,428.64215599995805,428.6262589999824,429.1271334000048,428.6262589999824,429.1271334000048,428.6262589999824,429.1271334000048,428.6262589999824,429.1271334000048,428.6262589999824,429.1271334000048,428.6262589999824,429.1271334000048,428.6262589999824,429.1271334000048,428.6262589999824,429.1271334000048,427.2733622000087,None,429.1271334000048,None,1.360000000000001,429.71140279999236,None,430.46256809995975,None,,,,,,,[0.55194444],2.2000000000000015,0.7916666666666666,12002,001,2024_Jun_02_1758,MFTM_A_new1021,2021.2.3,59.78694324149237,
,,,,,,,,stim/Instruction_adaptive.png,conditions/adaptive.xlsx,test,0.6,0.6,0.6,-0.6,-0.6,right,R,,,,,0,1,1,1,0,72,72,8,,,,,,,,,,,,,,,,,,,,,,,,,,,,,,,,,,,,,,,,,,,,430.96327929996187,None,right,1,1.215070799982641,431.46351480000885,433.3999053000007,431.46351480000885,432.89900789997773,431.46351480000885,432.89900789997773,431.46351480000885,432.89900789997773,431.46351480000885,432.89900789997773,431.46351480000885,432.89900789997773,432.8825619999552,433.3833066999796,432.8825619999552,433.3833066999796,432.8825619999552,433.3833066999796,432.8825619999552,433.3833066999796,432.8825619999552,433.3833066999796,432.8825619999552,433.3833066999796,432.8825619999552,433.3833066999796,432.8825619999552,433.3833066999796,431.46351480000885,None,433.3833066999796,433.9512690999545,1.430000000000001,433.9849366999697,None,434.7356879999861,None,,,,,,,[0.5590411],2.2200000000000015,0.7945205479452054,12002,001,2024_Jun_02_1758,MFTM_A_new1021,2021.2.3,59.78694324149237,
,,,,,,,,stim/Instruction_adaptive.png,conditions/adaptive.xlsx,test,-0.6,-0.6,-0.6,0.6,0.6,left,L,,,,,0,1,1,1,0,73,73,11,,,,,,,,,,,,,,,,,,,,,,,,,,,,,,,,,,,,,,,,,,,,435.23643409996293,None,left,1,1.5971887999912724,435.7370215000119,437.65680609998526,435.7370215000119,437.15631609997945,435.7370215000119,437.15631609997945,435.7370215000119,437.15631609997945,435.7370215000119,437.15631609997945,435.7370215000119,437.15631609997945,437.12254609999945,437.6229930999689,437.12254609999945,437.6229930999689,437.12254609999945,437.6229930999689,437.12254609999945,437.6229930999689,437.12254609999945,437.6229930999689,437.12254609999945,437.6229930999689,437.12254609999945,437.6229930999689,437.12254609999945,437.6229930999689,435.7370215000119,None,437.6229930999689,438.1907141999691,1.410000000000001,438.22299219999695,None,438.97519480000483,None,,,,,,,[0.56621622],2.2500000000000018,0.7972972972972973,12002,001,2024_Jun_02_1758,MFTM_A_new1021,2021.2.3,59.78694324149237,
,,,,,,,,stim/Instruction_adaptive.png,conditions/adaptive.xlsx,test,-0.6,-0.6,-0.6,0.6,0.6,left,L,,,,,0,1,1,1,0,74,74,13,,,,,,,,,,,,,,,,,,,,,,,,,,,,,,,,,,,,,,,,,,,,439.47613909997744,None,right,0,1.9112687000306323,439.97635620000074,441.8630983000039,439.97635620000074,441.36224099999527,439.97635620000074,441.36224099999527,439.97635620000074,441.36224099999527,439.97635620000074,441.36224099999527,439.97635620000074,441.36224099999527,441.34577309997985,441.8463297999697,441.34577309997985,441.8463297999697,441.34577309997985,441.8463297999697,441.34577309997985,441.8463297999697,441.34577309997985,441.8463297999697,441.34577309997985,441.8463297999697,441.34577309997985,441.8463297999697,441.34577309997985,441.8463297999697,439.97635620000074,None,441.8463297999697,None,1.380000000000001,442.44768569996813,None,443.1980257999967,None,,,,,,,[0.5736],2.1800000000000015,0.7866666666666666,12002,001,2024_Jun_02_1758,MFTM_A_new1021,2021.2.3,59.78694324149237,
,,,,,,,,stim/Instruction_adaptive.png,conditions/adaptive.xlsx,test,0.6,0.6,0.6,-0.6,-0.6,right,R,,,,,0,1,1,1,0,75,75,36,,,,,,,,,,,,,,,,,,,,,,,,,,,,,,,,,,,,,,,,,,,,443.6991979999584,None,right,1,1.7433430000091903,444.1996530999895,446.1526303999708,444.1996530999895,445.6519868999603,444.1996530999895,445.6519868999603,444.1996530999895,445.6519868999603,444.1996530999895,445.6519868999603,444.1996530999895,445.6519868999603,445.63520660001086,446.1366357000079,445.63520660001086,446.1366357000079,445.63520660001086,446.1366357000079,445.63520660001086,446.1366357000079,445.63520660001086,446.1366357000079,445.63520660001086,446.1366357000079,445.63520660001086,446.1366357000079,445.63520660001086,446.1366357000079,444.1996530999895,None,446.1366357000079,446.72021739999764,1.450000000000001,446.7542975000106,None,447.5051180999726,None,,,,,,,[0.57986842],2.2000000000000015,0.7894736842105263,12002,001,2024_Jun_02_1758,MFTM_A_new1021,2021.2.3,59.78694324149237,
,,,,,,,,stim/Instruction_adaptive.png,conditions/adaptive.xlsx,test,-0.6,-0.6,-0.6,0.6,0.6,left,L,,,,,0,1,1,1,0,76,76,87,,,,,,,,,,,,,,,,,,,,,,,,,,,,,,,,,,,,,,,,,,,,448.0058161999914,None,left,1,1.3402299999725074,448.50652469997294,450.44155819999287,448.50652469997294,449.9413981999969,448.50652469997294,449.9413981999969,448.50652469997294,449.9413981999969,448.50652469997294,449.9413981999969,448.50652469997294,449.9413981999969,449.9247892999556,450.4256244999706,449.9247892999556,450.4256244999706,449.9247892999556,450.4256244999706,449.9247892999556,450.4256244999706,449.9247892999556,450.4256244999706,449.9247892999556,450.4256244999706,449.9247892999556,450.4256244999706,449.9247892999556,450.4256244999706,448.50652469997294,None,450.409353199997,451.01004570000805,1.430000000000001,451.02623369998764,None,451.77807559998473,None,,,,,,,[0.58623377],2.2300000000000013,0.7922077922077922,12002,001,2024_Jun_02_1758,MFTM_A_new1021,2021.2.3,59.78694324149237,
,,,,,,,,stim/Instruction_adaptive.png,conditions/adaptive.xlsx,test,0.6,0.6,0.6,-0.6,-0.6,right,R,,,,,0,1,1,1,0,77,77,22,,,,,,,,,,,,,,,,,,,,,,,,,,,,,,,,,,,,,,,,,,,,452.2785328999744,None,right,1,1.2768464000546373,452.77885969995987,454.6823919999879,452.77885969995987,454.1816548999632,452.77885969995987,454.1816548999632,452.77885969995987,454.1816548999632,452.77885969995987,454.1816548999632,452.77885969995987,454.1816548999632,454.1646901000058,454.66581989999395,454.1646901000058,454.66581989999395,454.1646901000058,454.66581989999395,454.1646901000058,454.66581989999395,454.1646901000058,454.66581989999395,454.1646901000058,454.66581989999395,454.1646901000058,454.66581989999395,454.1646901000058,454.66581989999395,452.77885969995987,None,454.66581989999395,455.2660647999728,1.400000000000001,455.30068099999335,None,456.0510248999926,None,,,,,,,[0.59282051],2.2500000000000018,0.7948717948717948,12002,001,2024_Jun_02_1758,MFTM_A_new1021,2021.2.3,59.78694324149237,
,,,,,,,,stim/Instruction_adaptive.png,conditions/adaptive.xlsx,test,0.6,0.6,0.6,-0.6,-0.6,right,R,,,,,0,1,1,1,0,78,78,16,,,,,,,,,,,,,,,,,,,,,,,,,,,,,,,,,,,,,,,,,,,,456.5519716999843,None,right,1,1.154025299998466,457.05277169996407,458.93864760000724,457.05277169996407,458.4381451999652,457.05277169996407,458.4381451999652,457.05277169996407,458.4381451999652,457.05277169996407,458.4381451999652,457.05277169996407,458.4381451999652,458.42149499995867,458.92218150000554,458.42149499995867,458.92218150000554,458.42149499995867,458.92218150000554,458.42149499995867,458.92218150000554,458.42149499995867,458.92218150000554,458.42149499995867,458.92218150000554,458.42149499995867,458.92218150000554,458.42149499995867,458.92218150000554,457.05277169996407,None,458.92218150000554,459.5230883999611,1.380000000000001,459.5389974999707,None,460.2910600999603,None,,,,,,,[0.59949367],2.2700000000000014,0.7974683544303798,12002,001,2024_Jun_02_1758,MFTM_A_new1021,2021.2.3,59.78694324149237,
,,,,,,,,stim/Instruction_adaptive.png,conditions/adaptive.xlsx,test,-0.6,-0.6,-0.6,0.6,0.6,left,L,,,,,0,1,1,1,0,79,79,21,,,,,,,,,,,,,,,,,,,,,,,,,,,,,,,,,,,,,,,,,,,,460.7917050999822,None,left,1,1.2107873000204563,461.29216159996577,463.1616992999916,461.29216159996577,462.6612550999853,461.29216159996577,462.6612550999853,461.29216159996577,462.6612550999853,461.29216159996577,462.6612550999853,461.29216159996577,462.6612550999853,462.6278224999551,463.1285118999658,462.6278224999551,463.1285118999658,462.6278224999551,463.1285118999658,462.6278224999551,463.1285118999658,462.6278224999551,463.1285118999658,462.6278224999551,463.1285118999658,462.6278224999551,463.1285118999658,462.6278224999551,463.1285118999658,461.29216159996577,None,463.1285118999658,463.74544569995487,1.360000000000001,463.7617212999612,None,464.51419229997555,None,,,,,,,[0.60625],2.290000000000002,0.8,12002,001,2024_Jun_02_1758,MFTM_A_new1021,2021.2.3,59.78694324149237,
,,,,,,,,stim/Instruction_adaptive.png,conditions/adaptive.xlsx,test,-0.6,-0.6,-0.6,0.6,0.6,left,L,,,,,0,1,1,1,0,80,80,31,,,,,,,,,,,,,,,,,,,,,,,,,,,,,,,,,,,,,,,,,,,,465.0136369999964,None,left,1,1.43729460000759,465.51450019999174,467.36817209998844,465.51450019999174,466.86739430000307,465.51450019999174,466.86739430000307,465.51450019999174,466.86739430000307,465.51450019999174,466.86739430000307,465.51450019999174,466.86739430000307,466.8506644999725,467.3512382999761,466.8506644999725,467.3512382999761,466.8506644999725,467.3512382999761,466.8506644999725,467.3512382999761,466.8506644999725,467.3512382999761,466.8506644999725,467.3512382999761,466.8506644999725,467.3512382999761,466.8506644999725,467.3512382999761,465.51450019999174,None,467.3512382999761,467.96833750000224,1.350000000000001,467.98506829998223,None,468.73733619996347,None,,,,,,,[0.61296296],2.3100000000000014,0.8024691358024691,12002,001,2024_Jun_02_1758,MFTM_A_new1021,2021.2.3,59.78694324149237,
,,,,,,,,stim/Instruction_adaptive.png,conditions/adaptive.xlsx,test,-0.6,-0.6,-0.6,0.6,0.6,left,L,,,,,0,1,1,1,0,81,81,45,,,,,,,,,,,,,,,,,,,,,,,,,,,,,,,,,,,,,,,,,,,,469.23759499995504,None,left,1,0.981789099983871,469.7380393999629,471.5743416000041,469.7380393999629,471.0737150000059,469.7380393999629,471.0737150000059,469.7380393999629,471.0737150000059,469.7380393999629,471.0737150000059,469.7380393999629,471.0737150000059,471.0569230999681,471.5578152000089,471.0569230999681,471.5578152000089,471.0569230999681,471.5578152000089,471.0569230999681,471.5578152000089,471.0569230999681,471.5578152000089,471.0569230999681,471.5578152000089,471.0569230999681,471.5578152000089,471.0569230999681,471.5578152000089,469.7380393999629,None,471.5578152000089,None,1.330000000000001,472.1909826999763,None,472.94301819999237,None,,,,,,,[0.6197561],2.330000000000002,0.8048780487804879,12002,001,2024_Jun_02_1758,MFTM_A_new1021,2021.2.3,59.78694324149237,
,,,,,,,,stim/Instruction_adaptive.png,conditions/adaptive.xlsx,test,0.6,0.6,0.6,-0.6,-0.6,right,R,,,,,0,1,1,1,0,82,82,88,,,,,,,,,,,,,,,,,,,,,,,,,,,,,,,,,,,,,,,,,,,,473.4441417999915,None,right,1,1.3573345999466255,473.9619881999679,475.78067109995754,473.9619881999679,475.2796857999638,473.9619881999679,475.2796857999638,473.9619881999679,475.2796857999638,473.9619881999679,475.2796857999638,473.9619881999679,475.2796857999638,475.2462239000015,475.7470931999851,475.2462239000015,475.7470931999851,475.2462239000015,475.7470931999851,475.2462239000015,475.7470931999851,475.2462239000015,475.7470931999851,475.2462239000015,475.7470931999851,475.2462239000015,475.7470931999851,475.2462239000015,475.7470931999851,473.9619881999679,None,475.7470931999851,476.38207029999467,1.310000000000001,476.4149480999913,None,477.16629279998597,None,,,,,,,[0.62662651],2.3400000000000016,0.8072289156626506,12002,001,2024_Jun_02_1758,MFTM_A_new1021,2021.2.3,59.78694324149237,
,,,,,,,,stim/Instruction_adaptive.png,conditions/adaptive.xlsx,test,-0.6,-0.6,-0.6,0.6,0.6,left,L,,,,,0,1,1,1,0,83,83,39,,,,,,,,,,,,,,,,,,,,,,,,,,,,,,,,,,,,,,,,,,,,477.66734689997975,None,left,1,1.1595771999564022,478.1679626000114,479.97010889998637,478.1679626000114,479.47000259999186,478.1679626000114,479.47000259999186,478.1679626000114,479.47000259999186,478.1679626000114,479.47000259999186,478.1679626000114,479.47000259999186,479.4529614999774,479.95347279997077,479.4529614999774,479.95347279997077,479.4529614999774,479.95347279997077,479.4529614999774,479.95347279997077,479.4529614999774,479.95347279997077,479.4529614999774,479.95347279997077,479.4529614999774,479.95347279997077,479.4529614999774,479.95347279997077,478.1679626000114,None,479.95347279997077,480.587131200009,1.300000000000001,480.6037956000073,None,481.3565732999705,None,,,,,,,[0.63345238],2.3600000000000017,0.8095238095238095,12002,001,2024_Jun_02_1758,MFTM_A_new1021,2021.2.3,59.78694324149237,
,,,,,,,,stim/Instruction_adaptive.png,conditions/adaptive.xlsx,test,-0.6,-0.6,-0.6,0.6,0.6,left,L,,,,,0,1,1,1,0,84,84,73,,,,,,,,,,,,,,,,,,,,,,,,,,,,,,,,,,,,,,,,,,,,481.85671699995873,None,right,0,1.6672098999843001,482.3563856999972,484.143084899988,482.3563856999972,483.6425571999862,482.3563856999972,483.6425571999862,482.3563856999972,483.6425571999862,482.3563856999972,483.6425571999862,482.3563856999972,483.6425571999862,483.62488239997765,484.1266132000019,483.62488239997765,484.1266132000019,483.62488239997765,484.1266132000019,483.62488239997765,484.1266132000019,483.62488239997765,484.1266132000019,483.62488239997765,484.1266132000019,483.62488239997765,484.1266132000019,483.62488239997765,484.1266132000019,482.3563856999972,None,484.1266132000019,None,1.280000000000001,484.79502289998345,None,485.5456917999545,None,,,,,,,[0.64035294],2.3100000000000014,0.8,12002,001,2024_Jun_02_1758,MFTM_A_new1021,2021.2.3,59.78694324149237,
,,,,,,,,stim/Instruction_adaptive.png,conditions/adaptive.xlsx,test,0.6,0.6,0.6,-0.6,-0.6,right,R,,,,,0,1,1,1,0,85,85,94,,,,,,,,,,,,,,,,,,,,,,,,,,,,,,,,,,,,,,,,,,,,486.04630379995797,None,right,1,0.9971393999876454,486.5468788999715,488.38294969999697,486.5468788999715,487.8822935000062,486.5468788999715,487.8822935000062,486.5468788999715,487.8822935000062,486.5468788999715,487.8822935000062,486.5468788999715,487.8822935000062,487.8657758999616,488.3664928000071,487.8657758999616,488.3664928000071,487.8657758999616,488.3664928000071,487.8657758999616,488.3664928000071,487.8657758999616,488.3664928000071,487.8657758999616,488.3664928000071,487.8657758999616,488.3664928000071,487.8657758999616,488.3664928000071,486.5468788999715,None,488.3496739999973,489.00083679996897,1.330000000000001,489.0343068999937,None,489.78561409999384,None,,,,,,,[0.64651163],2.330000000000002,0.8023255813953488,12002,001,2024_Jun_02_1758,MFTM_A_new1021,2021.2.3,59.78694324149237,
,,,,,,,,stim/Instruction_adaptive.png,conditions/adaptive.xlsx,test,0.6,0.6,0.6,-0.6,-0.6,right,R,,,,,0,1,1,1,0,86,86,90,,,,,,,,,,,,,,,,,,,,,,,,,,,,,,,,,,,,,,,,,,,,490.2850494000013,None,right,1,1.7176693000365049,490.7865362999728,492.60555449995445,490.7865362999728,492.1055199999828,490.7865362999728,492.1055199999828,490.7865362999728,492.1055199999828,490.7865362999728,492.1055199999828,490.7865362999728,492.1055199999828,492.0720195999602,492.57226519996766,492.0720195999602,492.57226519996766,492.0720195999602,492.57226519996766,492.0720195999602,492.57226519996766,492.0720195999602,492.57226519996766,492.0720195999602,492.57226519996766,492.0720195999602,492.57226519996766,492.0720195999602,492.57226519996766,490.7865362999728,None,492.57226519996766,493.23949839995475,1.310000000000001,493.2568233999773,None,494.00772230001166,None,,,,,,,[0.65275862],2.3500000000000014,0.8045977011494253,12002,001,2024_Jun_02_1758,MFTM_A_new1021,2021.2.3,59.78694324149237,
,,,,,,,,stim/Instruction_adaptive.png,conditions/adaptive.xlsx,test,-0.6,-0.6,-0.6,0.6,0.6,left,L,,,,,0,1,1,1,0,87,87,57,,,,,,,,,,,,,,,,,,,,,,,,,,,,,,,,,,,,,,,,,,,,494.50902810000116,None,left,1,1.454216499987524,495.00955309998244,496.8124308999977,495.00955309998244,496.3116114999866,495.00955309998244,496.3116114999866,495.00955309998244,496.3116114999866,495.00955309998244,496.3116114999866,495.00955309998244,496.3116114999866,496.27824139996665,496.77885249996325,496.27824139996665,496.77885249996325,496.27824139996665,496.77885249996325,496.27824139996665,496.77885249996325,496.27824139996665,496.77885249996325,496.27824139996665,496.77885249996325,496.27824139996665,496.77885249996325,496.27824139996665,496.77885249996325,495.00955309998244,None,496.77885249996325,497.446841500001,1.290000000000001,497.4636043999926,None,498.2148121999926,None,,,,,,,[0.65909091],2.3600000000000017,0.8068181818181818,12002,001,2024_Jun_02_1758,MFTM_A_new1021,2021.2.3,59.78694324149237,
,,,,,,,,stim/Instruction_adaptive.png,conditions/adaptive.xlsx,test,-0.6,-0.6,-0.6,0.6,0.6,left,L,,,,,0,1,1,1,0,88,88,19,,,,,,,,,,,,,,,,,,,,,,,,,,,,,,,,,,,,,,,,,,,,498.7151482999907,None,right,0,2.2725202000001445,499.21574660000624,501.0021450999775,499.21574660000624,500.50169559998903,499.21574660000624,500.50169559998903,499.21574660000624,500.50169559998903,499.21574660000624,500.50169559998903,499.21574660000624,500.50169559998903,500.4847389999777,500.98534249997465,500.4847389999777,500.98534249997465,500.4847389999777,500.98534249997465,500.4847389999777,500.98534249997465,500.4847389999777,500.98534249997465,500.4847389999777,500.98534249997465,500.4847389999777,500.98534249997465,500.4847389999777,500.98534249997465,499.21574660000624,None,500.98534249997465,501.65306539996527,1.280000000000001,501.6871392999892,None,502.43743230000837,None,,,,,,,[0.66539326],2.3100000000000014,0.797752808988764,12002,001,2024_Jun_02_1758,MFTM_A_new1021,2021.2.3,59.78694324149237,
,,,,,,,,stim/Instruction_adaptive.png,conditions/adaptive.xlsx,test,0.6,0.6,0.6,-0.6,-0.6,right,R,,,,,0,1,1,1,0,89,89,72,,,,,,,,,,,,,,,,,,,,,,,,,,,,,,,,,,,,,,,,,,,,502.9384440999711,None,right,1,1.5050994000048377,503.4392952999915,505.27510979998624,503.4392952999915,504.77351530001033,503.4392952999915,504.77351530001033,503.4392952999915,504.77351530001033,503.4392952999915,504.77351530001033,503.4392952999915,504.77351530001033,504.74118479999015,505.24154749995796,504.74118479999015,505.24154749995796,504.74118479999015,505.24154749995796,504.74118479999015,505.24154749995796,504.74118479999015,505.24154749995796,504.74118479999015,505.24154749995796,504.74118479999015,505.24154749995796,504.74118479999015,505.24154749995796,503.4392952999915,None,505.24154749995796,505.92633429996204,1.330000000000001,505.9417686999659,None,506.6941707999795,None,,,,,,,[0.671],2.330000000000002,0.8,12002,001,2024_Jun_02_1758,MFTM_A_new1021,2021.2.3,59.78694324149237,
,,,,,,,,stim/Instruction_adaptive.png,conditions/adaptive.xlsx,test,-0.6,-0.6,-0.6,0.6,0.6,left,L,,,,,0,1,1,1,0,90,90,29,,,,,,,,,,,,,,,,,,,,,,,,,,,,,,,,,,,,,,,,,,,,507.1946518999757,None,right,0,2.1935785000096075,507.6954265999957,509.51489839999704,507.6954265999957,509.01438429998234,507.6954265999957,509.01438429998234,507.6954265999957,509.01438429998234,507.6954265999957,509.01438429998234,507.6954265999957,509.01438429998234,508.9976716999663,509.4985049999668,508.9976716999663,509.4985049999668,508.9976716999663,509.4985049999668,508.9976716999663,509.4985049999668,508.9976716999663,509.4985049999668,508.9976716999663,509.4985049999668,508.9976716999663,509.4985049999668,508.9976716999663,509.4985049999668,507.6954265999957,None,509.4814000999904,510.16677740000887,1.310000000000001,510.1999793999712,None,510.95071020000614,None,,,,,,,[0.6767033],2.2800000000000016,0.7912087912087912,12002,001,2024_Jun_02_1758,MFTM_A_new1021,2021.2.3,59.78694324149237,
,,,,,,,,stim/Instruction_adaptive.png,conditions/adaptive.xlsx,test,0.6,0.6,0.6,-0.6,-0.6,right,R,,,,,0,1,1,1,0,91,91,82,,,,,,,,,,,,,,,,,,,,,,,,,,,,,,,,,,,,,,,,,,,,511.45078600000124,None,right,1,1.2487482000142336,511.95182419999037,513.8050325000077,511.95182419999037,513.3039320000098,511.95182419999037,513.3039320000098,511.95182419999037,513.3039320000098,511.95182419999037,513.3039320000098,511.95182419999037,513.3039320000098,513.2871370000066,513.7873378999648,513.2871370000066,513.7873378999648,513.2871370000066,513.7873378999648,513.2871370000066,513.7873378999648,513.2871370000066,513.7873378999648,513.2871370000066,513.7873378999648,513.2871370000066,513.7873378999648,513.2871370000066,513.7873378999648,511.95182419999037,None,513.7873378999648,514.4725740999565,1.350000000000001,514.506493599969,None,515.2571615999914,None,,,,,,,[0.68184783],2.290000000000002,0.7934782608695652,12002,001,2024_Jun_02_1758,MFTM_A_new1021,2021.2.3,59.78694324149237,
,,,,,,,,stim/Instruction_adaptive.png,conditions/adaptive.xlsx,test,0.6,0.6,0.6,-0.6,-0.6,right,R,,,,,0,1,1,1,0,92,92,0,,,,,,,,,,,,,,,,,,,,,,,,,,,,,,,,,,,,,,,,,,,,515.7576352999895,None,right,1,1.6458791000186466,516.2586118999752,518.1113471999997,516.2586118999752,517.6106746000005,516.2586118999752,517.6106746000005,516.2586118999752,517.6106746000005,516.2586118999752,517.6106746000005,516.2586118999752,517.6106746000005,517.5932700999547,518.094554100011,517.5932700999547,518.094554100011,517.5932700999547,518.094554100011,517.5932700999547,518.094554100011,517.5932700999547,518.094554100011,517.5932700999547,518.094554100011,517.5932700999547,518.094554100011,517.5932700999547,518.094554100011,516.2586118999752,None,518.094554100011,None,1.350000000000001,518.7949901999673,None,519.5462114000111,None,,,,,,,[0.68688172],2.3100000000000014,0.7956989247311828,12002,001,2024_Jun_02_1758,MFTM_A_new1021,2021.2.3,59.78694324149237,
,,,,,,,,stim/Instruction_adaptive.png,conditions/adaptive.xlsx,test,0.6,0.6,0.6,-0.6,-0.6,right,R,,,,,0,1,1,1,0,93,93,30,,,,,,,,,,,,,,,,,,,,,,,,,,,,,,,,,,,,,,,,,,,,520.0466893999837,None,right,1,1.5645894999615848,520.548201299971,522.3845359999686,520.548201299971,521.884007799963,520.548201299971,521.884007799963,520.548201299971,521.884007799963,520.548201299971,521.884007799963,520.548201299971,521.884007799963,521.8668152999599,522.3677842000034,521.8668152999599,522.3677842000034,521.8668152999599,522.3677842000034,521.8668152999599,522.3677842000034,521.8668152999599,522.3677842000034,521.8668152999599,522.3677842000034,521.8668152999599,522.3677842000034,521.8668152999599,522.3677842000034,520.548201299971,None,522.3677842000034,523.0687102999655,1.330000000000001,523.1027649999596,None,523.8522191999946,None,,,,,,,[0.69202128],2.330000000000002,0.7978723404255319,12002,001,2024_Jun_02_1758,MFTM_A_new1021,2021.2.3,59.78694324149237,
