arrwidth1,arrwidth2,arrwidth3,arrwidth4,arrwidth5,keyb,type,orientation,instruction_image,block_filename,block_type,arrow11,arrow22,arrow33,arrow44,arrow55,keyb_3,orientation3,trials.thisRepN,trials.thisTrialN,trials.thisN,trials.thisIndex,trials_3.thisRepN,trials_3.thisTrialN,trials_3.thisN,trials_3.thisIndex,trials_2.thisRepN,trials_2.thisTrialN,trials_2.thisN,trials_2.thisIndex,welcome.started,welcome.stopped,key_resp.keys,key_resp.rt,key_resp.started,key_resp.stopped,instruction_example.started,instruction_example.stopped,key_resp_3.keys,key_resp_3.rt,key_resp_3.started,key_resp_3.stopped,instruction_task.started,instruction_task.stopped,key_resp_2.keys,key_resp_2.rt,key_resp_2.started,key_resp_2.stopped,text_2.started,text_2.stopped,A1.started,A1.stopped,A2.started,A2.stopped,A3.started,A3.stopped,A4.started,A4.stopped,A5.started,A5.stopped,key_resp_4.keys,key_resp_4.corr,key_resp_4.rt,key_resp_4.started,key_resp_4.stopped,fb.started,fb.stopped,instruction_block.started,instruction_block.stopped,key_resp_8.keys,key_resp_8.rt,key_resp_8.started,key_resp_8.stopped,text_8.started,text_8.stopped,key_resp_9.keys,key_resp_9.corr,key_resp_9.rt,text_5.started,text_5.stopped,A11_3.started,A11_3.stopped,A22_2.started,A22_2.stopped,A33_2.started,A33_2.stopped,A44_2.started,A44_2.stopped,A55_2.started,A55_2.stopped,M1_3.started,M1_3.stopped,M2_2.started,M2_2.stopped,M3_2.started,M3_2.stopped,M4_2.started,M4_2.stopped,M5_2.started,M5_2.stopped,M6_2.started,M6_2.stopped,M7_2.started,M7_2.stopped,M8_2.started,M8_2.stopped,key_resp_9.started,key_resp_9.stopped,fixation.started,fixation.stopped,ET,fb_3.started,fb_3.stopped,text_9.started,text_9.stopped,fb_4.started,fb_4.stopped,text_7.started,text_7.stopped,endtext.started,endtext.stopped,fixation_ITI,CCC,Acc,participant,session,date,expName,psychopyVersion,frameRate,
,,,,,,,,,,,,,,,,,,,,,,,,,,,,,,13.190700099999958,None,space,0.6602476000000479,13.190700099999958,None,,,,,,,,,,,,,,,,,,,,,,,,,,,,,,,,,,,,,,,,,,,,,,,,,,,,,,,,,,,,,,,,,,,,,,,,,,,,,,,,,,,,,,,,,12009,001,2024_Jun_15_1742,MFTM_A_new1021,2021.2.3,60.24793229098447,
,,,,,,,,,,,,,,,,,,,,,,,,,,,,,,,,,,,,13.874391400000036,None,right,3.336962299999982,13.874391400000036,None,,,,,,,,,,,,,,,,,,,,,,,,,,,,,,,,,,,,,,,,,,,,,,,,,,,,,,,,,,,,,,,,,,,,,,,,,,,,,,,,,,,12009,001,2024_Jun_15_1742,MFTM_A_new1021,2021.2.3,60.24793229098447,
,,,,,,,,,,,,,,,,,,,,,,,,,,,,,,,,,,,,,,,,,,17.230428800000027,None,space,6.532277000000022,17.230428800000027,None,,,,,,,,,,,,,,,,,,,,,,,,,,,,,,,,,,,,,,,,,,,,,,,,,,,,,,,,,,,,,,,,,,,,,,,,,,,,,12009,001,2024_Jun_15_1742,MFTM_A_new1021,2021.2.3,60.24793229098447,
-0.6,-0.6,-0.6,0.6,0.6,left,3:2,L,,,,,,,,,,,0,0,0,1,,,,,,,,,,,,,,,,,,,,,,,,,,,23.82241650000003,None,23.82241650000003,None,23.82241650000003,None,23.82241650000003,None,23.82241650000003,None,23.82241650000003,None,left,1,1.6373234000000139,23.82241650000003,None,25.508267400000022,None,,,,,,,,,,,,,,,,,,,,,,,,,,,,,,,,,,,,,,,,,,,,,,,,,,,,,,,,,,12009,001,2024_Jun_15_1742,MFTM_A_new1021,2021.2.3,60.24793229098447,
0.6,0.6,0.6,-0.6,-0.6,right,3:2,R,,,,,,,,,,,0,1,1,0,,,,,,,,,,,,,,,,,,,,,,,,,,,26.26093800000001,None,26.26093800000001,None,26.26093800000001,None,26.26093800000001,None,26.26093800000001,None,26.26093800000001,None,right,1,1.3662372999999661,26.26093800000001,None,27.645944699999973,None,,,,,,,,,,,,,,,,,,,,,,,,,,,,,,,,,,,,,,,,,,,,,,,,,,,,,,,,,,12009,001,2024_Jun_15_1742,MFTM_A_new1021,2021.2.3,60.24793229098447,
-0.6,-0.6,-0.6,0.6,0.6,left,3:2,L,,,,,,,,,,,1,0,2,1,,,,,,,,,,,,,,,,,,,,,,,,,,,28.39617659999999,None,28.39617659999999,None,28.39617659999999,None,28.39617659999999,None,28.39617659999999,None,28.39617659999999,None,left,1,1.319516300000032,28.39617659999999,None,29.73288219999995,None,,,,,,,,,,,,,,,,,,,,,,,,,,,,,,,,,,,,,,,,,,,,,,,,,,,,,,,,,,12009,001,2024_Jun_15_1742,MFTM_A_new1021,2021.2.3,60.24793229098447,
0.6,0.6,0.6,-0.6,-0.6,right,3:2,R,,,,,,,,,,,1,1,3,0,,,,,,,,,,,,,,,,,,,,,,,,,,,30.483676899999978,None,30.483676899999978,None,30.483676899999978,None,30.483676899999978,None,30.483676899999978,None,30.483676899999978,None,right,1,2.0554905999999846,30.483676899999978,None,32.57000530000005,None,,,,,,,,,,,,,,,,,,,,,,,,,,,,,,,,,,,,,,,,,,,,,,,,,,,,,,,,,,12009,001,2024_Jun_15_1742,MFTM_A_new1021,2021.2.3,60.24793229098447,
,,,,,,,,stim/Instruction_mask.png,conditions/adaptive.xlsx,practice,0.6,0.6,0.6,-0.6,-0.6,right,R,,,,,0,0,0,0,0,0,0,60,,,,,,,,,,,,,,,,,,,,,,,,,,,,,,,,,,,,,,33.704075200000034,None,space,12.497378799999979,33.704075200000034,None,46.391479300000015,None,right,1,2.3032276999999794,46.74090860000001,None,46.74090860000001,49.74574170000005,46.74090860000001,49.74574170000005,46.74090860000001,49.74574170000005,46.74090860000001,49.74574170000005,46.74090860000001,49.74574170000005,49.7292549,50.230188099999964,49.7292549,50.230188099999964,49.7292549,50.230188099999964,49.7292549,50.230188099999964,49.7292549,50.230188099999964,49.7292549,50.230188099999964,49.7292549,50.230188099999964,49.7292549,50.230188099999964,46.74090860000001,None,50.230188099999964,50.230188099999964,3,50.24622939999995,None,50.99685569999997,None,,,,,,,,,,12009,001,2024_Jun_15_1742,MFTM_A_new1021,2021.2.3,60.24793229098447,
,,,,,,,,stim/Instruction_mask.png,conditions/adaptive.xlsx,practice,0.6,0.6,0.6,-0.6,-0.6,right,R,,,,,0,0,0,0,0,1,1,62,,,,,,,,,,,,,,,,,,,,,,,,,,,,,,,,,,,,,,,,,,,,51.49805690000005,None,right,1,1.4366095000000314,51.998982100000035,54.001562300000046,51.998982100000035,53.5019489,51.998982100000035,53.5019489,51.998982100000035,53.5019489,51.998982100000035,53.5019489,51.998982100000035,53.5019489,53.48501650000003,53.98482360000003,53.48501650000003,53.98482360000003,53.48501650000003,53.98482360000003,53.48501650000003,53.98482360000003,53.48501650000003,53.98482360000003,53.48501650000003,53.98482360000003,53.48501650000003,53.98482360000003,53.48501650000003,53.98482360000003,51.998982100000035,None,53.98482360000003,55.4881077,1.5,55.5048898,None,56.25573680000002,None,,,,,,,,,,12009,001,2024_Jun_15_1742,MFTM_A_new1021,2021.2.3,60.24793229098447,
,,,,,,,,stim/Instruction_mask.png,conditions/adaptive.xlsx,practice,0.6,0.6,0.6,-0.6,-0.6,right,R,,,,,0,0,0,0,0,2,2,96,,,,,,,,,,,,,,,,,,,,,,,,,,,,,,,,,,,,,,,,,,,,56.75623940000003,None,right,1,1.195534700000053,57.256388000000015,58.55912779999994,57.256388000000015,58.05864310000004,57.256388000000015,58.05864310000004,57.256388000000015,58.05864310000004,57.256388000000015,58.05864310000004,57.256388000000015,58.05864310000004,58.041940400000044,58.543087199999945,58.041940400000044,58.543087199999945,58.041940400000044,58.543087199999945,58.041940400000044,58.543087199999945,58.041940400000044,58.543087199999945,58.041940400000044,58.543087199999945,58.041940400000044,58.543087199999945,58.041940400000044,58.543087199999945,57.256388000000015,None,58.543087199999945,60.746133999999984,0.8,60.76273839999999,None,61.513802000000055,None,,,,,,,,,,12009,001,2024_Jun_15_1742,MFTM_A_new1021,2021.2.3,60.24793229098447,
,,,,,,,,stim/Instruction_mask.png,conditions/adaptive.xlsx,practice,-0.6,-0.6,-0.6,0.6,0.6,left,L,,,,,0,0,0,0,0,3,3,83,,,,,,,,,,,,,,,,,,,,,,,,,,,,,,,,,,,,,,,,,,,,62.01475170000003,None,left,1,0.8334386999999879,62.51540620000003,63.26536969999995,62.51540620000003,62.76599569999996,62.51540620000003,62.76599569999996,62.51540620000003,62.76599569999996,62.51540620000003,62.76599569999996,62.51540620000003,62.76599569999996,62.74911689999999,63.2489415,62.74911689999999,63.2489415,62.74911689999999,63.2489415,62.74911689999999,63.2489415,62.74911689999999,63.2489415,62.74911689999999,63.2489415,62.74911689999999,63.2489415,62.74911689999999,63.2489415,62.51540620000003,None,63.2489415,66.00406750000002,3,66.02048200000002,None,66.771886,None,,,,,,,,,,12009,001,2024_Jun_15_1742,MFTM_A_new1021,2021.2.3,60.24793229098447,
,,,,,,,,stim/Instruction_mask.png,conditions/adaptive.xlsx,practice,,,,,,,,,,,,0,0,0,0,,,,,,,,,,,,,,,,,,,,,,,,,,,,,,,,,,,,,,,,,,,,,,,,,,,,,,,,,,,,,,,,,,,,,,,,,,,,,,,,,,,,,,,,,,67.32288830000005,68.32411769999999,68.30739359999995,68.30739359999995,68.30739359999995,None,,,,12009,001,2024_Jun_15_1742,MFTM_A_new1021,2021.2.3,60.24793229098447,
,,,,,,,,stim/Instruction_adaptive.png,conditions/adaptive.xlsx,test,0.6,0.6,0.6,-0.6,-0.6,right,R,,,,,0,1,1,1,0,0,0,70,,,,,,,,,,,,,,,,,,,,,,,,,,,,,,,,,,,,,,71.54460340000003,None,space,17.447341800000004,71.54460340000003,None,89.05608099999995,None,left,0,2.257176299999969,89.53955799999994,None,89.53955799999994,92.54287639999995,89.53955799999994,92.54287639999995,89.53955799999994,92.54287639999995,89.53955799999994,92.54287639999995,89.53955799999994,92.54287639999995,92.52614789999996,93.02764790000003,92.52614789999996,93.02764790000003,92.52614789999996,93.02764790000003,92.52614789999996,93.02764790000003,92.52614789999996,93.02764790000003,92.52614789999996,93.02764790000003,92.52614789999996,93.02764790000003,92.52614789999996,93.02764790000003,89.53955799999994,None,93.02764790000003,93.02764790000003,3,93.06049759999996,None,93.81141709999997,None,,,,,,,0,0.5,0.0,12009,001,2024_Jun_15_1742,MFTM_A_new1021,2021.2.3,60.24793229098447,
,,,,,,,,stim/Instruction_adaptive.png,conditions/adaptive.xlsx,test,0.6,0.6,0.6,-0.6,-0.6,right,R,,,,,0,1,1,1,0,1,1,52,,,,,,,,,,,,,,,,,,,,,,,,,,,,,,,,,,,,,,,,,,,,94.31242559999998,None,right,1,2.0558415000000423,94.81307030000005,None,94.81307030000005,97.81823810000003,94.81307030000005,97.81823810000003,94.81307030000005,97.81823810000003,94.81307030000005,97.81823810000003,94.81307030000005,97.81823810000003,97.80133620000004,98.30260420000002,97.80133620000004,98.30260420000002,97.80133620000004,98.30260420000002,97.80133620000004,98.30260420000002,97.80133620000004,98.30260420000002,97.80133620000004,98.30260420000002,97.80133620000004,98.30260420000002,97.80133620000004,98.30260420000002,94.81307030000005,None,98.30260420000002,98.30260420000002,3.0000000000000027,98.31809329999999,None,99.06961039999999,None,,,,,,,0,0.5,0.5,12009,001,2024_Jun_15_1742,MFTM_A_new1021,2021.2.3,60.24793229098447,
,,,,,,,,stim/Instruction_adaptive.png,conditions/adaptive.xlsx,test,-0.6,-0.6,-0.6,0.6,0.6,left,L,,,,,0,1,1,1,0,2,2,71,,,,,,,,,,,,,,,,,,,,,,,,,,,,,,,,,,,,,,,,,,,,99.57103089999998,None,left,1,1.84585340000001,100.07125680000001,None,100.07125680000001,103.07588399999997,100.07125680000001,103.07588399999997,100.07125680000001,103.07588399999997,100.07125680000001,103.07588399999997,100.07125680000001,103.07588399999997,103.05887199999995,103.56074430000001,103.05887199999995,103.56074430000001,103.05887199999995,103.56074430000001,103.05887199999995,103.56074430000001,103.05887199999995,103.56074430000001,103.05887199999995,103.56074430000001,103.05887199999995,103.56074430000001,103.05887199999995,103.56074430000001,100.07125680000001,None,103.56074430000001,103.56074430000001,3.0000000000000027,103.57615250000003,None,104.32806270000003,None,,,,,,,0,0.5,0.6666666666666666,12009,001,2024_Jun_15_1742,MFTM_A_new1021,2021.2.3,60.24793229098447,
,,,,,,,,stim/Instruction_adaptive.png,conditions/adaptive.xlsx,test,0.6,0.6,0.6,-0.6,-0.6,right,R,,,,,0,1,1,1,0,3,3,22,,,,,,,,,,,,,,,,,,,,,,,,,,,,,,,,,,,,,,,,,,,,104.82926550000002,None,right,1,2.453135599999996,105.32867929999998,None,105.32867929999998,108.3345885,105.32867929999998,108.3345885,105.32867929999998,108.3345885,105.32867929999998,108.3345885,105.32867929999998,108.3345885,108.31778020000002,108.81767609999997,108.31778020000002,108.81767609999997,108.31778020000002,108.81767609999997,108.31778020000002,108.81767609999997,108.31778020000002,108.81767609999997,108.31778020000002,108.81767609999997,108.31778020000002,108.81767609999997,108.31778020000002,108.81767609999997,105.32867929999998,None,108.81767609999997,108.81767609999997,3.0000000000000027,108.83403309999994,None,109.58637999999996,None,,,,,,,0,1.1300000000000006,0.75,12009,001,2024_Jun_15_1742,MFTM_A_new1021,2021.2.3,60.24793229098447,
,,,,,,,,stim/Instruction_adaptive.png,conditions/adaptive.xlsx,test,-0.6,-0.6,-0.6,0.6,0.6,left,L,,,,,0,1,1,1,0,4,4,25,,,,,,,,,,,,,,,,,,,,,,,,,,,,,,,,,,,,,,,,,,,,110.08703349999996,None,left,1,1.2581751000000168,110.58780360000003,None,110.58780360000003,113.59239179999997,110.58780360000003,113.59239179999997,110.58780360000003,113.59239179999997,110.58780360000003,113.59239179999997,110.58780360000003,113.59239179999997,113.57566010000005,114.07641309999997,113.57566010000005,114.07641309999997,113.57566010000005,114.07641309999997,113.57566010000005,114.07641309999997,113.57566010000005,114.07641309999997,113.57566010000005,114.07641309999997,113.57566010000005,114.07641309999997,113.57566010000005,114.07641309999997,110.58780360000003,None,114.05966839999996,114.05966839999996,3.0000000000000027,114.1103061,None,114.8611684,None,,,,,,,0,1.540000000000001,0.8,12009,001,2024_Jun_15_1742,MFTM_A_new1021,2021.2.3,60.24793229098447,
,,,,,,,,stim/Instruction_adaptive.png,conditions/adaptive.xlsx,test,-0.6,-0.6,-0.6,0.6,0.6,left,L,,,,,0,1,1,1,0,5,5,63,,,,,,,,,,,,,,,,,,,,,,,,,,,,,,,,,,,,,,,,,,,,115.36173780000001,None,left,1,2.183881900000074,115.86203209999996,None,115.86203209999996,118.13296519999994,115.86203209999996,118.13296519999994,115.86203209999996,118.13296519999994,115.86203209999996,118.13296519999994,115.86203209999996,118.13296519999994,118.09893939999995,118.59965239999997,118.09893939999995,118.59965239999997,118.09893939999995,118.59965239999997,118.09893939999995,118.59965239999997,118.09893939999995,118.59965239999997,118.09893939999995,118.59965239999997,118.09893939999995,118.59965239999997,118.09893939999995,118.59965239999997,115.86203209999996,None,118.59965239999997,118.59965239999997,2.2600000000000016,118.63326729999994,None,119.38422820000005,None,,,,,,,0,1.8100000000000012,0.8333333333333334,12009,001,2024_Jun_15_1742,MFTM_A_new1021,2021.2.3,60.24793229098447,
,,,,,,,,stim/Instruction_adaptive.png,conditions/adaptive.xlsx,test,0.6,0.6,0.6,-0.6,-0.6,right,R,,,,,0,1,1,1,0,6,6,60,,,,,,,,,,,,,,,,,,,,,,,,,,,,,,,,,,,,,,,,,,,,119.88518799999997,None,right,1,1.2916234000000486,120.38611079999998,None,120.38611079999998,122.271481,120.38611079999998,122.271481,120.38611079999998,122.271481,120.38611079999998,122.271481,120.38611079999998,122.271481,122.25484410000001,122.75598300000001,122.25484410000001,122.75598300000001,122.25484410000001,122.75598300000001,122.25484410000001,122.75598300000001,122.25484410000001,122.75598300000001,122.25484410000001,122.75598300000001,122.25484410000001,122.75598300000001,122.25484410000001,122.75598300000001,120.38611079999998,None,122.75598300000001,122.75598300000001,1.8800000000000014,122.77333810000005,None,123.52358560000005,None,,,,,,,0,2.0200000000000014,0.8571428571428571,12009,001,2024_Jun_15_1742,MFTM_A_new1021,2021.2.3,60.24793229098447,
,,,,,,,,stim/Instruction_adaptive.png,conditions/adaptive.xlsx,test,0.6,0.6,0.6,-0.6,-0.6,right,R,,,,,0,1,1,1,0,7,7,34,,,,,,,,,,,,,,,,,,,,,,,,,,,,,,,,,,,,,,,,,,,,124.02427829999999,None,right,1,1.904930899999954,124.52488389999996,None,124.52488389999996,126.14439059999995,124.52488389999996,126.14439059999995,124.52488389999996,126.14439059999995,124.52488389999996,126.14439059999995,124.52488389999996,126.14439059999995,126.12795749999998,126.62767389999999,126.12795749999998,126.62767389999999,126.12795749999998,126.62767389999999,126.12795749999998,126.62767389999999,126.12795749999998,126.62767389999999,126.12795749999998,126.62767389999999,126.12795749999998,126.62767389999999,126.12795749999998,126.62767389999999,124.52488389999996,None,126.62767389999999,126.62767389999999,1.6200000000000012,126.64508809999995,None,127.39648709999994,None,,,,,,,0,2.2000000000000015,0.875,12009,001,2024_Jun_15_1742,MFTM_A_new1021,2021.2.3,60.24793229098447,
,,,,,,,,stim/Instruction_adaptive.png,conditions/adaptive.xlsx,test,-0.6,-0.6,-0.6,0.6,0.6,left,L,,,,,0,1,1,1,0,8,8,45,,,,,,,,,,,,,,,,,,,,,,,,,,,,,,,,,,,,,,,,,,,,127.89770109999995,None,left,1,0.9528003000000353,128.39727719999996,130.33372499999996,128.39727719999996,129.83376580000004,128.39727719999996,129.83376580000004,128.39727719999996,129.83376580000004,128.39727719999996,129.83376580000004,128.39727719999996,129.83376580000004,129.79979119999996,130.3008823,129.79979119999996,130.3008823,129.79979119999996,130.3008823,129.79979119999996,130.3008823,129.79979119999996,130.3008823,129.79979119999996,130.3008823,129.79979119999996,130.3008823,129.79979119999996,130.3008823,128.39727719999996,None,130.3008823,130.35059160000003,1.430000000000001,130.3675028,None,131.11865669999997,None,,,,,,,[0.03444444],2.3500000000000014,0.8888888888888888,12009,001,2024_Jun_15_1742,MFTM_A_new1021,2021.2.3,60.24793229098447,
,,,,,,,,stim/Instruction_adaptive.png,conditions/adaptive.xlsx,test,0.6,0.6,0.6,-0.6,-0.6,right,R,,,,,0,1,1,1,0,9,9,18,,,,,,,,,,,,,,,,,,,,,,,,,,,,,,,,,,,,,,,,,,,,131.6195967,None,right,1,1.5819119000000228,132.12040060000004,133.92205590000003,132.12040060000004,133.4213191,132.12040060000004,133.4213191,132.12040060000004,133.4213191,132.12040060000004,133.4213191,132.12040060000004,133.4213191,133.38879759999998,133.88887109999996,133.38879759999998,133.88887109999996,133.38879759999998,133.88887109999996,133.38879759999998,133.88887109999996,133.38879759999998,133.88887109999996,133.38879759999998,133.88887109999996,133.38879759999998,133.88887109999996,133.38879759999998,133.88887109999996,132.12040060000004,None,133.88887109999996,134.03981369999997,1.290000000000001,134.07253679999997,None,134.82444859999998,None,,,,,,,[0.152],2.490000000000002,0.9,12009,001,2024_Jun_15_1742,MFTM_A_new1021,2021.2.3,60.24793229098447,
,,,,,,,,stim/Instruction_adaptive.png,conditions/adaptive.xlsx,test,-0.6,-0.6,-0.6,0.6,0.6,left,L,,,,,0,1,1,1,0,10,10,5,,,,,,,,,,,,,,,,,,,,,,,,,,,,,,,,,,,,,,,,,,,,135.32473470000002,None,left,1,0.7565763999999717,135.82554070000003,137.4948928,135.82554070000003,137.01097040000002,135.82554070000003,137.01097040000002,135.82554070000003,137.01097040000002,135.82554070000003,137.01097040000002,135.82554070000003,137.01097040000002,136.97769670000002,137.47840169999995,136.97769670000002,137.47840169999995,136.97769670000002,137.47840169999995,136.97769670000002,137.47840169999995,136.97769670000002,137.47840169999995,136.97769670000002,137.47840169999995,136.97769670000002,137.47840169999995,136.97769670000002,137.47840169999995,135.82554070000003,None,137.47840169999995,137.74522549999995,1.1700000000000008,137.7614178,None,138.51317310000002,None,,,,,,,[0.25909091],2.610000000000002,0.9090909090909091,12009,001,2024_Jun_15_1742,MFTM_A_new1021,2021.2.3,60.24793229098447,
,,,,,,,,stim/Instruction_adaptive.png,conditions/adaptive.xlsx,test,0.6,0.6,0.6,-0.6,-0.6,right,R,,,,,0,1,1,1,0,11,11,50,,,,,,,,,,,,,,,,,,,,,,,,,,,,,,,,,,,,,,,,,,,,139.01386609999997,None,right,1,1.1326991999999336,139.51384759999996,141.099429,139.51384759999996,140.59949489999997,139.51384759999996,140.59949489999997,139.51384759999996,140.59949489999997,139.51384759999996,140.59949489999997,139.51384759999996,140.59949489999997,140.58263179999994,141.08279289999996,140.58263179999994,141.08279289999996,140.58263179999994,141.08279289999996,140.58263179999994,141.08279289999996,140.58263179999994,141.08279289999996,140.58263179999994,141.08279289999996,140.58263179999994,141.08279289999996,140.58263179999994,141.08279289999996,139.51384759999996,None,141.08279289999996,None,1.0800000000000007,141.45182609999995,None,142.20103400000005,None,,,,,,,[0.35583333],2.720000000000002,0.9166666666666666,12009,001,2024_Jun_15_1742,MFTM_A_new1021,2021.2.3,60.24793229098447,
,,,,,,,,stim/Instruction_adaptive.png,conditions/adaptive.xlsx,test,0.6,0.6,0.6,-0.6,-0.6,right,R,,,,,0,1,1,1,0,12,12,88,,,,,,,,,,,,,,,,,,,,,,,,,,,,,,,,,,,,,,,,,,,,142.70166340000003,None,left,0,0.9792981999999029,143.20269910000002,144.70504040000003,143.20269910000002,144.20405689999996,143.20269910000002,144.20405689999996,143.20269910000002,144.20405689999996,143.20269910000002,144.20405689999996,143.20269910000002,144.20405689999996,144.18732350000005,144.68842800000004,144.18732350000005,144.68842800000004,144.18732350000005,144.68842800000004,144.18732350000005,144.68842800000004,144.18732350000005,144.68842800000004,144.18732350000005,144.68842800000004,144.18732350000005,144.68842800000004,144.18732350000005,144.68842800000004,143.20269910000002,None,144.68842800000004,145.13884180000002,1.0000000000000007,145.15498209999998,None,145.90694559999997,None,,,,,,,[0.44384615],2.4300000000000015,0.8461538461538461,12009,001,2024_Jun_15_1742,MFTM_A_new1021,2021.2.3,60.24793229098447,
,,,,,,,,stim/Instruction_adaptive.png,conditions/adaptive.xlsx,test,-0.6,-0.6,-0.6,0.6,0.6,left,L,,,,,0,1,1,1,0,13,13,77,,,,,,,,,,,,,,,,,,,,,,,,,,,,,,,,,,,,,,,,,,,,146.40871089999996,None,right,0,1.7785394999999653,146.90833110000005,148.6289531,146.90833110000005,148.12778519999995,146.90833110000005,148.12778519999995,146.90833110000005,148.12778519999995,146.90833110000005,148.12778519999995,146.90833110000005,148.12778519999995,148.1108494,148.61237720000008,148.1108494,148.61237720000008,148.1108494,148.61237720000008,148.1108494,148.61237720000008,148.1108494,148.61237720000008,148.1108494,148.61237720000008,148.1108494,148.61237720000008,148.1108494,148.61237720000008,146.90833110000005,None,148.61237720000008,149.12944900000002,1.2200000000000009,149.16358760000003,None,149.9134320999999,None,,,,,,,[0.50357143],2.110000000000001,0.7857142857142857,12009,001,2024_Jun_15_1742,MFTM_A_new1021,2021.2.3,60.24793229098447,
,,,,,,,,stim/Instruction_adaptive.png,conditions/adaptive.xlsx,test,-0.6,-0.6,-0.6,0.6,0.6,left,L,,,,,0,1,1,1,0,14,14,41,,,,,,,,,,,,,,,,,,,,,,,,,,,,,,,,,,,,,,,,,,,,150.41459669999995,None,left,1,0.859624599999961,150.91516589999992,152.93475579999995,150.91516589999992,152.43418659999998,150.91516589999992,152.43418659999998,150.91516589999992,152.43418659999998,150.91516589999992,152.43418659999998,150.91516589999992,152.43418659999998,152.41762790000007,152.9183473999999,152.41762790000007,152.9183473999999,152.41762790000007,152.9183473999999,152.41762790000007,152.9183473999999,152.41762790000007,152.9183473999999,152.41762790000007,152.9183473999999,152.41762790000007,152.9183473999999,152.41762790000007,152.9183473999999,150.91516589999992,None,152.9183473999999,153.45214499999997,1.5200000000000011,153.5024737000001,None,154.2535602999999,None,,,,,,,[0.53533333],2.2300000000000013,0.8,12009,001,2024_Jun_15_1742,MFTM_A_new1021,2021.2.3,60.24793229098447,
,,,,,,,,stim/Instruction_adaptive.png,conditions/adaptive.xlsx,test,0.6,0.6,0.6,-0.6,-0.6,right,R,,,,,0,1,1,1,0,15,15,54,,,,,,,,,,,,,,,,,,,,,,,,,,,,,,,,,,,,,,,,,,,,154.75448759999995,None,right,1,1.5601900999999998,155.25475370000004,157.1581374,155.25475370000004,156.6572397,155.25475370000004,156.6572397,155.25475370000004,156.6572397,155.25475370000004,156.6572397,155.25475370000004,156.6572397,156.63994230000003,157.14120980000007,156.63994230000003,157.14120980000007,156.63994230000003,157.14120980000007,156.63994230000003,157.14120980000007,156.63994230000003,157.14120980000007,156.63994230000003,157.14120980000007,156.63994230000003,157.14120980000007,156.63994230000003,157.14120980000007,155.25475370000004,None,157.14120980000007,None,1.400000000000001,157.7243757000001,None,158.4766373,None,,,,,,,[0.570625],2.330000000000002,0.8125,12009,001,2024_Jun_15_1742,MFTM_A_new1021,2021.2.3,60.24793229098447,
,,,,,,,,stim/Instruction_adaptive.png,conditions/adaptive.xlsx,test,0.6,0.6,0.6,-0.6,-0.6,right,R,,,,,0,1,1,1,0,16,16,12,,,,,,,,,,,,,,,,,,,,,,,,,,,,,,,,,,,,,,,,,,,,158.9772089999999,None,right,1,1.8969766999998683,159.4777375000001,161.2973067999999,159.4777375000001,160.79674709999995,159.4777375000001,160.79674709999995,159.4777375000001,160.79674709999995,159.4777375000001,160.79674709999995,159.4777375000001,160.79674709999995,160.7632638,161.26326960000006,160.7632638,161.26326960000006,160.7632638,161.26326960000006,160.7632638,161.26326960000006,160.7632638,161.26326960000006,160.7632638,161.26326960000006,160.7632638,161.26326960000006,160.7632638,161.26326960000006,159.4777375000001,None,161.26326960000006,161.88185309999994,1.310000000000001,161.91588649999994,None,162.6661564000001,None,,,,,,,[0.60705882],2.4300000000000015,0.8235294117647058,12009,001,2024_Jun_15_1742,MFTM_A_new1021,2021.2.3,60.24793229098447,
,,,,,,,,stim/Instruction_adaptive.png,conditions/adaptive.xlsx,test,0.6,0.6,0.6,-0.6,-0.6,right,R,,,,,0,1,1,1,0,17,17,68,,,,,,,,,,,,,,,,,,,,,,,,,,,,,,,,,,,,,,,,,,,,163.16714980000006,None,left,0,0.8200065000000905,163.66733,165.38727029999995,163.66733,164.8854126000001,163.66733,164.8854126000001,163.66733,164.8854126000001,163.66733,164.8854126000001,163.66733,164.8854126000001,164.87007719999997,165.37077090000002,164.87007719999997,165.37077090000002,164.87007719999997,165.37077090000002,164.87007719999997,165.37077090000002,164.87007719999997,165.37077090000002,164.87007719999997,165.37077090000002,164.87007719999997,165.37077090000002,164.87007719999997,165.37077090000002,163.66733,None,165.37077090000002,166.0203884,1.2200000000000009,166.0371649000001,None,166.78938190000008,None,,,,,,,[0.64444444],2.1700000000000017,0.7777777777777778,12009,001,2024_Jun_15_1742,MFTM_A_new1021,2021.2.3,60.24793229098447,
,,,,,,,,stim/Instruction_adaptive.png,conditions/adaptive.xlsx,test,-0.6,-0.6,-0.6,0.6,0.6,left,L,,,,,0,1,1,1,0,18,18,47,,,,,,,,,,,,,,,,,,,,,,,,,,,,,,,,,,,,,,,,,,,,167.2896303,None,left,1,1.8241590999998607,167.79088939999997,169.76021379999997,167.79088939999997,169.25952299999994,167.79088939999997,169.25952299999994,167.79088939999997,169.25952299999994,167.79088939999997,169.25952299999994,167.79088939999997,169.25952299999994,169.22629439999992,169.7269169000001,169.22629439999992,169.7269169000001,169.22629439999992,169.7269169000001,169.22629439999992,169.7269169000001,169.22629439999992,169.7269169000001,169.22629439999992,169.7269169000001,169.22629439999992,169.7269169000001,169.22629439999992,169.7269169000001,167.79088939999997,None,169.7269169000001,170.3944254999999,1.460000000000001,170.427365,None,171.17939,None,,,,,,,[0.66526316],2.2600000000000016,0.7894736842105263,12009,001,2024_Jun_15_1742,MFTM_A_new1021,2021.2.3,60.24793229098447,
,,,,,,,,stim/Instruction_adaptive.png,conditions/adaptive.xlsx,test,0.6,0.6,0.6,-0.6,-0.6,right,R,,,,,0,1,1,1,0,19,19,16,,,,,,,,,,,,,,,,,,,,,,,,,,,,,,,,,,,,,,,,,,,,171.6804439,None,right,1,2.1550896999999622,172.17989450000005,174.05045240000004,172.17989450000005,173.54952509999998,172.17989450000005,173.54952509999998,172.17989450000005,173.54952509999998,172.17989450000005,173.54952509999998,172.17989450000005,173.54952509999998,173.53255209999998,174.03368369999998,173.53255209999998,174.03368369999998,173.53255209999998,174.03368369999998,173.53255209999998,174.03368369999998,173.53255209999998,174.03368369999998,173.53255209999998,174.03368369999998,173.53255209999998,174.03368369999998,173.53255209999998,174.03368369999998,172.17989450000005,None,174.03368369999998,174.7334768999999,1.370000000000001,174.7502019000001,None,175.50139650000006,None,,,,,,,[0.6885],2.3500000000000014,0.8,12009,001,2024_Jun_15_1742,MFTM_A_new1021,2021.2.3,60.24793229098447,
,,,,,,,,stim/Instruction_adaptive.png,conditions/adaptive.xlsx,test,0.6,0.6,0.6,-0.6,-0.6,right,R,,,,,0,1,1,1,0,20,20,8,,,,,,,,,,,,,,,,,,,,,,,,,,,,,,,,,,,,,,,,,,,,176.00200270000005,None,right,1,1.4717548000000988,176.5034189999999,178.3065140000001,176.5034189999999,177.805795,176.5034189999999,177.805795,176.5034189999999,177.805795,176.5034189999999,177.805795,176.5034189999999,177.805795,177.77251969999998,178.2728293,177.77251969999998,178.2728293,177.77251969999998,178.2728293,177.77251969999998,178.2728293,177.77251969999998,178.2728293,177.77251969999998,178.2728293,177.77251969999998,178.2728293,177.77251969999998,178.2728293,176.5034189999999,None,178.2728293,178.99147689999995,1.290000000000001,179.0257494,None,179.77570420000006,None,,,,,,,[0.71333333],2.4300000000000015,0.8095238095238095,12009,001,2024_Jun_15_1742,MFTM_A_new1021,2021.2.3,60.24793229098447,
,,,,,,,,stim/Instruction_adaptive.png,conditions/adaptive.xlsx,test,0.6,0.6,0.6,-0.6,-0.6,right,R,,,,,0,1,1,1,0,21,21,84,,,,,,,,,,,,,,,,,,,,,,,,,,,,,,,,,,,,,,,,,,,,180.2757939999999,None,right,1,1.590420199999926,180.77680639999994,182.4962155999999,180.77680639999994,182.01209749999998,180.77680639999994,182.01209749999998,180.77680639999994,182.01209749999998,180.77680639999994,182.01209749999998,180.77680639999994,182.01209749999998,181.97910389999993,182.47958070000004,181.97910389999993,182.47958070000004,181.97910389999993,182.47958070000004,181.97910389999993,182.47958070000004,181.97910389999993,182.47958070000004,181.97910389999993,182.47958070000004,181.97910389999993,182.47958070000004,181.97910389999993,182.47958070000004,180.77680639999994,None,182.47958070000004,183.23061230000008,1.2200000000000009,183.2463901000001,None,183.99899170000003,None,,,,,,,[0.73909091],2.5000000000000018,0.8181818181818182,12009,001,2024_Jun_15_1742,MFTM_A_new1021,2021.2.3,60.24793229098447,
,,,,,,,,stim/Instruction_adaptive.png,conditions/adaptive.xlsx,test,0.6,0.6,0.6,-0.6,-0.6,right,R,,,,,0,1,1,1,0,22,22,32,,,,,,,,,,,,,,,,,,,,,,,,,,,,,,,,,,,,,,,,,,,,184.49941220000005,None,right,1,1.624307300000055,184.99915549999992,186.66928030000008,184.99915549999992,186.16859550000004,184.99915549999992,186.16859550000004,184.99915549999992,186.16859550000004,184.99915549999992,186.16859550000004,184.99915549999992,186.16859550000004,186.1342459,186.6358623000001,186.1342459,186.6358623000001,186.1342459,186.6358623000001,186.1342459,186.6358623000001,186.1342459,186.6358623000001,186.1342459,186.6358623000001,186.1342459,186.6358623000001,186.1342459,186.6358623000001,184.99915549999992,None,186.6358623000001,187.40285369999992,1.1600000000000008,187.43653270000004,None,188.18823199999997,None,,,,,,,[0.76521739],2.570000000000002,0.8260869565217391,12009,001,2024_Jun_15_1742,MFTM_A_new1021,2021.2.3,60.24793229098447,
,,,,,,,,stim/Instruction_adaptive.png,conditions/adaptive.xlsx,test,-0.6,-0.6,-0.6,0.6,0.6,left,L,,,,,0,1,1,1,0,23,23,93,,,,,,,,,,,,,,,,,,,,,,,,,,,,,,,,,,,,,,,,,,,,188.6889675,None,left,1,1.2261717999999746,189.18927269999995,190.80787140000007,189.18927269999995,190.30781479999996,189.18927269999995,190.30781479999996,189.18927269999995,190.30781479999996,189.18927269999995,190.30781479999996,189.18927269999995,190.30781479999996,190.2744619,190.77523739999992,190.2744619,190.77523739999992,190.2744619,190.77523739999992,190.2744619,190.77523739999992,190.2744619,190.77523739999992,190.2744619,190.77523739999992,190.2744619,190.77523739999992,190.2744619,190.77523739999992,189.18927269999995,None,190.77523739999992,191.57641239999998,1.1100000000000008,191.61050479999994,None,192.3620151,None,,,,,,,[0.79125],2.6300000000000017,0.8333333333333334,12009,001,2024_Jun_15_1742,MFTM_A_new1021,2021.2.3,60.24793229098447,
,,,,,,,,stim/Instruction_adaptive.png,conditions/adaptive.xlsx,test,-0.6,-0.6,-0.6,0.6,0.6,left,L,,,,,0,1,1,1,0,24,24,67,,,,,,,,,,,,,,,,,,,,,,,,,,,,,,,,,,,,,,,,,,,,192.8618985999999,None,right,0,1.8868153999999322,193.3621803000001,194.93196620000003,193.3621803000001,194.43064690000006,193.3621803000001,194.43064690000006,193.3621803000001,194.43064690000006,193.3621803000001,194.43064690000006,193.3621803000001,194.43064690000006,194.3978492000001,194.89836229999992,194.3978492000001,194.89836229999992,194.3978492000001,194.89836229999992,194.3978492000001,194.89836229999992,194.3978492000001,194.89836229999992,194.3978492000001,194.89836229999992,194.3978492000001,194.89836229999992,194.3978492000001,194.89836229999992,193.3621803000001,None,194.89836229999992,195.71529710000004,1.0600000000000007,195.74828359999992,None,196.49991249999994,None,,,,,,,[0.8172],2.450000000000002,0.8,12009,001,2024_Jun_15_1742,MFTM_A_new1021,2021.2.3,60.24793229098447,
,,,,,,,,stim/Instruction_adaptive.png,conditions/adaptive.xlsx,test,0.6,0.6,0.6,-0.6,-0.6,right,R,,,,,0,1,1,1,0,25,25,24,,,,,,,,,,,,,,,,,,,,,,,,,,,,,,,,,,,,,,,,,,,,197.00150299999996,None,right,1,1.8820600999999897,197.50163780000003,199.2047884000001,197.50163780000003,198.7039987999999,197.50163780000003,198.7039987999999,197.50163780000003,198.7039987999999,197.50163780000003,198.7039987999999,197.50163780000003,198.7039987999999,198.68729929999995,199.18806990000007,198.68729929999995,199.18806990000007,198.68729929999995,199.18806990000007,198.68729929999995,199.18806990000007,198.68729929999995,199.18806990000007,198.68729929999995,199.18806990000007,198.68729929999995,199.18806990000007,198.68729929999995,199.18806990000007,197.50163780000003,None,199.18806990000007,None,1.2000000000000008,200.0574246000001,None,200.80707740000003,None,,,,,,,[0.83576923],2.520000000000002,0.8076923076923077,12009,001,2024_Jun_15_1742,MFTM_A_new1021,2021.2.3,60.24793229098447,
,,,,,,,,stim/Instruction_adaptive.png,conditions/adaptive.xlsx,test,-0.6,-0.6,-0.6,0.6,0.6,left,L,,,,,0,1,1,1,0,26,26,87,,,,,,,,,,,,,,,,,,,,,,,,,,,,,,,,,,,,,,,,,,,,201.30757070000004,None,left,1,1.479473999999982,201.8083967,203.46065,201.8083967,202.96045860000004,201.8083967,202.96045860000004,201.8083967,202.96045860000004,201.8083967,202.96045860000004,201.8083967,202.96045860000004,202.9435337,203.44468899999993,202.9435337,203.44468899999993,202.9435337,203.44468899999993,202.9435337,203.44468899999993,202.9435337,203.44468899999993,202.9435337,203.44468899999993,202.9435337,203.44468899999993,202.9435337,203.44468899999993,201.8083967,None,203.44468899999993,None,1.1500000000000008,204.31140630000004,None,205.06340449999993,None,,,,,,,[0.85481481],2.580000000000002,0.8148148148148148,12009,001,2024_Jun_15_1742,MFTM_A_new1021,2021.2.3,60.24793229098447,
,,,,,,,,stim/Instruction_adaptive.png,conditions/adaptive.xlsx,test,0.6,0.6,0.6,-0.6,-0.6,right,R,,,,,0,1,1,1,0,27,27,64,,,,,,,,,,,,,,,,,,,,,,,,,,,,,,,,,,,,,,,,,,,,205.56429690000004,None,right,1,1.152212499999905,206.06426940000006,207.66755160000002,206.06426940000006,207.16680610000003,206.06426940000006,207.16680610000003,206.06426940000006,207.16680610000003,206.06426940000006,207.16680610000003,206.06426940000006,207.16680610000003,207.1499214999999,207.65068889999998,207.1499214999999,207.65068889999998,207.1499214999999,207.65068889999998,207.1499214999999,207.65068889999998,207.1499214999999,207.65068889999998,207.1499214999999,207.65068889999998,207.1499214999999,207.65068889999998,207.1499214999999,207.65068889999998,206.06426940000006,None,207.65068889999998,208.53600140000003,1.1000000000000008,208.5697666000001,None,209.3198999000001,None,,,,,,,[0.87428571],2.6300000000000017,0.8214285714285714,12009,001,2024_Jun_15_1742,MFTM_A_new1021,2021.2.3,60.24793229098447,
,,,,,,,,stim/Instruction_adaptive.png,conditions/adaptive.xlsx,test,-0.6,-0.6,-0.6,0.6,0.6,left,L,,,,,0,1,1,1,0,28,28,53,,,,,,,,,,,,,,,,,,,,,,,,,,,,,,,,,,,,,,,,,,,,209.82039710000004,None,right,0,1.654825700000174,210.32126530000005,211.8907216,210.32126530000005,211.38939299999993,210.32126530000005,211.38939299999993,210.32126530000005,211.38939299999993,210.32126530000005,211.38939299999993,210.32126530000005,211.38939299999993,211.35601410000004,211.85727210000005,211.35601410000004,211.85727210000005,211.35601410000004,211.85727210000005,211.35601410000004,211.85727210000005,211.35601410000004,211.85727210000005,211.35601410000004,211.85727210000005,211.35601410000004,211.85727210000005,211.35601410000004,211.85727210000005,210.32126530000005,None,211.85727210000005,212.75824220000004,1.0600000000000007,212.7739564000001,None,213.52636510000002,None,,,,,,,[0.8937931],2.4700000000000015,0.7931034482758621,12009,001,2024_Jun_15_1742,MFTM_A_new1021,2021.2.3,60.24793229098447,
,,,,,,,,stim/Instruction_adaptive.png,conditions/adaptive.xlsx,test,-0.6,-0.6,-0.6,0.6,0.6,left,L,,,,,0,1,1,1,0,29,29,85,,,,,,,,,,,,,,,,,,,,,,,,,,,,,,,,,,,,,,,,,,,,214.0271401,None,left,1,1.1526002999999037,214.52785089999998,216.23049889999993,214.52785089999998,215.73021089999997,214.52785089999998,215.73021089999997,214.52785089999998,215.73021089999997,214.52785089999998,215.73021089999997,214.52785089999998,215.73021089999997,215.6955749000001,216.19695479999996,215.6955749000001,216.19695479999996,215.6955749000001,216.19695479999996,215.6955749000001,216.19695479999996,215.6955749000001,216.19695479999996,215.6955749000001,216.19695479999996,215.6955749000001,216.19695479999996,215.6955749000001,216.19695479999996,214.52785089999998,None,216.19695479999996,217.1149319000001,1.1900000000000008,217.1305651,None,217.88294100000007,None,,,,,,,[0.90766667],2.530000000000002,0.8,12009,001,2024_Jun_15_1742,MFTM_A_new1021,2021.2.3,60.24793229098447,
,,,,,,,,stim/Instruction_adaptive.png,conditions/adaptive.xlsx,test,-0.6,-0.6,-0.6,0.6,0.6,left,L,,,,,0,1,1,1,0,30,30,39,,,,,,,,,,,,,,,,,,,,,,,,,,,,,,,,,,,,,,,,,,,,218.38377659999992,None,left,1,1.532775799999854,218.88376500000004,220.53661190000003,218.88376500000004,220.0360330000001,218.88376500000004,220.0360330000001,218.88376500000004,220.0360330000001,218.88376500000004,220.0360330000001,218.88376500000004,220.0360330000001,220.00291070000003,220.5037311000001,220.00291070000003,220.5037311000001,220.00291070000003,220.5037311000001,220.00291070000003,220.5037311000001,220.00291070000003,220.5037311000001,220.00291070000003,220.5037311000001,220.00291070000003,220.5037311000001,220.00291070000003,220.5037311000001,218.88376500000004,None,220.5037311000001,221.43848030000004,1.1400000000000008,221.45391169999994,None,222.20611299999996,None,,,,,,,[0.92225806],2.580000000000002,0.8064516129032258,12009,001,2024_Jun_15_1742,MFTM_A_new1021,2021.2.3,60.24793229098447,
,,,,,,,,stim/Instruction_adaptive.png,conditions/adaptive.xlsx,test,0.6,0.6,0.6,-0.6,-0.6,right,R,,,,,0,1,1,1,0,31,31,72,,,,,,,,,,,,,,,,,,,,,,,,,,,,,,,,,,,,,,,,,,,,222.7065520000001,None,right,1,1.5771709999999075,223.2074103,224.80988780000007,223.2074103,224.30910500000005,223.2074103,224.30910500000005,223.2074103,224.30910500000005,223.2074103,224.30910500000005,223.2074103,224.30910500000005,224.29270739999993,224.79324470000006,224.29270739999993,224.79324470000006,224.29270739999993,224.79324470000006,224.29270739999993,224.79324470000006,224.29270739999993,224.79324470000006,224.29270739999993,224.79324470000006,224.29270739999993,224.79324470000006,224.29270739999993,224.79324470000006,223.2074103,None,224.79324470000006,None,1.1000000000000008,225.7438646999999,None,226.4961585000001,None,,,,,,,[0.9371875],2.6300000000000017,0.8125,12009,001,2024_Jun_15_1742,MFTM_A_new1021,2021.2.3,60.24793229098447,
,,,,,,,,stim/Instruction_adaptive.png,conditions/adaptive.xlsx,test,0.6,0.6,0.6,-0.6,-0.6,right,R,,,,,0,1,1,1,0,32,32,2,,,,,,,,,,,,,,,,,,,,,,,,,,,,,,,,,,,,,,,,,,,,226.99672869999995,None,left,0,1.6473843999999644,227.49737460000006,229.06645890000004,227.49737460000006,228.56572359999996,227.49737460000006,228.56572359999996,227.49737460000006,228.56572359999996,227.49737460000006,228.56572359999996,227.49737460000006,228.56572359999996,228.53203439999993,229.03290949999996,228.53203439999993,229.03290949999996,228.53203439999993,229.03290949999996,228.53203439999993,229.03290949999996,228.53203439999993,229.03290949999996,228.53203439999993,229.03290949999996,228.53203439999993,229.03290949999996,228.53203439999993,229.03290949999996,227.49737460000006,None,229.03290949999996,229.98433980000004,1.0600000000000007,230.0358366999999,None,230.78494550000005,None,,,,,,,[0.95242424],2.490000000000002,0.7878787878787878,12009,001,2024_Jun_15_1742,MFTM_A_new1021,2021.2.3,60.24793229098447,
,,,,,,,,stim/Instruction_adaptive.png,conditions/adaptive.xlsx,test,0.6,0.6,0.6,-0.6,-0.6,right,R,,,,,0,1,1,1,0,33,33,38,,,,,,,,,,,,,,,,,,,,,,,,,,,,,,,,,,,,,,,,,,,,231.28630449999991,None,right,1,1.406073799999831,231.78663069999993,233.4563134,231.78663069999993,232.97246900000005,231.78663069999993,232.97246900000005,231.78663069999993,232.97246900000005,231.78663069999993,232.97246900000005,231.78663069999993,232.97246900000005,232.93817220000005,233.4396165999999,232.93817220000005,233.4396165999999,232.93817220000005,233.4396165999999,232.93817220000005,233.4396165999999,232.93817220000005,233.4396165999999,232.93817220000005,233.4396165999999,232.93817220000005,233.4396165999999,232.93817220000005,233.4396165999999,231.78663069999993,None,233.4396165999999,234.40930350000008,1.1700000000000008,234.4417509,None,235.1922916000001,None,,,,,,,[0.96352941],2.540000000000002,0.7941176470588235,12009,001,2024_Jun_15_1742,MFTM_A_new1021,2021.2.3,60.24793229098447,
,,,,,,,,stim/Instruction_adaptive.png,conditions/adaptive.xlsx,test,0.6,0.6,0.6,-0.6,-0.6,right,R,,,,,0,1,1,1,0,34,34,40,,,,,,,,,,,,,,,,,,,,,,,,,,,,,,,,,,,,,,,,,,,,235.69284659999994,None,right,1,1.6081260999999358,236.19343019999997,237.8287433999999,236.19343019999997,237.32902119999994,236.19343019999997,237.32902119999994,236.19343019999997,237.32902119999994,236.19343019999997,237.32902119999994,236.19343019999997,237.32902119999994,237.31207470000004,237.8120527000001,237.31207470000004,237.8120527000001,237.31207470000004,237.8120527000001,237.31207470000004,237.8120527000001,237.31207470000004,237.8120527000001,237.31207470000004,237.8120527000001,237.31207470000004,237.8120527000001,237.31207470000004,237.8120527000001,236.19343019999997,None,237.8120527000001,None,1.1300000000000008,238.7966695,None,239.54921850000005,None,,,,,,,[0.97514286],2.5900000000000016,0.8,12009,001,2024_Jun_15_1742,MFTM_A_new1021,2021.2.3,60.24793229098447,
,,,,,,,,stim/Instruction_adaptive.png,conditions/adaptive.xlsx,test,0.6,0.6,0.6,-0.6,-0.6,right,R,,,,,0,1,1,1,0,35,35,76,,,,,,,,,,,,,,,,,,,,,,,,,,,,,,,,,,,,,,,,,,,,240.04950310000004,None,right,1,1.6907459000001381,240.5502414,242.1530345000001,240.5502414,241.6521639,240.5502414,241.6521639,240.5502414,241.6521639,240.5502414,241.6521639,240.5502414,241.6521639,241.61887019999995,242.1197122000001,241.61887019999995,242.1197122000001,241.61887019999995,242.1197122000001,241.61887019999995,242.1197122000001,241.61887019999995,242.1197122000001,241.61887019999995,242.1197122000001,241.61887019999995,242.1197122000001,241.61887019999995,242.1197122000001,240.5502414,None,242.1197122000001,243.12098100000003,1.0900000000000007,243.13670260000004,None,243.88886580000008,None,,,,,,,[0.98722222],2.6300000000000017,0.8055555555555556,12009,001,2024_Jun_15_1742,MFTM_A_new1021,2021.2.3,60.24793229098447,
,,,,,,,,stim/Instruction_adaptive.png,conditions/adaptive.xlsx,test,0.6,0.6,0.6,-0.6,-0.6,right,R,,,,,0,1,1,1,0,36,36,10,,,,,,,,,,,,,,,,,,,,,,,,,,,,,,,,,,,,,,,,,,,,244.38972650000005,None,right,1,1.6387864999999238,244.89036299999998,246.45957249999992,244.89036299999998,245.95873030000007,244.89036299999998,245.95873030000007,244.89036299999998,245.95873030000007,244.89036299999998,245.95873030000007,244.89036299999998,245.95873030000007,245.9247906999999,246.42602119999992,245.9247906999999,246.42602119999992,245.9247906999999,246.42602119999992,245.9247906999999,246.42602119999992,245.9247906999999,246.42602119999992,245.9247906999999,246.42602119999992,245.9247906999999,246.42602119999992,245.9247906999999,246.42602119999992,244.89036299999998,None,246.42602119999992,247.42662229999996,1.0600000000000007,247.4600663000001,None,248.21239650000007,None,,,,,,,[0.99945946],2.680000000000002,0.8108108108108109,12009,001,2024_Jun_15_1742,MFTM_A_new1021,2021.2.3,60.24793229098447,
,,,,,,,,stim/Instruction_adaptive.png,conditions/adaptive.xlsx,test,-0.6,-0.6,-0.6,0.6,0.6,left,L,,,,,0,1,1,1,0,37,37,91,,,,,,,,,,,,,,,,,,,,,,,,,,,,,,,,,,,,,,,,,,,,248.71271619999993,None,left,1,1.908337099999926,249.21290199999999,250.74934050000002,249.21290199999999,250.2475531,249.21290199999999,250.2475531,249.21290199999999,250.2475531,249.21290199999999,250.2475531,249.21290199999999,250.2475531,250.2306470000001,250.73255730000005,250.2306470000001,250.73255730000005,250.2306470000001,250.73255730000005,250.2306470000001,250.73255730000005,250.2306470000001,250.73255730000005,250.2306470000001,250.73255730000005,250.2306470000001,250.73255730000005,250.2306470000001,250.73255730000005,249.21290199999999,None,250.7159016999999,251.73414159999993,1.0300000000000007,251.76645989999997,None,252.51846109999997,None,,,,,,,[1.01184211],2.720000000000002,0.8157894736842105,12009,001,2024_Jun_15_1742,MFTM_A_new1021,2021.2.3,60.24793229098447,
,,,,,,,,stim/Instruction_adaptive.png,conditions/adaptive.xlsx,test,-0.6,-0.6,-0.6,0.6,0.6,left,L,,,,,0,1,1,1,0,38,38,35,,,,,,,,,,,,,,,,,,,,,,,,,,,,,,,,,,,,,,,,,,,,253.01909509999996,None,left,1,0.8981748999999581,253.51948160000006,255.02277320000007,253.51948160000006,254.5210419,253.51948160000006,254.5210419,253.51948160000006,254.5210419,253.51948160000006,254.5210419,253.51948160000006,254.5210419,254.50505180000005,255.00489330000005,254.50505180000005,255.00489330000005,254.50505180000005,255.00489330000005,254.50505180000005,255.00489330000005,254.50505180000005,255.00489330000005,254.50505180000005,255.00489330000005,254.50505180000005,255.00489330000005,254.50505180000005,255.00489330000005,253.51948160000006,None,255.00489330000005,256.04036229999997,1.0000000000000007,256.0559591000001,None,256.8082498000001,None,,,,,,,[1.02435897],2.760000000000002,0.8205128205128205,12009,001,2024_Jun_15_1742,MFTM_A_new1021,2021.2.3,60.24793229098447,
,,,,,,,,stim/Instruction_adaptive.png,conditions/adaptive.xlsx,test,0.6,0.6,0.6,-0.6,-0.6,right,R,,,,,0,1,1,1,0,39,39,48,,,,,,,,,,,,,,,,,,,,,,,,,,,,,,,,,,,,,,,,,,,,257.3091396,None,right,1,1.3118160999999873,257.8094618,259.2953798000001,257.8094618,258.79435880000005,257.8094618,258.79435880000005,257.8094618,258.79435880000005,257.8094618,258.79435880000005,257.8094618,258.79435880000005,258.76084489999994,259.2613113,258.76084489999994,259.2613113,258.76084489999994,259.2613113,258.76084489999994,259.2613113,258.76084489999994,259.2613113,258.76084489999994,259.2613113,258.76084489999994,259.2613113,258.76084489999994,259.2613113,257.8094618,None,259.2613113,260.3142459999999,0.9700000000000006,260.3297811,None,261.0819269000001,None,,,,,,,[1.037],2.800000000000002,0.825,12009,001,2024_Jun_15_1742,MFTM_A_new1021,2021.2.3,60.24793229098447,
,,,,,,,,stim/Instruction_adaptive.png,conditions/adaptive.xlsx,test,-0.6,-0.6,-0.6,0.6,0.6,left,L,,,,,0,1,1,1,0,40,40,81,,,,,,,,,,,,,,,,,,,,,,,,,,,,,,,,,,,,,,,,,,,,261.58229600000004,None,right,0,1.806570499999907,262.08316560000003,263.53516220000006,262.08316560000003,263.03456660000006,262.08316560000003,263.03456660000006,262.08316560000003,263.03456660000006,262.08316560000003,263.03456660000006,262.08316560000003,263.03456660000006,263.00103160000003,263.5016316000001,263.00103160000003,263.5016316000001,263.00103160000003,263.5016316000001,263.00103160000003,263.5016316000001,263.00103160000003,263.5016316000001,263.00103160000003,263.5016316000001,263.00103160000003,263.5016316000001,263.00103160000003,263.5016316000001,262.08316560000003,None,263.5016316000001,264.55315240000004,0.9400000000000006,264.5854509999999,None,265.3369838000001,None,,,,,,,[1.0497561],2.690000000000002,0.8048780487804879,12009,001,2024_Jun_15_1742,MFTM_A_new1021,2021.2.3,60.24793229098447,
,,,,,,,,stim/Instruction_adaptive.png,conditions/adaptive.xlsx,test,0.6,0.6,0.6,-0.6,-0.6,right,R,,,,,0,1,1,1,0,41,41,78,,,,,,,,,,,,,,,,,,,,,,,,,,,,,,,,,,,,,,,,,,,,265.83885310000005,None,left,0,2.102979100000084,266.3390804999999,267.858608,266.3390804999999,267.3743033999999,266.3390804999999,267.3743033999999,266.3390804999999,267.3743033999999,266.3390804999999,267.3743033999999,266.3390804999999,267.3743033999999,267.3408778999999,267.8418104,267.3408778999999,267.8418104,267.3408778999999,267.8418104,267.3408778999999,267.8418104,267.3408778999999,267.8418104,267.3408778999999,267.8418104,267.3408778999999,267.8418104,267.3408778999999,267.8418104,266.3390804999999,None,267.8418104,268.91001389999997,1.0200000000000007,268.9446553,None,269.6946025,None,,,,,,,[1.06],2.570000000000002,0.7857142857142857,12009,001,2024_Jun_15_1742,MFTM_A_new1021,2021.2.3,60.24793229098447,
,,,,,,,,stim/Instruction_adaptive.png,conditions/adaptive.xlsx,test,-0.6,-0.6,-0.6,0.6,0.6,left,L,,,,,0,1,1,1,0,42,42,59,,,,,,,,,,,,,,,,,,,,,,,,,,,,,,,,,,,,,,,,,,,,270.1941279,None,left,1,1.746004800000037,270.6957513,272.3146471,270.6957513,271.81434820000004,270.6957513,271.81434820000004,270.6957513,271.81434820000004,270.6957513,271.81434820000004,270.6957513,271.81434820000004,271.78097890000004,272.2815315,271.78097890000004,272.2815315,271.78097890000004,272.2815315,271.78097890000004,272.2815315,271.78097890000004,272.2815315,271.78097890000004,272.2815315,271.78097890000004,272.2815315,271.78097890000004,272.2815315,270.6957513,None,272.2815315,273.3501206000001,1.1100000000000008,273.40147690000003,None,274.1509684,None,,,,,,,[1.06767442],2.610000000000002,0.7906976744186046,12009,001,2024_Jun_15_1742,MFTM_A_new1021,2021.2.3,60.24793229098447,
,,,,,,,,stim/Instruction_adaptive.png,conditions/adaptive.xlsx,test,0.6,0.6,0.6,-0.6,-0.6,right,R,,,,,0,1,1,1,0,43,43,46,,,,,,,,,,,,,,,,,,,,,,,,,,,,,,,,,,,,,,,,,,,,274.6517099,None,right,1,1.9857642999998006,275.15265180000006,276.7376928000001,275.15265180000006,276.2375715999999,275.15265180000006,276.2375715999999,275.15265180000006,276.2375715999999,275.15265180000006,276.2375715999999,275.15265180000006,276.2375715999999,276.2207257,276.72101969999994,276.2207257,276.72101969999994,276.2207257,276.72101969999994,276.2207257,276.72101969999994,276.2207257,276.72101969999994,276.2207257,276.72101969999994,276.2207257,276.72101969999994,276.2207257,276.72101969999994,275.15265180000006,None,276.72101969999994,None,1.0800000000000007,277.8229113,None,278.5748867,None,,,,,,,[1.07568182],2.650000000000002,0.7954545454545454,12009,001,2024_Jun_15_1742,MFTM_A_new1021,2021.2.3,60.24793229098447,
,,,,,,,,stim/Instruction_adaptive.png,conditions/adaptive.xlsx,test,-0.6,-0.6,-0.6,0.6,0.6,left,L,,,,,0,1,1,1,0,44,44,97,,,,,,,,,,,,,,,,,,,,,,,,,,,,,,,,,,,,,,,,,,,,279.0752809999999,None,left,1,1.322160900000199,279.5761284,281.1288511,279.5761284,280.6275943999999,279.5761284,280.6275943999999,279.5761284,280.6275943999999,279.5761284,280.6275943999999,279.5761284,280.6275943999999,280.61091609999994,281.1117574,280.61091609999994,281.1117574,280.61091609999994,281.1117574,280.61091609999994,281.1117574,280.61091609999994,281.1117574,280.61091609999994,281.1117574,280.61091609999994,281.1117574,280.61091609999994,281.1117574,279.5761284,None,281.1117574,282.1960572999999,1.0500000000000007,282.2127671999999,None,282.96344309999995,None,,,,,,,[1.084],2.690000000000002,0.8,12009,001,2024_Jun_15_1742,MFTM_A_new1021,2021.2.3,60.24793229098447,
,,,,,,,,stim/Instruction_adaptive.png,conditions/adaptive.xlsx,test,0.6,0.6,0.6,-0.6,-0.6,right,R,,,,,0,1,1,1,0,45,45,92,,,,,,,,,,,,,,,,,,,,,,,,,,,,,,,,,,,,,,,,,,,,283.4653275999999,None,right,1,1.1731133999999201,283.96530989999997,285.48479799999996,283.96530989999997,285.00058480000007,283.96530989999997,285.00058480000007,283.96530989999997,285.00058480000007,283.96530989999997,285.00058480000007,283.96530989999997,285.00058480000007,284.96726450000006,285.4682441,284.96726450000006,285.4682441,284.96726450000006,285.4682441,284.96726450000006,285.4682441,284.96726450000006,285.4682441,284.96726450000006,285.4682441,284.96726450000006,285.4682441,284.96726450000006,285.4682441,283.96530989999997,None,285.4682441,286.569923,1.0200000000000007,286.58532160000004,None,287.3378273000001,None,,,,,,,[1.0926087],2.720000000000002,0.8043478260869565,12009,001,2024_Jun_15_1742,MFTM_A_new1021,2021.2.3,60.24793229098447,
,,,,,,,,stim/Instruction_adaptive.png,conditions/adaptive.xlsx,test,-0.6,-0.6,-0.6,0.6,0.6,left,L,,,,,0,1,1,1,0,46,46,15,,,,,,,,,,,,,,,,,,,,,,,,,,,,,,,,,,,,,,,,,,,,287.8384266999999,None,left,1,1.1275877000000492,288.3386891,289.84103129999994,288.3386891,289.3406058999999,288.3386891,289.3406058999999,288.3386891,289.3406058999999,288.3386891,289.3406058999999,288.3386891,289.3406058999999,289.3240638,289.8246509999999,289.3240638,289.8246509999999,289.3240638,289.8246509999999,289.3240638,289.8246509999999,289.3240638,289.8246509999999,289.3240638,289.8246509999999,289.3240638,289.8246509999999,289.3240638,289.8246509999999,288.3386891,None,289.8246509999999,290.92596419999995,1.0000000000000007,290.9429163,None,291.6942798,None,,,,,,,[1.1012766],2.760000000000002,0.8085106382978723,12009,001,2024_Jun_15_1742,MFTM_A_new1021,2021.2.3,60.24793229098447,
,,,,,,,,stim/Instruction_adaptive.png,conditions/adaptive.xlsx,test,0.6,0.6,0.6,-0.6,-0.6,right,R,,,,,0,1,1,1,0,47,47,6,,,,,,,,,,,,,,,,,,,,,,,,,,,,,,,,,,,,,,,,,,,,292.1950379,None,right,1,1.3552013999999417,292.6952040000001,294.1651113999999,292.6952040000001,293.68068459999995,292.6952040000001,293.68068459999995,292.6952040000001,293.68068459999995,292.6952040000001,293.68068459999995,292.6952040000001,293.68068459999995,293.6471911000001,294.14821329999995,293.6471911000001,294.14821329999995,293.6471911000001,294.14821329999995,293.6471911000001,294.14821329999995,293.6471911000001,294.14821329999995,293.6471911000001,294.14821329999995,293.6471911000001,294.14821329999995,293.6471911000001,294.14821329999995,292.6952040000001,None,294.14821329999995,295.2667140000001,0.9700000000000006,295.30024030000004,None,296.05093480000005,None,,,,,,,[1.11020833],2.790000000000002,0.8125,12009,001,2024_Jun_15_1742,MFTM_A_new1021,2021.2.3,60.24793229098447,
,,,,,,,,stim/Instruction_adaptive.png,conditions/adaptive.xlsx,test,-0.6,-0.6,-0.6,0.6,0.6,left,L,,,,,0,1,1,1,0,48,48,57,,,,,,,,,,,,,,,,,,,,,,,,,,,,,,,,,,,,,,,,,,,,296.55152410000005,None,left,1,1.1902004999999463,297.0523733,298.5041813,297.0523733,298.0028273999999,297.0523733,298.0028273999999,297.0523733,298.0028273999999,297.0523733,298.0028273999999,297.0523733,298.0028273999999,297.98616689999994,298.4877355000001,297.98616689999994,298.4877355000001,297.98616689999994,298.4877355000001,297.98616689999994,298.4877355000001,297.98616689999994,298.4877355000001,297.98616689999994,298.4877355000001,297.98616689999994,298.4877355000001,297.98616689999994,298.4877355000001,297.0523733,None,298.4877355000001,299.6062681000001,0.9500000000000006,299.6224597999999,None,300.3731746000001,None,,,,,,,[1.11918367],2.830000000000002,0.8163265306122449,12009,001,2024_Jun_15_1742,MFTM_A_new1021,2021.2.3,60.24793229098447,
,,,,,,,,stim/Instruction_adaptive.png,conditions/adaptive.xlsx,test,0.6,0.6,0.6,-0.6,-0.6,right,R,,,,,0,1,1,1,0,49,49,80,,,,,,,,,,,,,,,,,,,,,,,,,,,,,,,,,,,,,,,,,,,,300.87457489999997,None,left,0,1.0525038000000677,301.37502599999993,302.8110061,301.37502599999993,302.3093361000001,301.37502599999993,302.3093361000001,301.37502599999993,302.3093361000001,301.37502599999993,302.3093361000001,301.37502599999993,302.3093361000001,302.2935689000001,302.79421490000004,302.2935689000001,302.79421490000004,302.2935689000001,302.79421490000004,302.2935689000001,302.79421490000004,302.2935689000001,302.79421490000004,302.2935689000001,302.79421490000004,302.2935689000001,302.79421490000004,302.2935689000001,302.79421490000004,301.37502599999993,None,302.79421490000004,303.92922569999996,0.9300000000000006,303.96243290000007,None,304.71402579999994,None,,,,,,,[1.1282],2.730000000000002,0.8,12009,001,2024_Jun_15_1742,MFTM_A_new1021,2021.2.3,60.24793229098447,
,,,,,,,,stim/Instruction_adaptive.png,conditions/adaptive.xlsx,test,-0.6,-0.6,-0.6,0.6,0.6,left,L,,,,,0,1,1,1,0,50,50,83,,,,,,,,,,,,,,,,,,,,,,,,,,,,,,,,,,,,,,,,,,,,305.21448770000006,None,left,1,1.352556199999981,305.71514389999993,307.2172825,305.71514389999993,306.71666989999994,305.71514389999993,306.71666989999994,305.71514389999993,306.71666989999994,305.71514389999993,306.71666989999994,305.71514389999993,306.71666989999994,306.6830158,307.1836704,306.6830158,307.1836704,306.6830158,307.1836704,306.6830158,307.1836704,306.6830158,307.1836704,306.6830158,307.1836704,306.6830158,307.1836704,306.6830158,307.1836704,305.71514389999993,None,307.1836704,308.3192627000001,0.9900000000000007,308.36951909999993,None,309.12085980000006,None,,,,,,,[1.13568627],2.760000000000002,0.803921568627451,12009,001,2024_Jun_15_1742,MFTM_A_new1021,2021.2.3,60.24793229098447,
,,,,,,,,stim/Instruction_adaptive.png,conditions/adaptive.xlsx,test,0.6,0.6,0.6,-0.6,-0.6,right,R,,,,,0,1,1,1,0,51,51,74,,,,,,,,,,,,,,,,,,,,,,,,,,,,,,,,,,,,,,,,,,,,309.6214373,None,right,1,1.8169777999999042,310.1220177,311.6074911999999,310.1220177,311.1069447,310.1220177,311.1069447,310.1220177,311.1069447,310.1220177,311.1069447,310.1220177,311.1069447,311.0735073999999,311.57342059999996,311.0735073999999,311.57342059999996,311.0735073999999,311.57342059999996,311.0735073999999,311.57342059999996,311.0735073999999,311.57342059999996,311.0735073999999,311.57342059999996,311.0735073999999,311.57342059999996,311.0735073999999,311.57342059999996,310.1220177,None,311.57342059999996,312.7260117000001,0.9700000000000006,312.7421615999999,None,313.49281240000005,None,,,,,,,[1.14326923],2.800000000000002,0.8076923076923077,12009,001,2024_Jun_15_1742,MFTM_A_new1021,2021.2.3,60.24793229098447,
,,,,,,,,stim/Instruction_adaptive.png,conditions/adaptive.xlsx,test,-0.6,-0.6,-0.6,0.6,0.6,left,L,,,,,0,1,1,1,0,52,52,3,,,,,,,,,,,,,,,,,,,,,,,,,,,,,,,,,,,,,,,,,,,,313.9945106,None,left,1,1.1646041999999852,314.49442739999995,315.9474599,314.49442739999995,315.4466576,314.49442739999995,315.4466576,314.49442739999995,315.4466576,314.49442739999995,315.4466576,314.49442739999995,315.4466576,315.4125292000001,315.9143549999999,315.4125292000001,315.9143549999999,315.4125292000001,315.9143549999999,315.4125292000001,315.9143549999999,315.4125292000001,315.9143549999999,315.4125292000001,315.9143549999999,315.4125292000001,315.9143549999999,315.4125292000001,315.9143549999999,314.49442739999995,None,315.9143549999999,317.06563819999997,0.9400000000000006,317.0985931,None,317.8504306,None,,,,,,,[1.15113208],2.830000000000002,0.8113207547169812,12009,001,2024_Jun_15_1742,MFTM_A_new1021,2021.2.3,60.24793229098447,
,,,,,,,,stim/Instruction_adaptive.png,conditions/adaptive.xlsx,test,0.6,0.6,0.6,-0.6,-0.6,right,R,,,,,0,1,1,1,0,53,53,0,,,,,,,,,,,,,,,,,,,,,,,,,,,,,,,,,,,,,,,,,,,,318.3508041,None,left,0,1.3436526000000413,318.8512816,320.2873253,318.8512816,319.78564830000005,318.8512816,319.78564830000005,318.8512816,319.78564830000005,318.8512816,319.78564830000005,318.8512816,319.78564830000005,319.77018139999996,320.2708301,319.77018139999996,320.2708301,319.77018139999996,320.2708301,319.77018139999996,320.2708301,319.77018139999996,320.2708301,319.77018139999996,320.2708301,319.77018139999996,320.2708301,319.77018139999996,320.2708301,318.8512816,None,320.2708301,None,0.9300000000000006,321.45722180000007,None,322.2067221,None,,,,,,,[1.15888889],2.740000000000002,0.7962962962962963,12009,001,2024_Jun_15_1742,MFTM_A_new1021,2021.2.3,60.24793229098447,
,,,,,,,,stim/Instruction_adaptive.png,conditions/adaptive.xlsx,test,-0.6,-0.6,-0.6,0.6,0.6,left,L,,,,,0,1,1,1,0,54,54,19,,,,,,,,,,,,,,,,,,,,,,,,,,,,,,,,,,,,,,,,,,,,322.70762850000006,None,left,1,1.2509956000001239,323.2085836000001,324.6942024,323.2085836000001,324.1933547000001,323.2085836000001,324.1933547000001,323.2085836000001,324.1933547000001,323.2085836000001,324.1933547000001,323.2085836000001,324.1933547000001,324.1765885,324.6772837000001,324.1765885,324.6772837000001,324.1765885,324.6772837000001,324.1765885,324.6772837000001,324.1765885,324.6772837000001,324.1765885,324.6772837000001,324.1765885,324.6772837000001,324.1765885,324.6772837000001,323.2085836000001,None,324.6772837000001,325.8456136,0.9800000000000006,325.87957570000003,None,326.6304748,None,,,,,,,[1.16545455],2.7700000000000022,0.8,12009,001,2024_Jun_15_1742,MFTM_A_new1021,2021.2.3,60.24793229098447,
,,,,,,,,stim/Instruction_adaptive.png,conditions/adaptive.xlsx,test,0.6,0.6,0.6,-0.6,-0.6,right,R,,,,,0,1,1,1,0,55,55,28,,,,,,,,,,,,,,,,,,,,,,,,,,,,,,,,,,,,,,,,,,,,327.13115629999993,None,right,1,0.9160044000000198,327.6318404000001,329.1006877,327.6318404000001,328.59972489999996,327.6318404000001,328.59972489999996,327.6318404000001,328.59972489999996,327.6318404000001,328.59972489999996,327.6318404000001,328.59972489999996,328.5662892,329.0673329000001,328.5662892,329.0673329000001,328.5662892,329.0673329000001,328.5662892,329.0673329000001,328.5662892,329.0673329000001,328.5662892,329.0673329000001,328.5662892,329.0673329000001,328.5662892,329.0673329000001,327.6318404000001,None,329.0673329000001,330.2520426000001,0.9600000000000006,330.2680216000001,None,331.0202769,None,,,,,,,[1.17214286],2.800000000000002,0.8035714285714286,12009,001,2024_Jun_15_1742,MFTM_A_new1021,2021.2.3,60.24793229098447,
,,,,,,,,stim/Instruction_adaptive.png,conditions/adaptive.xlsx,test,-0.6,-0.6,-0.6,0.6,0.6,left,L,,,,,0,1,1,1,0,56,56,89,,,,,,,,,,,,,,,,,,,,,,,,,,,,,,,,,,,,,,,,,,,,331.52108139999996,None,left,1,0.7506481999998869,332.0214211,333.47348910000005,332.0214211,332.9729834,332.0214211,332.9729834,332.0214211,332.9729834,332.0214211,332.9729834,332.0214211,332.9729834,332.93981540000004,333.4408493000001,332.93981540000004,333.4408493000001,332.93981540000004,333.4408493000001,332.93981540000004,333.4408493000001,332.93981540000004,333.4408493000001,332.93981540000004,333.4408493000001,332.93981540000004,333.4408493000001,332.93981540000004,333.4408493000001,332.0214211,None,333.4408493000001,334.6254813999999,0.9400000000000006,334.6411422000001,None,335.39296650000006,None,,,,,,,[1.17894737],2.830000000000002,0.8070175438596491,12009,001,2024_Jun_15_1742,MFTM_A_new1021,2021.2.3,60.24793229098447,
,,,,,,,,stim/Instruction_adaptive.png,conditions/adaptive.xlsx,test,-0.6,-0.6,-0.6,0.6,0.6,left,L,,,,,0,1,1,1,0,57,57,11,,,,,,,,,,,,,,,,,,,,,,,,,,,,,,,,,,,,,,,,,,,,335.89431949999994,None,left,1,1.2103253000000223,336.3941440000001,337.82950430000005,336.3941440000001,337.3293529,336.3941440000001,337.3293529,336.3941440000001,337.3293529,336.3941440000001,337.3293529,336.3941440000001,337.3293529,337.31225900000004,337.8127543999999,337.31225900000004,337.8127543999999,337.31225900000004,337.8127543999999,337.31225900000004,337.8127543999999,337.31225900000004,337.8127543999999,337.31225900000004,337.8127543999999,337.31225900000004,337.8127543999999,337.31225900000004,337.8127543999999,336.3941440000001,None,337.8127543999999,338.9989739,0.9300000000000006,339.01456099999996,None,339.7667428,None,,,,,,,[1.18568966],2.8500000000000023,0.8103448275862069,12009,001,2024_Jun_15_1742,MFTM_A_new1021,2021.2.3,60.24793229098447,
,,,,,,,,stim/Instruction_adaptive.png,conditions/adaptive.xlsx,test,-0.6,-0.6,-0.6,0.6,0.6,left,L,,,,,0,1,1,1,0,58,58,1,,,,,,,,,,,,,,,,,,,,,,,,,,,,,,,,,,,,,,,,,,,,340.26723820000007,None,left,1,0.9958943000001454,340.7677513000001,342.1869841,340.7677513000001,341.6866915999999,340.7677513000001,341.6866915999999,340.7677513000001,341.6866915999999,340.7677513000001,341.6866915999999,340.7677513000001,341.6866915999999,341.6697574,342.1704261,341.6697574,342.1704261,341.6697574,342.1704261,341.6697574,342.1704261,341.6697574,342.1704261,341.6697574,342.1704261,341.6697574,342.1704261,341.6697574,342.1704261,340.7677513000001,None,342.1534048000001,343.35515839999994,0.9100000000000006,343.3711843000001,None,344.1232904000001,None,,,,,,,[1.19254237],2.880000000000002,0.8135593220338984,12009,001,2024_Jun_15_1742,MFTM_A_new1021,2021.2.3,60.24793229098447,
,,,,,,,,stim/Instruction_adaptive.png,conditions/adaptive.xlsx,test,-0.6,-0.6,-0.6,0.6,0.6,left,L,,,,,0,1,1,1,0,59,59,27,,,,,,,,,,,,,,,,,,,,,,,,,,,,,,,,,,,,,,,,,,,,344.6243603999999,None,left,1,1.2064715000001343,345.14139479999994,346.54375660000005,345.14139479999994,346.04301970000006,345.14139479999994,346.04301970000006,345.14139479999994,346.04301970000006,345.14139479999994,346.04301970000006,345.14139479999994,346.04301970000006,345.99295499999994,346.49271350000004,345.99295499999994,346.49271350000004,345.99295499999994,346.49271350000004,345.99295499999994,346.49271350000004,345.99295499999994,346.49271350000004,345.99295499999994,346.49271350000004,345.99295499999994,346.49271350000004,345.99295499999994,346.49271350000004,345.14139479999994,None,346.5093623,347.71200150000004,0.8900000000000006,347.74508330000003,None,348.49705689999996,None,,,,,,,[1.1995],2.910000000000002,0.8166666666666667,12009,001,2024_Jun_15_1742,MFTM_A_new1021,2021.2.3,60.24793229098447,
,,,,,,,,stim/Instruction_adaptive.png,conditions/adaptive.xlsx,test,0.6,0.6,0.6,-0.6,-0.6,right,R,,,,,0,1,1,1,0,60,60,66,,,,,,,,,,,,,,,,,,,,,,,,,,,,,,,,,,,,,,,,,,,,348.99761650000005,None,right,1,1.3227359999998498,349.4975105000001,350.8833731,349.4975105000001,350.3818767,349.4975105000001,350.3818767,349.4975105000001,350.3818767,349.4975105000001,350.3818767,349.4975105000001,350.3818767,350.36568650000004,350.8671357999999,350.36568650000004,350.8671357999999,350.36568650000004,350.8671357999999,350.36568650000004,350.8671357999999,350.36568650000004,350.8671357999999,350.36568650000004,350.8671357999999,350.36568650000004,350.8671357999999,350.36568650000004,350.8671357999999,349.4975105000001,None,350.8671357999999,None,0.8800000000000006,352.102122,None,352.8531482000001,None,,,,,,,[1.20639344],2.9300000000000024,0.819672131147541,12009,001,2024_Jun_15_1742,MFTM_A_new1021,2021.2.3,60.24793229098447,
,,,,,,,,stim/Instruction_adaptive.png,conditions/adaptive.xlsx,test,0.6,0.6,0.6,-0.6,-0.6,right,R,,,,,0,1,1,1,0,61,61,30,,,,,,,,,,,,,,,,,,,,,,,,,,,,,,,,,,,,,,,,,,,,353.35398740000005,None,left,0,1.701360399999885,353.8549058000001,355.22343150000006,353.8549058000001,354.7224543,353.8549058000001,354.7224543,353.8549058000001,354.7224543,353.8549058000001,354.7224543,353.8549058000001,354.7224543,354.6894961999999,355.19007650000003,354.6894961999999,355.19007650000003,354.6894961999999,355.19007650000003,354.6894961999999,355.19007650000003,354.6894961999999,355.19007650000003,354.6894961999999,355.19007650000003,354.6894961999999,355.19007650000003,354.6894961999999,355.19007650000003,353.8549058000001,None,355.19007650000003,356.40767800000003,0.8600000000000005,356.4407114999999,None,357.19265960000007,None,,,,,,,[1.2133871],2.860000000000002,0.8064516129032258,12009,001,2024_Jun_15_1742,MFTM_A_new1021,2021.2.3,60.24793229098447,
,,,,,,,,stim/Instruction_adaptive.png,conditions/adaptive.xlsx,test,0.6,0.6,0.6,-0.6,-0.6,right,R,,,,,0,1,1,1,0,62,62,56,,,,,,,,,,,,,,,,,,,,,,,,,,,,,,,,,,,,,,,,,,,,357.69356489999996,None,right,1,1.1701146000000335,358.19401949999997,359.6133119000001,358.19401949999997,359.1128712,358.19401949999997,359.1128712,358.19401949999997,359.1128712,358.19401949999997,359.1128712,358.19401949999997,359.1128712,359.07914860000005,359.5799237000001,359.07914860000005,359.5799237000001,359.07914860000005,359.5799237000001,359.07914860000005,359.5799237000001,359.07914860000005,359.5799237000001,359.07914860000005,359.5799237000001,359.07914860000005,359.5799237000001,359.07914860000005,359.5799237000001,358.19401949999997,None,359.5799237000001,360.8149642000001,0.9100000000000006,360.8486663000001,None,361.5991116,None,,,,,,,[1.21936508],2.880000000000002,0.8095238095238095,12009,001,2024_Jun_15_1742,MFTM_A_new1021,2021.2.3,60.24793229098447,
,,,,,,,,stim/Instruction_adaptive.png,conditions/adaptive.xlsx,test,0.6,0.6,0.6,-0.6,-0.6,right,R,,,,,0,1,1,1,0,63,63,96,,,,,,,,,,,,,,,,,,,,,,,,,,,,,,,,,,,,,,,,,,,,362.0999849,None,right,1,1.3316791000002013,362.60030329999995,364.00245270000005,362.60030329999995,363.50165029999994,362.60030329999995,363.50165029999994,362.60030329999995,363.50165029999994,362.60030329999995,363.50165029999994,362.60030329999995,363.50165029999994,363.46831969999994,363.9687200000001,363.46831969999994,363.9687200000001,363.46831969999994,363.9687200000001,363.46831969999994,363.9687200000001,363.46831969999994,363.9687200000001,363.46831969999994,363.9687200000001,363.46831969999994,363.9687200000001,363.46831969999994,363.9687200000001,362.60030329999995,None,363.9687200000001,365.20457869999996,0.8900000000000006,365.22190120000005,None,365.9727803999999,None,,,,,,,[1.22546875],2.910000000000002,0.8125,12009,001,2024_Jun_15_1742,MFTM_A_new1021,2021.2.3,60.24793229098447,
,,,,,,,,stim/Instruction_adaptive.png,conditions/adaptive.xlsx,test,-0.6,-0.6,-0.6,0.6,0.6,left,L,,,,,0,1,1,1,0,64,64,31,,,,,,,,,,,,,,,,,,,,,,,,,,,,,,,,,,,,,,,,,,,,366.4739099000001,None,left,1,1.518772399999989,366.9740168000001,368.35985830000004,366.9740168000001,367.8595026999999,366.9740168000001,367.8595026999999,366.9740168000001,367.8595026999999,366.9740168000001,367.8595026999999,366.9740168000001,367.8595026999999,367.8423577000001,368.34324360000005,367.8423577000001,368.34324360000005,367.8423577000001,368.34324360000005,367.8423577000001,368.34324360000005,367.8423577000001,368.34324360000005,367.8423577000001,368.34324360000005,367.8423577000001,368.34324360000005,367.8423577000001,368.34324360000005,366.9740168000001,None,368.34324360000005,369.5784397,0.8800000000000006,369.5944426000001,None,370.3462959000001,None,,,,,,,[1.23153846],2.9300000000000024,0.8153846153846154,12009,001,2024_Jun_15_1742,MFTM_A_new1021,2021.2.3,60.24793229098447,
,,,,,,,,stim/Instruction_adaptive.png,conditions/adaptive.xlsx,test,-0.6,-0.6,-0.6,0.6,0.6,left,L,,,,,0,1,1,1,0,65,65,75,,,,,,,,,,,,,,,,,,,,,,,,,,,,,,,,,,,,,,,,,,,,370.8467316000001,None,left,1,1.2725593999998637,371.3481624000001,372.7162542000001,371.3481624000001,372.2152125,371.3481624000001,372.2152125,371.3481624000001,372.2152125,371.3481624000001,372.2152125,371.3481624000001,372.2152125,372.19865389999995,372.69937329999993,372.19865389999995,372.69937329999993,372.19865389999995,372.69937329999993,372.19865389999995,372.69937329999993,372.19865389999995,372.69937329999993,372.19865389999995,372.69937329999993,372.19865389999995,372.69937329999993,372.19865389999995,372.69937329999993,371.3481624000001,None,372.6828628999999,373.9339983,0.8600000000000005,373.9506469999999,None,374.70276480000007,None,,,,,,,[1.23772727],2.960000000000002,0.8181818181818182,12009,001,2024_Jun_15_1742,MFTM_A_new1021,2021.2.3,60.24793229098447,
,,,,,,,,stim/Instruction_adaptive.png,conditions/adaptive.xlsx,test,-0.6,-0.6,-0.6,0.6,0.6,left,L,,,,,0,1,1,1,0,66,66,69,,,,,,,,,,,,,,,,,,,,,,,,,,,,,,,,,,,,,,,,,,,,375.2035005,None,right,0,1.1017190000000028,375.7032203000001,377.0560777999999,375.7032203000001,376.55566139999996,375.7032203000001,376.55566139999996,375.7032203000001,376.55566139999996,375.7032203000001,376.55566139999996,375.7032203000001,376.55566139999996,376.5380057,377.03940650000004,376.5380057,377.03940650000004,376.5380057,377.03940650000004,376.5380057,377.03940650000004,376.5380057,377.03940650000004,376.5380057,377.03940650000004,376.5380057,377.03940650000004,376.5380057,377.03940650000004,375.7032203000001,None,377.03940650000004,378.2919009,0.8500000000000005,378.32631790000005,None,379.0762583999999,None,,,,,,,[1.2438806],2.8900000000000023,0.8059701492537313,12009,001,2024_Jun_15_1742,MFTM_A_new1021,2021.2.3,60.24793229098447,
,,,,,,,,stim/Instruction_adaptive.png,conditions/adaptive.xlsx,test,0.6,0.6,0.6,-0.6,-0.6,right,R,,,,,0,1,1,1,0,67,67,58,,,,,,,,,,,,,,,,,,,,,,,,,,,,,,,,,,,,,,,,,,,,379.57693059999997,None,right,1,0.9196044000000256,380.07711859999995,381.47923620000006,380.07711859999995,380.9787424000001,380.07711859999995,380.9787424000001,380.07711859999995,380.9787424000001,380.07711859999995,380.9787424000001,380.07711859999995,380.9787424000001,380.94555190000005,381.44604830000003,380.94555190000005,381.44604830000003,380.94555190000005,381.44604830000003,380.94555190000005,381.44604830000003,380.94555190000005,381.44604830000003,380.94555190000005,381.44604830000003,380.94555190000005,381.44604830000003,380.94555190000005,381.44604830000003,380.07711859999995,None,381.44604830000003,382.69822079999994,0.8900000000000006,382.7303968000001,None,383.48168899999996,None,,,,,,,[1.24926471],2.910000000000002,0.8088235294117647,12009,001,2024_Jun_15_1742,MFTM_A_new1021,2021.2.3,60.24793229098447,
,,,,,,,,stim/Instruction_adaptive.png,conditions/adaptive.xlsx,test,0.6,0.6,0.6,-0.6,-0.6,right,R,,,,,0,1,1,1,0,68,68,94,,,,,,,,,,,,,,,,,,,,,,,,,,,,,,,,,,,,,,,,,,,,383.9825633999999,None,right,1,1.2487674999999854,384.4840104,385.8697781999999,384.4840104,385.36836500000004,384.4840104,385.36836500000004,384.4840104,385.36836500000004,384.4840104,385.36836500000004,384.4840104,385.36836500000004,385.3512074,385.8530231,385.3512074,385.8530231,385.3512074,385.8530231,385.3512074,385.8530231,385.3512074,385.8530231,385.3512074,385.8530231,385.3512074,385.8530231,385.3512074,385.8530231,384.4840104,None,385.8530231,None,0.8800000000000006,387.1207858,None,387.87236340000004,None,,,,,,,[1.25463768],2.9300000000000024,0.8115942028985508,12009,001,2024_Jun_15_1742,MFTM_A_new1021,2021.2.3,60.24793229098447,
,,,,,,,,stim/Instruction_adaptive.png,conditions/adaptive.xlsx,test,0.6,0.6,0.6,-0.6,-0.6,right,R,,,,,0,1,1,1,0,69,69,26,,,,,,,,,,,,,,,,,,,,,,,,,,,,,,,,,,,,,,,,,,,,388.37346909999997,None,right,1,1.4112715999999637,388.87370699999997,390.242923,388.87370699999997,389.74198219999994,388.87370699999997,389.74198219999994,388.87370699999997,389.74198219999994,388.87370699999997,389.74198219999994,388.87370699999997,389.74198219999994,389.7254880999999,390.22656159999997,389.7254880999999,390.22656159999997,389.7254880999999,390.22656159999997,389.7254880999999,390.22656159999997,389.7254880999999,390.22656159999997,389.7254880999999,390.22656159999997,389.7254880999999,390.22656159999997,389.7254880999999,390.22656159999997,388.87370699999997,None,390.22656159999997,None,0.8600000000000005,391.49481820000005,None,392.2460079,None,,,,,,,[1.26014286],2.960000000000002,0.8142857142857143,12009,001,2024_Jun_15_1742,MFTM_A_new1021,2021.2.3,60.24793229098447,
,,,,,,,,stim/Instruction_adaptive.png,conditions/adaptive.xlsx,test,-0.6,-0.6,-0.6,0.6,0.6,left,L,,,,,0,1,1,1,0,70,70,17,,,,,,,,,,,,,,,,,,,,,,,,,,,,,,,,,,,,,,,,,,,,392.7469094999999,None,left,1,0.7026432000000113,393.2464571999999,394.5991429999999,393.2464571999999,394.0988357000001,393.2464571999999,394.0988357000001,393.2464571999999,394.0988357000001,393.2464571999999,394.0988357000001,393.2464571999999,394.0988357000001,394.0820784,394.58293750000007,394.0820784,394.58293750000007,394.0820784,394.58293750000007,394.0820784,394.58293750000007,394.0820784,394.58293750000007,394.0820784,394.58293750000007,394.0820784,394.58293750000007,394.0820784,394.58293750000007,393.2464571999999,None,394.58293750000007,395.8507422,0.8500000000000005,395.8671561000001,None,396.6192533000001,None,,,,,,,[1.2656338],2.980000000000002,0.8169014084507042,12009,001,2024_Jun_15_1742,MFTM_A_new1021,2021.2.3,60.24793229098447,
,,,,,,,,stim/Instruction_adaptive.png,conditions/adaptive.xlsx,test,0.6,0.6,0.6,-0.6,-0.6,right,R,,,,,0,1,1,1,0,71,71,14,,,,,,,,,,,,,,,,,,,,,,,,,,,,,,,,,,,,,,,,,,,,397.11973349999994,None,right,1,1.2894428999998127,397.6200323999999,398.95610310000006,397.6200323999999,398.45543870000006,397.6200323999999,398.45543870000006,397.6200323999999,398.45543870000006,397.6200323999999,398.45543870000006,397.6200323999999,398.45543870000006,398.4384803999999,398.9393414000001,398.4384803999999,398.9393414000001,398.4384803999999,398.9393414000001,398.4384803999999,398.9393414000001,398.4384803999999,398.9393414000001,398.4384803999999,398.9393414000001,398.4384803999999,398.9393414000001,398.4384803999999,398.9393414000001,397.6200323999999,None,398.9393414000001,None,0.8300000000000005,400.2235676,None,400.9755660999999,None,,,,,,,[1.27125],3.000000000000002,0.8194444444444444,12009,001,2024_Jun_15_1742,MFTM_A_new1021,2021.2.3,60.24793229098447,
,,,,,,,,stim/Instruction_adaptive.png,conditions/adaptive.xlsx,test,-0.6,-0.6,-0.6,0.6,0.6,left,L,,,,,0,1,1,1,0,72,72,73,,,,,,,,,,,,,,,,,,,,,,,,,,,,,,,,,,,,,,,,,,,,401.4767343000001,None,left,1,1.4441142999999101,401.97725790000004,403.2962121999999,401.97725790000004,402.8118921,401.97725790000004,402.8118921,401.97725790000004,402.8118921,401.97725790000004,402.8118921,401.97725790000004,402.8118921,402.77837150000005,403.27958050000007,402.77837150000005,403.27958050000007,402.77837150000005,403.27958050000007,402.77837150000005,403.27958050000007,402.77837150000005,403.27958050000007,402.77837150000005,403.27958050000007,402.77837150000005,403.27958050000007,402.77837150000005,403.27958050000007,401.97725790000004,None,403.27958050000007,404.565206,0.8200000000000005,404.59918949999997,None,405.34899900000005,None,,,,,,,[1.27684932],3.0200000000000022,0.821917808219178,12009,001,2024_Jun_15_1742,MFTM_A_new1021,2021.2.3,60.24793229098447,
,,,,,,,,stim/Instruction_adaptive.png,conditions/adaptive.xlsx,test,-0.6,-0.6,-0.6,0.6,0.6,left,L,,,,,0,1,1,1,0,73,73,9,,,,,,,,,,,,,,,,,,,,,,,,,,,,,,,,,,,,,,,,,,,,405.8496043,None,left,1,1.8323504999998477,406.3495977,407.66885479999996,406.3495977,407.1685901999999,406.3495977,407.1685901999999,406.3495977,407.1685901999999,406.3495977,407.1685901999999,406.3495977,407.1685901999999,407.1351583999999,407.6355002,407.1351583999999,407.6355002,407.1351583999999,407.6355002,407.1351583999999,407.6355002,407.1351583999999,407.6355002,407.1351583999999,407.6355002,407.1351583999999,407.6355002,407.1351583999999,407.6355002,406.3495977,None,407.6355002,408.9211169,0.8100000000000005,408.9531982000001,None,409.7057319999999,None,,,,,,,[1.28243243],3.0400000000000023,0.8243243243243243,12009,001,2024_Jun_15_1742,MFTM_A_new1021,2021.2.3,60.24793229098447,
,,,,,,,,stim/Instruction_adaptive.png,conditions/adaptive.xlsx,test,-0.6,-0.6,-0.6,0.6,0.6,left,L,,,,,0,1,1,1,0,74,74,65,,,,,,,,,,,,,,,,,,,,,,,,,,,,,,,,,,,,,,,,,,,,410.2059420999999,None,right,0,1.3219460000000254,410.7077452000001,412.00903500000004,410.7077452000001,411.50794429999996,410.7077452000001,411.50794429999996,410.7077452000001,411.50794429999996,410.7077452000001,411.50794429999996,410.7077452000001,411.50794429999996,411.49109599999997,411.99241200000006,411.49109599999997,411.99241200000006,411.49109599999997,411.99241200000006,411.49109599999997,411.99241200000006,411.49109599999997,411.99241200000006,411.49109599999997,411.99241200000006,411.49109599999997,411.99241200000006,411.49109599999997,411.99241200000006,410.7077452000001,None,411.99241200000006,413.29362960000003,0.8000000000000005,413.3097620000001,None,414.0622642000001,None,,,,,,,[1.288],2.980000000000002,0.8133333333333334,12009,001,2024_Jun_15_1742,MFTM_A_new1021,2021.2.3,60.24793229098447,
,,,,,,,,stim/Instruction_adaptive.png,conditions/adaptive.xlsx,test,-0.6,-0.6,-0.6,0.6,0.6,left,L,,,,,0,1,1,1,0,75,75,51,,,,,,,,,,,,,,,,,,,,,,,,,,,,,,,,,,,,,,,,,,,,414.56285230000003,None,right,0,1.3163230000000112,415.08170399999995,416.4154249999999,415.08170399999995,415.9146923999999,415.08170399999995,415.9146923999999,415.08170399999995,415.9146923999999,415.08170399999995,415.9146923999999,415.08170399999995,415.9146923999999,415.88095010000006,416.38264649999996,415.88095010000006,416.38264649999996,415.88095010000006,416.38264649999996,415.88095010000006,416.38264649999996,415.88095010000006,416.38264649999996,415.88095010000006,416.38264649999996,415.88095010000006,416.38264649999996,415.88095010000006,416.38264649999996,415.08170399999995,None,416.38264649999996,417.68464960000006,0.8300000000000005,417.7171432,None,418.4684731,None,,,,,,,[1.29302632],2.920000000000002,0.8026315789473685,12009,001,2024_Jun_15_1742,MFTM_A_new1021,2021.2.3,60.24793229098447,
,,,,,,,,stim/Instruction_adaptive.png,conditions/adaptive.xlsx,test,0.6,0.6,0.6,-0.6,-0.6,right,R,,,,,0,1,1,1,0,76,76,42,,,,,,,,,,,,,,,,,,,,,,,,,,,,,,,,,,,,,,,,,,,,418.9693946,None,right,1,1.5989260000001195,419.4709071,420.8557344999999,419.4709071,420.3546687999999,419.4709071,420.3546687999999,419.4709071,420.3546687999999,419.4709071,420.3546687999999,419.4709071,420.3546687999999,420.3212077999999,420.8219584000001,420.3212077999999,420.8219584000001,420.3212077999999,420.8219584000001,420.3212077999999,420.8219584000001,420.3212077999999,420.8219584000001,420.3212077999999,420.8219584000001,420.3212077999999,420.8219584000001,420.3212077999999,420.8219584000001,419.4709071,None,420.8219584000001,422.12346249999996,0.8700000000000006,422.14104599999996,None,422.8922474000001,None,,,,,,,[1.2974026],2.940000000000002,0.8051948051948052,12009,001,2024_Jun_15_1742,MFTM_A_new1021,2021.2.3,60.24793229098447,
,,,,,,,,stim/Instruction_adaptive.png,conditions/adaptive.xlsx,test,-0.6,-0.6,-0.6,0.6,0.6,left,L,,,,,0,1,1,1,0,77,77,29,,,,,,,,,,,,,,,,,,,,,,,,,,,,,,,,,,,,,,,,,,,,423.3928857000001,None,left,1,1.4329605000000356,423.8935552999999,425.26240000000007,423.8935552999999,424.7616915000001,423.8935552999999,424.7616915000001,423.8935552999999,424.7616915000001,423.8935552999999,424.7616915000001,423.8935552999999,424.7616915000001,424.7283675000001,425.229024,424.7283675000001,425.229024,424.7283675000001,425.229024,424.7283675000001,425.229024,424.7283675000001,425.229024,424.7283675000001,425.229024,424.7283675000001,425.229024,424.7283675000001,425.229024,423.8935552999999,None,425.229024,426.5308505999999,0.8600000000000005,426.5634794,None,427.31543239999996,None,,,,,,,[1.30179487],2.960000000000002,0.8076923076923077,12009,001,2024_Jun_15_1742,MFTM_A_new1021,2021.2.3,60.24793229098447,
,,,,,,,,stim/Instruction_adaptive.png,conditions/adaptive.xlsx,test,0.6,0.6,0.6,-0.6,-0.6,right,R,,,,,0,1,1,1,0,78,78,44,,,,,,,,,,,,,,,,,,,,,,,,,,,,,,,,,,,,,,,,,,,,427.8159920999999,None,right,1,1.7536746999999195,428.31645290000006,429.66905629999997,428.31645290000006,429.1682874999999,428.31645290000006,429.1682874999999,428.31645290000006,429.1682874999999,428.31645290000006,429.1682874999999,428.31645290000006,429.1682874999999,429.1514545,429.65222459999995,429.1514545,429.65222459999995,429.1514545,429.65222459999995,429.1514545,429.65222459999995,429.1514545,429.65222459999995,429.1514545,429.65222459999995,429.1514545,429.65222459999995,429.1514545,429.65222459999995,428.31645290000006,None,429.65222459999995,430.97116559999995,0.8500000000000005,430.98703750000004,None,431.73898340000005,None,,,,,,,[1.30620253],2.980000000000002,0.810126582278481,12009,001,2024_Jun_15_1742,MFTM_A_new1021,2021.2.3,60.24793229098447,
,,,,,,,,stim/Instruction_adaptive.png,conditions/adaptive.xlsx,test,0.6,0.6,0.6,-0.6,-0.6,right,R,,,,,0,1,1,1,0,79,79,36,,,,,,,,,,,,,,,,,,,,,,,,,,,,,,,,,,,,,,,,,,,,432.2394753000001,None,left,0,2.050916500000085,432.7397450000001,434.0749888,432.7397450000001,433.57476640000004,432.7397450000001,433.57476640000004,432.7397450000001,433.57476640000004,432.7397450000001,433.57476640000004,432.7397450000001,433.57476640000004,433.5580546000001,434.0584126000001,433.5580546000001,434.0584126000001,433.5580546000001,434.0584126000001,433.5580546000001,434.0584126000001,433.5580546000001,434.0584126000001,433.5580546000001,434.0584126000001,433.5580546000001,434.0584126000001,433.5580546000001,434.0584126000001,432.7397450000001,None,434.0584126000001,435.37769359999993,0.8300000000000005,435.411196,None,436.16196719999994,None,,,,,,,[1.31075],2.920000000000002,0.8,12009,001,2024_Jun_15_1742,MFTM_A_new1021,2021.2.3,60.24793229098447,
,,,,,,,,stim/Instruction_adaptive.png,conditions/adaptive.xlsx,test,-0.6,-0.6,-0.6,0.6,0.6,left,L,,,,,0,1,1,1,0,80,80,43,,,,,,,,,,,,,,,,,,,,,,,,,,,,,,,,,,,,,,,,,,,,436.6621428000001,None,left,1,1.2268404999999802,437.16335030000005,438.53239269999995,437.16335030000005,438.0483878,437.16335030000005,438.0483878,437.16335030000005,438.0483878,437.16335030000005,438.0483878,437.16335030000005,438.0483878,438.01526620000004,438.51586829999997,438.01526620000004,438.51586829999997,438.01526620000004,438.51586829999997,438.01526620000004,438.51586829999997,438.01526620000004,438.51586829999997,438.01526620000004,438.51586829999997,438.01526620000004,438.51586829999997,438.01526620000004,438.51586829999997,437.16335030000005,None,438.51586829999997,439.83427370000004,0.8700000000000006,439.86752939999997,None,440.6189211000001,None,,,,,,,[1.31469136],2.940000000000002,0.8024691358024691,12009,001,2024_Jun_15_1742,MFTM_A_new1021,2021.2.3,60.24793229098447,
,,,,,,,,stim/Instruction_adaptive.png,conditions/adaptive.xlsx,test,-0.6,-0.6,-0.6,0.6,0.6,left,L,,,,,0,1,1,1,0,81,81,23,,,,,,,,,,,,,,,,,,,,,,,,,,,,,,,,,,,,,,,,,,,,441.1188159000001,None,left,1,1.282752900000105,441.62032320000003,442.988738,441.62032320000003,442.4883872999999,441.62032320000003,442.4883872999999,441.62032320000003,442.4883872999999,441.62032320000003,442.4883872999999,441.62032320000003,442.4883872999999,442.4542289000001,442.95554730000003,442.4542289000001,442.95554730000003,442.4542289000001,442.95554730000003,442.4542289000001,442.95554730000003,442.4542289000001,442.95554730000003,442.4542289000001,442.95554730000003,442.4542289000001,442.95554730000003,442.4542289000001,442.95554730000003,441.62032320000003,None,442.95554730000003,444.27441999999996,0.8600000000000005,444.30760869999995,None,445.05889720000005,None,,,,,,,[1.31865854],2.960000000000002,0.8048780487804879,12009,001,2024_Jun_15_1742,MFTM_A_new1021,2021.2.3,60.24793229098447,
,,,,,,,,stim/Instruction_adaptive.png,conditions/adaptive.xlsx,test,0.6,0.6,0.6,-0.6,-0.6,right,R,,,,,0,1,1,1,0,82,82,98,,,,,,,,,,,,,,,,,,,,,,,,,,,,,,,,,,,,,,,,,,,,445.5595962,None,right,1,1.9942263000000366,446.0602449999999,447.41226570000003,446.0602449999999,446.91105530000004,446.0602449999999,446.91105530000004,446.0602449999999,446.91105530000004,446.0602449999999,446.91105530000004,446.0602449999999,446.91105530000004,446.8946152000001,447.3957402000001,446.8946152000001,447.3957402000001,446.8946152000001,447.3957402000001,446.8946152000001,447.3957402000001,446.8946152000001,447.3957402000001,446.8946152000001,447.3957402000001,446.8946152000001,447.3957402000001,446.8946152000001,447.3957402000001,446.0602449999999,None,447.3957402000001,448.7310496,0.8500000000000005,448.74660829999993,None,449.4990461,None,,,,,,,[1.3226506],2.980000000000002,0.8072289156626506,12009,001,2024_Jun_15_1742,MFTM_A_new1021,2021.2.3,60.24793229098447,
,,,,,,,,stim/Instruction_adaptive.png,conditions/adaptive.xlsx,test,0.6,0.6,0.6,-0.6,-0.6,right,R,,,,,0,1,1,1,0,83,83,62,,,,,,,,,,,,,,,,,,,,,,,,,,,,,,,,,,,,,,,,,,,,449.99967749999996,None,right,1,1.378754299999855,450.4999279000001,451.83575399999995,450.4999279000001,451.3355927,450.4999279000001,451.3355927,450.4999279000001,451.3355927,450.4999279000001,451.3355927,450.4999279000001,451.3355927,451.31830790000004,451.81899139999996,451.31830790000004,451.81899139999996,451.31830790000004,451.81899139999996,451.31830790000004,451.81899139999996,451.31830790000004,451.81899139999996,451.31830790000004,451.81899139999996,451.31830790000004,451.81899139999996,451.31830790000004,451.81899139999996,450.4999279000001,None,451.81899139999996,453.15442729999995,0.8300000000000005,453.18913309999994,None,453.9386029,None,,,,,,,[1.32678571],3.000000000000002,0.8095238095238095,12009,001,2024_Jun_15_1742,MFTM_A_new1021,2021.2.3,60.24793229098447,
,,,,,,,,stim/Instruction_adaptive.png,conditions/adaptive.xlsx,test,-0.6,-0.6,-0.6,0.6,0.6,left,L,,,,,0,1,1,1,0,84,84,37,,,,,,,,,,,,,,,,,,,,,,,,,,,,,,,,,,,,,,,,,,,,454.4405637,None,left,1,0.8264009000001806,454.9404437999999,456.27564559999996,454.9404437999999,455.7748398000001,454.9404437999999,455.7748398000001,454.9404437999999,455.7748398000001,454.9404437999999,455.7748398000001,454.9404437999999,455.7748398000001,455.7415585000001,456.2425513999999,455.7415585000001,456.2425513999999,455.7415585000001,456.2425513999999,455.7415585000001,456.2425513999999,455.7415585000001,456.2425513999999,455.7415585000001,456.2425513999999,455.7415585000001,456.2425513999999,455.7415585000001,456.2425513999999,454.9404437999999,None,456.2425513999999,457.5776473000001,0.8200000000000005,457.5934322999999,None,458.3457965,None,,,,,,,[1.33094118],3.0200000000000022,0.8117647058823529,12009,001,2024_Jun_15_1742,MFTM_A_new1021,2021.2.3,60.24793229098447,
,,,,,,,,stim/Instruction_adaptive.png,conditions/adaptive.xlsx,test,-0.6,-0.6,-0.6,0.6,0.6,left,L,,,,,0,1,1,1,0,85,85,79,,,,,,,,,,,,,,,,,,,,,,,,,,,,,,,,,,,,,,,,,,,,458.84597099999996,None,right,0,1.2923278999999184,459.3466215000001,460.6654738,459.3466215000001,460.1640178,459.3466215000001,460.1640178,459.3466215000001,460.1640178,459.3466215000001,460.1640178,459.3466215000001,460.1640178,460.1483284000001,460.6490232000001,460.1483284000001,460.6490232000001,460.1483284000001,460.6490232000001,460.1483284000001,460.6490232000001,460.1483284000001,460.6490232000001,460.1483284000001,460.6490232000001,460.1483284000001,460.6490232000001,460.1483284000001,460.6490232000001,459.3466215000001,None,460.63224919999993,461.9667022000001,0.8100000000000005,462.0183082000001,None,462.76907929999993,None,,,,,,,[1.33511628],2.9700000000000024,0.8023255813953488,12009,001,2024_Jun_15_1742,MFTM_A_new1021,2021.2.3,60.24793229098447,
,,,,,,,,stim/Instruction_adaptive.png,conditions/adaptive.xlsx,test,0.6,0.6,0.6,-0.6,-0.6,right,R,,,,,0,1,1,1,0,86,86,86,,,,,,,,,,,,,,,,,,,,,,,,,,,,,,,,,,,,,,,,,,,,463.26973640000006,None,right,1,1.1567927999999483,463.7703305,465.1220909000001,463.7703305,464.6210228,463.7703305,464.6210228,463.7703305,464.6210228,463.7703305,464.6210228,463.7703305,464.6210228,464.5872174000001,465.0890259,464.5872174000001,465.0890259,464.5872174000001,465.0890259,464.5872174000001,465.0890259,464.5872174000001,465.0890259,464.5872174000001,465.0890259,464.5872174000001,465.0890259,464.5872174000001,465.0890259,463.7703305,None,465.0890259,466.44087220000006,0.8400000000000005,466.4565136000001,None,467.20856559999993,None,,,,,,,[1.33885057],2.980000000000002,0.8045977011494253,12009,001,2024_Jun_15_1742,MFTM_A_new1021,2021.2.3,60.24793229098447,
,,,,,,,,stim/Instruction_adaptive.png,conditions/adaptive.xlsx,test,0.6,0.6,0.6,-0.6,-0.6,right,R,,,,,0,1,1,1,0,87,87,4,,,,,,,,,,,,,,,,,,,,,,,,,,,,,,,,,,,,,,,,,,,,467.70982890000005,None,right,1,1.654369000000088,468.20958429999996,469.5459303,468.20958429999996,469.044484,468.20958429999996,469.044484,468.20958429999996,469.044484,468.20958429999996,469.044484,468.20958429999996,469.044484,469.0274334999999,469.5292595000001,469.0274334999999,469.5292595000001,469.0274334999999,469.5292595000001,469.0274334999999,469.5292595000001,469.0274334999999,469.5292595000001,469.0274334999999,469.5292595000001,469.0274334999999,469.5292595000001,469.0274334999999,469.5292595000001,468.20958429999996,None,469.5292595000001,None,0.8300000000000005,470.8983516999999,None,471.6485416999999,None,,,,,,,[1.34261364],3.000000000000002,0.8068181818181818,12009,001,2024_Jun_15_1742,MFTM_A_new1021,2021.2.3,60.24793229098447,
,,,,,,,,stim/Instruction_adaptive.png,conditions/adaptive.xlsx,test,-0.6,-0.6,-0.6,0.6,0.6,left,L,,,,,0,1,1,1,0,88,88,7,,,,,,,,,,,,,,,,,,,,,,,,,,,,,,,,,,,,,,,,,,,,472.1494766999999,None,left,1,1.2608976000001348,472.65031550000003,473.98622739999996,472.65031550000003,473.48485200000005,472.65031550000003,473.48485200000005,472.65031550000003,473.48485200000005,472.65031550000003,473.48485200000005,472.65031550000003,473.48485200000005,473.45170170000006,473.9525367000001,473.45170170000006,473.9525367000001,473.45170170000006,473.9525367000001,473.45170170000006,473.9525367000001,473.45170170000006,473.9525367000001,473.45170170000006,473.9525367000001,473.45170170000006,473.9525367000001,473.45170170000006,473.9525367000001,472.65031550000003,None,473.9525367000001,475.3043287999999,0.8200000000000005,475.3214766000001,None,476.07260840000004,None,,,,,,,[1.34640449],3.0200000000000022,0.8089887640449438,12009,001,2024_Jun_15_1742,MFTM_A_new1021,2021.2.3,60.24793229098447,
,,,,,,,,stim/Instruction_adaptive.png,conditions/adaptive.xlsx,test,0.6,0.6,0.6,-0.6,-0.6,right,R,,,,,0,1,1,1,0,89,89,90,,,,,,,,,,,,,,,,,,,,,,,,,,,,,,,,,,,,,,,,,,,,476.5731805999999,None,right,1,0.966304799999989,477.0736798999999,478.39259459999994,477.0736798999999,477.8920843000001,477.0736798999999,477.8920843000001,477.0736798999999,477.8920843000001,477.0736798999999,477.8920843000001,477.0736798999999,477.8920843000001,477.8747819,478.37563279999995,477.8747819,478.37563279999995,477.8747819,478.37563279999995,477.8747819,478.37563279999995,477.8747819,478.37563279999995,477.8747819,478.37563279999995,477.8747819,478.37563279999995,477.8747819,478.37563279999995,477.0736798999999,None,478.37563279999995,479.72814960000005,0.8100000000000005,479.7612529999999,None,480.51251720000005,None,,,,,,,[1.35022222],3.0400000000000023,0.8111111111111111,12009,001,2024_Jun_15_1742,MFTM_A_new1021,2021.2.3,60.24793229098447,
,,,,,,,,stim/Instruction_adaptive.png,conditions/adaptive.xlsx,test,-0.6,-0.6,-0.6,0.6,0.6,left,L,,,,,0,1,1,1,0,90,90,95,,,,,,,,,,,,,,,,,,,,,,,,,,,,,,,,,,,,,,,,,,,,481.0129093999999,None,left,1,0.7187211000000389,481.51362990000007,482.815122,481.51362990000007,482.3142117,481.51362990000007,482.3142117,481.51362990000007,482.3142117,481.51362990000007,482.3142117,481.51362990000007,482.3142117,482.29842830000007,482.7993484000001,482.29842830000007,482.7993484000001,482.29842830000007,482.7993484000001,482.29842830000007,482.7993484000001,482.29842830000007,482.7993484000001,482.29842830000007,482.7993484000001,482.29842830000007,482.7993484000001,482.29842830000007,482.7993484000001,481.51362990000007,None,482.7993484000001,None,0.8000000000000005,484.16665179999995,None,484.9191843000001,None,,,,,,,[1.35406593],3.0600000000000023,0.8131868131868132,12009,001,2024_Jun_15_1742,MFTM_A_new1021,2021.2.3,60.24793229098447,
,,,,,,,,stim/Instruction_adaptive.png,conditions/adaptive.xlsx,test,-0.6,-0.6,-0.6,0.6,0.6,left,L,,,,,0,1,1,1,0,91,91,49,,,,,,,,,,,,,,,,,,,,,,,,,,,,,,,,,,,,,,,,,,,,485.41971880000006,None,right,0,1.327779400000054,485.91985909999994,487.2224458999999,485.91985909999994,486.72175960000004,485.91985909999994,486.72175960000004,485.91985909999994,486.72175960000004,485.91985909999994,486.72175960000004,485.91985909999994,486.72175960000004,486.6880839999999,487.1890106999999,486.6880839999999,487.1890106999999,486.6880839999999,487.1890106999999,486.6880839999999,487.1890106999999,486.6880839999999,487.1890106999999,486.6880839999999,487.1890106999999,486.6880839999999,487.1890106999999,486.6880839999999,487.1890106999999,485.91985909999994,None,487.1890106999999,488.5573400999999,0.7900000000000005,488.5732432,None,489.3258057999999,None,,,,,,,[1.35793478],3.0100000000000025,0.8043478260869565,12009,001,2024_Jun_15_1742,MFTM_A_new1021,2021.2.3,60.24793229098447,
,,,,,,,,stim/Instruction_adaptive.png,conditions/adaptive.xlsx,test,-0.6,-0.6,-0.6,0.6,0.6,left,L,,,,,0,1,1,1,0,92,92,33,,,,,,,,,,,,,,,,,,,,,,,,,,,,,,,,,,,,,,,,,,,,489.82641379999995,None,left,1,1.2652295000000322,490.3264974000001,491.6456487999999,490.3264974000001,491.16154200000005,490.3264974000001,491.16154200000005,490.3264974000001,491.16154200000005,490.3264974000001,491.16154200000005,490.3264974000001,491.16154200000005,491.1283542000001,491.6290225,491.1283542000001,491.6290225,491.1283542000001,491.6290225,491.1283542000001,491.6290225,491.1283542000001,491.6290225,491.1283542000001,491.6290225,491.1283542000001,491.6290225,491.1283542000001,491.6290225,490.3264974000001,None,491.6290225,492.9978816,0.8200000000000005,493.0132805999999,None,493.76573559999997,None,,,,,,,[1.36139785],3.0200000000000022,0.8064516129032258,12009,001,2024_Jun_15_1742,MFTM_A_new1021,2021.2.3,60.24793229098447,
,,,,,,,,stim/Instruction_adaptive.png,conditions/adaptive.xlsx,test,-0.6,-0.6,-0.6,0.6,0.6,left,L,,,,,0,1,1,1,0,93,93,99,,,,,,,,,,,,,,,,,,,,,,,,,,,,,,,,,,,,,,,,,,,,494.26649010000006,None,right,0,1.3614325000000917,494.76654039999994,496.0852156000001,494.76654039999994,495.5848903000001,494.76654039999994,495.5848903000001,494.76654039999994,495.5848903000001,494.76654039999994,495.5848903000001,494.76654039999994,495.5848903000001,495.5683931000001,496.06841069999996,495.5683931000001,496.06841069999996,495.5683931000001,496.06841069999996,495.5683931000001,496.06841069999996,495.5683931000001,496.06841069999996,495.5683931000001,496.06841069999996,495.5683931000001,496.06841069999996,495.5683931000001,496.06841069999996,494.76654039999994,None,496.06841069999996,497.4376835999999,0.8100000000000005,497.4709772000001,None,498.2225552,None,,,,,,,[1.36489362],2.9700000000000024,0.7978723404255319,12009,001,2024_Jun_15_1742,MFTM_A_new1021,2021.2.3,60.24793229098447,
,,,,,,,,stim/Instruction_adaptive.png,conditions/adaptive.xlsx,test,-0.6,-0.6,-0.6,0.6,0.6,left,L,,,,,0,1,1,1,0,94,94,13,,,,,,,,,,,,,,,,,,,,,,,,,,,,,,,,,,,,,,,,,,,,498.7226619999999,None,left,1,1.3355947999998534,499.2244413000001,500.57597179999993,499.2244413000001,500.0754701000001,499.2244413000001,500.0754701000001,499.2244413000001,500.0754701000001,499.2244413000001,500.0754701000001,499.2244413000001,500.0754701000001,500.0417758000001,500.5423776,500.0417758000001,500.5423776,500.0417758000001,500.5423776,500.0417758000001,500.5423776,500.0417758000001,500.5423776,500.0417758000001,500.5423776,500.0417758000001,500.5423776,500.0417758000001,500.5423776,499.2244413000001,None,500.5423776,501.9112800999999,0.8400000000000005,501.9618906999999,None,502.71264700000006,None,,,,,,,[1.368],2.990000000000002,0.8,12009,001,2024_Jun_15_1742,MFTM_A_new1021,2021.2.3,60.24793229098447,
,,,,,,,,stim/Instruction_adaptive.png,conditions/adaptive.xlsx,test,-0.6,-0.6,-0.6,0.6,0.6,left,L,,,,,0,1,1,1,0,95,95,21,,,,,,,,,,,,,,,,,,,,,,,,,,,,,,,,,,,,,,,,,,,,503.2131237000001,None,left,1,1.3592262999998184,503.7140715999999,505.0494043000001,503.7140715999999,504.54890610000007,503.7140715999999,504.54890610000007,503.7140715999999,504.54890610000007,503.7140715999999,504.54890610000007,503.7140715999999,504.54890610000007,504.5322464999999,505.0326662,504.5322464999999,505.0326662,504.5322464999999,505.0326662,504.5322464999999,505.0326662,504.5322464999999,505.0326662,504.5322464999999,505.0326662,504.5322464999999,505.0326662,504.5322464999999,505.0326662,503.7140715999999,None,505.0326662,None,0.8300000000000005,506.4169686,None,507.1689498999999,None,,,,,,,[1.37114583],3.0100000000000025,0.8020833333333334,12009,001,2024_Jun_15_1742,MFTM_A_new1021,2021.2.3,60.24793229098447,
,,,,,,,,stim/Instruction_adaptive.png,conditions/adaptive.xlsx,test,0.6,0.6,0.6,-0.6,-0.6,right,R,,,,,0,1,1,1,0,96,96,20,,,,,,,,,,,,,,,,,,,,,,,,,,,,,,,,,,,,,,,,,,,,507.67000200000007,None,right,1,1.661498599999959,508.1707285,509.5062634000001,508.1707285,509.0048899000001,508.1707285,509.0048899000001,508.1707285,509.0048899000001,508.1707285,509.0048899000001,508.1707285,509.0048899000001,508.9723498999999,509.47280509999996,508.9723498999999,509.47280509999996,508.9723498999999,509.47280509999996,508.9723498999999,509.47280509999996,508.9723498999999,509.47280509999996,508.9723498999999,509.47280509999996,508.9723498999999,509.47280509999996,508.9723498999999,509.47280509999996,508.1707285,None,509.47280509999996,510.85774319999996,0.8200000000000005,510.87374550000004,None,511.62573569999995,None,,,,,,,[1.3743299],3.0200000000000022,0.8041237113402062,12009,001,2024_Jun_15_1742,MFTM_A_new1021,2021.2.3,60.24793229098447,
