arrwidth1,arrwidth2,arrwidth3,arrwidth4,arrwidth5,keyb,type,orientation,instruction_image,block_filename,block_type,arrow11,arrow22,arrow33,arrow44,arrow55,keyb_3,orientation3,trials.thisRepN,trials.thisTrialN,trials.thisN,trials.thisIndex,trials_3.thisRepN,trials_3.thisTrialN,trials_3.thisN,trials_3.thisIndex,trials_2.thisRepN,trials_2.thisTrialN,trials_2.thisN,trials_2.thisIndex,welcome.started,welcome.stopped,key_resp.keys,key_resp.rt,key_resp.started,key_resp.stopped,instruction_example.started,instruction_example.stopped,key_resp_3.keys,key_resp_3.rt,key_resp_3.started,key_resp_3.stopped,instruction_task.started,instruction_task.stopped,key_resp_2.keys,key_resp_2.rt,key_resp_2.started,key_resp_2.stopped,text_2.started,text_2.stopped,A1.started,A1.stopped,A2.started,A2.stopped,A3.started,A3.stopped,A4.started,A4.stopped,A5.started,A5.stopped,key_resp_4.keys,key_resp_4.corr,key_resp_4.rt,key_resp_4.started,key_resp_4.stopped,fb.started,fb.stopped,instruction_block.started,instruction_block.stopped,key_resp_8.keys,key_resp_8.rt,key_resp_8.started,key_resp_8.stopped,text_8.started,text_8.stopped,key_resp_9.keys,key_resp_9.corr,key_resp_9.rt,text_5.started,text_5.stopped,A11_3.started,A11_3.stopped,A22_2.started,A22_2.stopped,A33_2.started,A33_2.stopped,A44_2.started,A44_2.stopped,A55_2.started,A55_2.stopped,M1_3.started,M1_3.stopped,M2_2.started,M2_2.stopped,M3_2.started,M3_2.stopped,M4_2.started,M4_2.stopped,M5_2.started,M5_2.stopped,M6_2.started,M6_2.stopped,M7_2.started,M7_2.stopped,M8_2.started,M8_2.stopped,key_resp_9.started,key_resp_9.stopped,fixation.started,fixation.stopped,ET,fb_3.started,fb_3.stopped,text_9.started,text_9.stopped,fb_4.started,fb_4.stopped,text_7.started,text_7.stopped,endtext.started,endtext.stopped,fixation_ITI,CCC,Acc,participant,session,date,expName,psychopyVersion,frameRate,
,,,,,,,,,,,,,,,,,,,,,,,,,,,,,,12.75897540000733,None,right,5.495700599974953,12.75897540000733,None,,,,,,,,,,,,,,,,,,,,,,,,,,,,,,,,,,,,,,,,,,,,,,,,,,,,,,,,,,,,,,,,,,,,,,,,,,,,,,,,,,,,,,,,,12004,001,2024_Jun_13_1329,MFTM_A_new1021,2021.2.3,60.02681996376307,
,,,,,,,,,,,,,,,,,,,,,,,,,,,,,,,,,,,,18.2849110000534,None,return,8.2181173999561,18.2849110000534,None,,,,,,,,,,,,,,,,,,,,,,,,,,,,,,,,,,,,,,,,,,,,,,,,,,,,,,,,,,,,,,,,,,,,,,,,,,,,,,,,,,,12004,001,2024_Jun_13_1329,MFTM_A_new1021,2021.2.3,60.02681996376307,
,,,,,,,,,,,,,,,,,,,,,,,,,,,,,,,,,,,,,,,,,,26.529657200095244,None,return,10.861326499958523,26.529657200095244,None,,,,,,,,,,,,,,,,,,,,,,,,,,,,,,,,,,,,,,,,,,,,,,,,,,,,,,,,,,,,,,,,,,,,,,,,,,,,,12004,001,2024_Jun_13_1329,MFTM_A_new1021,2021.2.3,60.02681996376307,
0.6,0.6,0.6,-0.6,-0.6,right,3:2,R,,,,,,,,,,,0,0,0,0,,,,,,,,,,,,,,,,,,,,,,,,,,,37.4307607000228,None,37.4307607000228,None,37.4307607000228,None,37.4307607000228,None,37.4307607000228,None,37.4307607000228,None,right,1,2.720969400019385,37.4307607000228,None,40.18375920003746,None,,,,,,,,,,,,,,,,,,,,,,,,,,,,,,,,,,,,,,,,,,,,,,,,,,,,,,,,,,12004,001,2024_Jun_13_1329,MFTM_A_new1021,2021.2.3,60.02681996376307,
-0.6,-0.6,-0.6,0.6,0.6,left,3:2,L,,,,,,,,,,,0,1,1,1,,,,,,,,,,,,,,,,,,,,,,,,,,,40.93449130002409,None,40.93449130002409,None,40.93449130002409,None,40.93449130002409,None,40.93449130002409,None,40.93449130002409,None,left,1,1.3205675999633968,40.93449130002409,None,42.270284500089474,None,,,,,,,,,,,,,,,,,,,,,,,,,,,,,,,,,,,,,,,,,,,,,,,,,,,,,,,,,,12004,001,2024_Jun_13_1329,MFTM_A_new1021,2021.2.3,60.02681996376307,
0.6,0.6,0.6,-0.6,-0.6,right,3:2,R,,,,,,,,,,,1,0,2,0,,,,,,,,,,,,,,,,,,,,,,,,,,,43.02118700009305,None,43.02118700009305,None,43.02118700009305,None,43.02118700009305,None,43.02118700009305,None,43.02118700009305,None,left,0,1.6980483999941498,43.02118700009305,None,44.74041450000368,None,,,,,,,,,,,,,,,,,,,,,,,,,,,,,,,,,,,,,,,,,,,,,,,,,,,,,,,,,,12004,001,2024_Jun_13_1329,MFTM_A_new1021,2021.2.3,60.02681996376307,
-0.6,-0.6,-0.6,0.6,0.6,left,3:2,L,,,,,,,,,,,1,1,3,1,,,,,,,,,,,,,,,,,,,,,,,,,,,45.491673000040464,None,45.491673000040464,None,45.491673000040464,None,45.491673000040464,None,45.491673000040464,None,45.491673000040464,None,left,1,2.555490000057034,45.491673000040464,None,48.078802500036545,None,,,,,,,,,,,,,,,,,,,,,,,,,,,,,,,,,,,,,,,,,,,,,,,,,,,,,,,,,,12004,001,2024_Jun_13_1329,MFTM_A_new1021,2021.2.3,60.02681996376307,
,,,,,,,,stim/Instruction_mask.png,conditions/adaptive.xlsx,practice,-0.6,-0.6,-0.6,0.6,0.6,left,L,,,,,0,0,0,0,0,0,0,97,,,,,,,,,,,,,,,,,,,,,,,,,,,,,,,,,,,,,,49.1136577000143,None,return,26.902590399957262,49.1136577000143,None,76.12110820005182,None,right,0,2.4848851000424474,76.55520559998695,None,76.55520559998695,79.55963790009264,76.55520559998695,79.55963790009264,76.55520559998695,79.55963790009264,76.55520559998695,79.55963790009264,76.55520559998695,79.55963790009264,79.54289060004521,80.04437220003456,79.54289060004521,80.04437220003456,79.54289060004521,80.04437220003456,79.54289060004521,80.04437220003456,79.54289060004521,80.04437220003456,79.54289060004521,80.04437220003456,79.54289060004521,80.04437220003456,79.54289060004521,80.04437220003456,76.55520559998695,None,80.04437220003456,80.04437220003456,3,80.06040890002623,None,80.81175560003612,None,,,,,,,,,,12004,001,2024_Jun_13_1329,MFTM_A_new1021,2021.2.3,60.02681996376307,
,,,,,,,,stim/Instruction_mask.png,conditions/adaptive.xlsx,practice,-0.6,-0.6,-0.6,0.6,0.6,left,L,,,,,0,0,0,0,0,1,1,21,,,,,,,,,,,,,,,,,,,,,,,,,,,,,,,,,,,,,,,,,,,,81.31325660005677,None,left,1,1.6037865000544116,81.81314540002495,83.81715340004303,81.81314540002495,83.31537000008393,81.81314540002495,83.31537000008393,81.81314540002495,83.31537000008393,81.81314540002495,83.31537000008393,81.81314540002495,83.31537000008393,83.29970560001675,83.80052809999324,83.29970560001675,83.80052809999324,83.29970560001675,83.80052809999324,83.29970560001675,83.80052809999324,83.29970560001675,83.80052809999324,83.29970560001675,83.80052809999324,83.29970560001675,83.80052809999324,83.29970560001675,83.80052809999324,81.81314540002495,None,83.80052809999324,85.3022433000151,1.5,85.31808610004373,None,86.06951930001378,None,,,,,,,,,,12004,001,2024_Jun_13_1329,MFTM_A_new1021,2021.2.3,60.02681996376307,
,,,,,,,,stim/Instruction_mask.png,conditions/adaptive.xlsx,practice,-0.6,-0.6,-0.6,0.6,0.6,left,L,,,,,0,0,0,0,0,2,2,99,,,,,,,,,,,,,,,,,,,,,,,,,,,,,,,,,,,,,,,,,,,,86.57072100008372,None,right,0,1.3370808999752626,87.07109510002192,88.37336269998923,87.07109510002192,87.87216999998782,87.07109510002192,87.87216999998782,87.07109510002192,87.87216999998782,87.07109510002192,87.87216999998782,87.07109510002192,87.87216999998782,87.85611020005308,88.3563275000779,87.85611020005308,88.3563275000779,87.85611020005308,88.3563275000779,87.85611020005308,88.3563275000779,87.85611020005308,88.3563275000779,87.85611020005308,88.3563275000779,87.85611020005308,88.3563275000779,87.85611020005308,88.3563275000779,87.07109510002192,None,88.3563275000779,90.55982379999477,0.8,90.57619480008725,None,91.328198500094,None,,,,,,,,,,12004,001,2024_Jun_13_1329,MFTM_A_new1021,2021.2.3,60.02681996376307,
,,,,,,,,stim/Instruction_mask.png,conditions/adaptive.xlsx,practice,-0.6,-0.6,-0.6,0.6,0.6,left,L,,,,,0,0,0,0,0,3,3,75,,,,,,,,,,,,,,,,,,,,,,,,,,,,,,,,,,,,,,,,,,,,91.82841720001306,None,left,1,0.6636723999399692,92.32919279998168,93.08011810004245,92.32919279998168,92.57954120007344,92.32919279998168,92.57954120007344,92.32919279998168,92.57954120007344,92.32919279998168,92.57954120007344,92.32919279998168,92.57954120007344,92.56260760000441,93.06377120001707,92.56260760000441,93.06377120001707,92.56260760000441,93.06377120001707,92.56260760000441,93.06377120001707,92.56260760000441,93.06377120001707,92.56260760000441,93.06377120001707,92.56260760000441,93.06377120001707,92.56260760000441,93.06377120001707,92.32919279998168,None,93.06377120001707,95.81745360000059,3,95.83433350000996,None,96.58743359998334,None,,,,,,,,,,12004,001,2024_Jun_13_1329,MFTM_A_new1021,2021.2.3,60.02681996376307,
,,,,,,,,stim/Instruction_mask.png,conditions/adaptive.xlsx,practice,,,,,,,,,,,,0,0,0,0,,,,,,,,,,,,,,,,,,,,,,,,,,,,,,,,,,,,,,,,,,,,,,,,,,,,,,,,,,,,,,,,,,,,,,,,,,,,,,,,,,,,,,,,,,97.13842109998222,98.13892440008931,98.12102970003616,98.12102970003616,98.12102970003616,None,,,,12004,001,2024_Jun_13_1329,MFTM_A_new1021,2021.2.3,60.02681996376307,
,,,,,,,,stim/Instruction_adaptive.png,conditions/adaptive.xlsx,test,0.6,0.6,0.6,-0.6,-0.6,right,R,,,,,0,1,1,1,0,0,0,30,,,,,,,,,,,,,,,,,,,,,,,,,,,,,,,,,,,,,,101.32610649999697,None,space,33.179861700045876,101.32610649999697,None,134.54242270009127,None,right,1,2.021623000036925,135.0443497999804,None,135.0443497999804,138.04781680007,135.0443497999804,138.04781680007,135.0443497999804,138.04781680007,135.0443497999804,138.04781680007,135.0443497999804,138.04781680007,138.03250520001166,138.5327669000253,138.03250520001166,138.5327669000253,138.03250520001166,138.5327669000253,138.03250520001166,138.5327669000253,138.03250520001166,138.5327669000253,138.03250520001166,138.5327669000253,138.03250520001166,138.5327669000253,138.03250520001166,138.5327669000253,135.0443497999804,None,138.5327669000253,138.5327669000253,3,138.54998140002135,None,139.30114800005686,None,,,,,,,0,6.000000000000005,1.0,12004,001,2024_Jun_13_1329,MFTM_A_new1021,2021.2.3,60.02681996376307,
,,,,,,,,stim/Instruction_adaptive.png,conditions/adaptive.xlsx,test,0.6,0.6,0.6,-0.6,-0.6,right,R,,,,,0,1,1,1,0,1,1,18,,,,,,,,,,,,,,,,,,,,,,,,,,,,,,,,,,,,,,,,,,,,139.8014082000591,None,left,0,1.1809690999798477,140.30132040008903,141.05326379998587,140.30132040008903,140.5518056000583,140.30132040008903,140.5518056000583,140.30132040008903,140.5518056000583,140.30132040008903,140.5518056000583,140.30132040008903,140.5518056000583,140.53507330000866,141.03684299997985,140.53507330000866,141.03684299997985,140.53507330000866,141.03684299997985,140.53507330000866,141.03684299997985,140.53507330000866,141.03684299997985,140.53507330000866,141.03684299997985,140.53507330000866,141.03684299997985,140.53507330000866,141.03684299997985,140.30132040008903,None,141.03684299997985,141.92033550003543,0.25,141.93687380000483,None,142.68829840002581,None,,,,,,,[0.875],2.570000000000002,0.5,12004,001,2024_Jun_13_1329,MFTM_A_new1021,2021.2.3,60.02681996376307,
,,,,,,,,stim/Instruction_adaptive.png,conditions/adaptive.xlsx,test,-0.6,-0.6,-0.6,0.6,0.6,left,L,,,,,0,1,1,1,0,2,2,15,,,,,,,,,,,,,,,,,,,,,,,,,,,,,,,,,,,,,,,,,,,,143.18934360006824,None,left,1,0.8794510000152513,143.6904341999907,145.30892730003688,143.6904341999907,144.8086001999909,143.6904341999907,144.8086001999909,143.6904341999907,144.8086001999909,143.6904341999907,144.8086001999909,143.6904341999907,144.8086001999909,144.79218420002144,145.29225280007813,144.79218420002144,145.29225280007813,144.79218420002144,145.29225280007813,144.79218420002144,145.29225280007813,144.79218420002144,145.29225280007813,144.79218420002144,145.29225280007813,144.79218420002144,145.29225280007813,144.79218420002144,145.29225280007813,143.6904341999907,None,145.2754002000438,146.32717709999997,1.1100000000000008,146.36036430008244,None,147.11227630008943,None,,,,,,,[1.04666667],3.3800000000000026,0.6666666666666666,12004,001,2024_Jun_13_1329,MFTM_A_new1021,2021.2.3,60.02681996376307,
,,,,,,,,stim/Instruction_adaptive.png,conditions/adaptive.xlsx,test,-0.6,-0.6,-0.6,0.6,0.6,left,L,,,,,0,1,1,1,0,3,3,93,,,,,,,,,,,,,,,,,,,,,,,,,,,,,,,,,,,,,,,,,,,,147.61278209998272,None,left,1,0.801810200093314,148.11304379999638,149.24878460005857,148.11304379999638,148.74762590008322,148.11304379999638,148.74762590008322,148.11304379999638,148.74762590008322,148.11304379999638,148.74762590008322,148.11304379999638,148.74762590008322,148.73073409998324,149.23228019999806,148.73073409998324,149.23228019999806,148.73073409998324,149.23228019999806,148.73073409998324,149.23228019999806,148.73073409998324,149.23228019999806,148.73073409998324,149.23228019999806,148.73073409998324,149.23228019999806,148.73073409998324,149.23228019999806,148.11304379999638,None,149.23228019999806,150.48437339998782,0.6300000000000003,150.50074240006506,None,151.25110330001917,None,,,,,,,[1.2525],3.940000000000003,0.75,12004,001,2024_Jun_13_1329,MFTM_A_new1021,2021.2.3,60.02681996376307,
,,,,,,,,stim/Instruction_adaptive.png,conditions/adaptive.xlsx,test,0.6,0.6,0.6,-0.6,-0.6,right,R,,,,,0,1,1,1,0,4,4,6,,,,,,,,,,,,,,,,,,,,,,,,,,,,,,,,,,,,,,,,,,,,151.75178490008693,None,right,1,0.6774919000454247,152.25278770003933,153.18836300005205,152.25278770003933,152.68706680007745,152.25278770003933,152.68706680007745,152.25278770003933,152.68706680007745,152.25278770003933,152.68706680007745,152.25278770003933,152.68706680007745,152.67005010007415,153.17143330001272,152.67005010007415,153.17143330001272,152.67005010007415,153.17143330001272,152.67005010007415,153.17143330001272,152.67005010007415,153.17143330001272,152.67005010007415,153.17143330001272,152.67005010007415,153.17143330001272,152.67005010007415,153.17143330001272,152.25278770003933,None,153.17143330001272,154.59007330005988,0.43000000000000016,154.6068655999843,None,155.35737230000086,None,,,,,,,[1.416],4.370000000000004,0.8,12004,001,2024_Jun_13_1329,MFTM_A_new1021,2021.2.3,60.02681996376307,
,,,,,,,,stim/Instruction_adaptive.png,conditions/adaptive.xlsx,test,-0.6,-0.6,-0.6,0.6,0.6,left,L,,,,,0,1,1,1,0,5,5,53,,,,,,,,,,,,,,,,,,,,,,,,,,,,,,,,,,,,,,,,,,,,155.85893790004775,None,left,1,0.5787143999477848,156.35960590001196,157.19415960006882,156.35960590001196,156.69257680000737,156.35960590001196,156.69257680000737,156.35960590001196,156.69257680000737,156.35960590001196,156.69257680000737,156.35960590001196,156.69257680000737,156.65928110003006,157.160845000064,156.65928110003006,157.160845000064,156.65928110003006,157.160845000064,156.65928110003006,157.160845000064,156.65928110003006,157.160845000064,156.65928110003006,157.160845000064,156.65928110003006,157.160845000064,156.65928110003006,157.160845000064,156.35960590001196,None,157.160845000064,158.7137372000143,0.32000000000000006,158.72883859998547,None,159.48009950004052,None,,,,,,,[1.54333333],4.7100000000000035,0.8333333333333334,12004,001,2024_Jun_13_1329,MFTM_A_new1021,2021.2.3,60.02681996376307,
,,,,,,,,stim/Instruction_adaptive.png,conditions/adaptive.xlsx,test,0.6,0.6,0.6,-0.6,-0.6,right,R,,,,,0,1,1,1,0,6,6,16,,,,,,,,,,,,,,,,,,,,,,,,,,,,,,,,,,,,,,,,,,,,159.98076639999636,None,left,0,0.560682600014843,160.4817769000074,161.2331798999803,160.4817769000074,160.7321161000291,160.4817769000074,160.7321161000291,160.4817769000074,160.7321161000291,160.4817769000074,160.7321161000291,160.4817769000074,160.7321161000291,160.71534190000966,161.216994300019,160.71534190000966,161.216994300019,160.71534190000966,161.216994300019,160.71534190000966,161.216994300019,160.71534190000966,161.216994300019,160.71534190000966,161.216994300019,160.71534190000966,161.216994300019,160.71534190000966,161.216994300019,160.4817769000074,None,161.216994300019,162.8691123999888,0.25,162.88532700005453,None,163.6371899000369,None,,,,,,,[1.64428571],4.010000000000003,0.7142857142857143,12004,001,2024_Jun_13_1329,MFTM_A_new1021,2021.2.3,60.02681996376307,
,,,,,,,,stim/Instruction_adaptive.png,conditions/adaptive.xlsx,test,-0.6,-0.6,-0.6,0.6,0.6,left,L,,,,,0,1,1,1,0,7,7,17,,,,,,,,,,,,,,,,,,,,,,,,,,,,,,,,,,,,,,,,,,,,164.13782679999713,None,right,0,0.7084287999896333,164.63807930005714,165.55604030005634,164.63807930005714,165.0552945000818,164.63807930005714,165.0552945000818,164.63807930005714,165.0552945000818,164.63807930005714,165.0552945000818,164.63807930005714,165.0552945000818,165.03865590004716,165.53930579998996,165.03865590004716,165.53930579998996,165.03865590004716,165.53930579998996,165.03865590004716,165.53930579998996,165.03865590004716,165.53930579998996,165.03865590004716,165.53930579998996,165.03865590004716,165.53930579998996,165.03865590004716,165.53930579998996,164.63807930005714,None,165.53930579998996,167.24272159999236,0.41000000000000014,167.25923660001718,None,168.01097170007415,None,,,,,,,[1.7],3.2500000000000027,0.625,12004,001,2024_Jun_13_1329,MFTM_A_new1021,2021.2.3,60.02681996376307,
,,,,,,,,stim/Instruction_adaptive.png,conditions/adaptive.xlsx,test,0.6,0.6,0.6,-0.6,-0.6,right,R,,,,,0,1,1,1,0,8,8,92,,,,,,,,,,,,,,,,,,,,,,,,,,,,,,,,,,,,,,,,,,,,168.511067799991,None,right,1,1.0636634000111371,169.0111108000856,170.2132697000634,169.0111108000856,169.71248360001482,169.0111108000856,169.71248360001482,169.0111108000856,169.71248360001482,169.0111108000856,169.71248360001482,169.0111108000856,169.71248360001482,169.67898940003943,170.17980490007903,169.67898940003943,170.17980490007903,169.67898940003943,170.17980490007903,169.67898940003943,170.17980490007903,169.67898940003943,170.17980490007903,169.67898940003943,170.17980490007903,169.67898940003943,170.17980490007903,169.67898940003943,170.17980490007903,169.0111108000856,None,170.17980490007903,171.89963140001055,0.6900000000000004,171.91544080001768,None,172.66676829999778,None,,,,,,,[1.71222222],3.5600000000000027,0.6666666666666666,12004,001,2024_Jun_13_1329,MFTM_A_new1021,2021.2.3,60.02681996376307,
,,,,,,,,stim/Instruction_adaptive.png,conditions/adaptive.xlsx,test,-0.6,-0.6,-0.6,0.6,0.6,left,L,,,,,0,1,1,1,0,9,9,11,,,,,,,,,,,,,,,,,,,,,,,,,,,,,,,,,,,,,,,,,,,,173.1683633000357,None,left,1,0.7187794999917969,173.66837410000153,174.7367695000721,173.66837410000153,174.23594739998225,173.66837410000153,174.23594739998225,173.66837410000153,174.23594739998225,173.66837410000153,174.23594739998225,173.66837410000153,174.23594739998225,174.2191751000937,174.72002910007723,174.2191751000937,174.72002910007723,174.2191751000937,174.72002910007723,174.2191751000937,174.72002910007723,174.2191751000937,174.72002910007723,174.2191751000937,174.72002910007723,174.2191751000937,174.72002910007723,174.2191751000937,174.72002910007723,173.66837410000153,None,174.72002910007723,176.45675610005856,0.5600000000000003,176.47247060004156,None,177.22443160007242,None,,,,,,,[1.735],3.800000000000003,0.7,12004,001,2024_Jun_13_1329,MFTM_A_new1021,2021.2.3,60.02681996376307,
,,,,,,,,stim/Instruction_adaptive.png,conditions/adaptive.xlsx,test,0.6,0.6,0.6,-0.6,-0.6,right,R,,,,,0,1,1,1,0,10,10,46,,,,,,,,,,,,,,,,,,,,,,,,,,,,,,,,,,,,,,,,,,,,177.72493680007756,None,right,1,0.7136669000610709,178.22541980003007,179.21088020002935,178.22541980003007,178.70917420007754,178.22541980003007,178.70917420007754,178.22541980003007,178.70917420007754,178.22541980003007,178.70917420007754,178.22541980003007,178.70917420007754,178.67728970001917,179.1769854000304,178.67728970001917,179.1769854000304,178.67728970001917,179.1769854000304,178.67728970001917,179.1769854000304,178.67728970001917,179.1769854000304,178.67728970001917,179.1769854000304,178.67728970001917,179.1769854000304,178.67728970001917,179.1769854000304,178.22541980003007,None,179.1769854000304,180.9459715000121,0.4700000000000002,180.9626741000684,None,181.7145612000022,None,,,,,,,[1.76181818],3.990000000000003,0.7272727272727273,12004,001,2024_Jun_13_1329,MFTM_A_new1021,2021.2.3,60.02681996376307,
,,,,,,,,stim/Instruction_adaptive.png,conditions/adaptive.xlsx,test,0.6,0.6,0.6,-0.6,-0.6,right,R,,,,,0,1,1,1,0,11,11,8,,,,,,,,,,,,,,,,,,,,,,,,,,,,,,,,,,,,,,,,,,,,182.21518020005897,None,right,1,1.6797776999883354,182.7158507000422,183.63426570000593,182.7158507000422,183.13394630001858,182.7158507000422,183.13394630001858,182.7158507000422,183.13394630001858,182.7158507000422,183.13394630001858,182.7158507000422,183.13394630001858,183.09907880006358,183.60005430004094,183.09907880006358,183.60005430004094,183.09907880006358,183.60005430004094,183.09907880006358,183.60005430004094,183.09907880006358,183.60005430004094,183.09907880006358,183.60005430004094,183.09907880006358,183.60005430004094,183.09907880006358,183.60005430004094,182.7158507000422,None,183.60005430004094,185.40274769999087,0.41000000000000014,185.42002530000173,None,186.17067360004876,None,,,,,,,[1.78916667],4.160000000000004,0.75,12004,001,2024_Jun_13_1329,MFTM_A_new1021,2021.2.3,60.02681996376307,
,,,,,,,,stim/Instruction_adaptive.png,conditions/adaptive.xlsx,test,0.6,0.6,0.6,-0.6,-0.6,right,R,,,,,0,1,1,1,0,12,12,40,,,,,,,,,,,,,,,,,,,,,,,,,,,,,,,,,,,,,,,,,,,,186.67121120006777,None,left,0,0.6144054000033066,187.1730610000668,188.05744130001403,187.1730610000668,187.55781660007779,187.1730610000668,187.55781660007779,187.1730610000668,187.55781660007779,187.1730610000668,187.55781660007779,187.1730610000668,187.55781660007779,187.5227426000638,188.02411780005787,187.5227426000638,188.02411780005787,187.5227426000638,188.02411780005787,187.5227426000638,188.02411780005787,187.5227426000638,188.02411780005787,187.5227426000638,188.02411780005787,187.5227426000638,188.02411780005787,187.5227426000638,188.02411780005787,187.1730610000668,None,188.02411780005787,189.8427604000317,0.3700000000000001,189.86012570001185,None,190.61026880005375,None,,,,,,,[1.81538462],3.740000000000003,0.6923076923076923,12004,001,2024_Jun_13_1329,MFTM_A_new1021,2021.2.3,60.02681996376307,
,,,,,,,,stim/Instruction_adaptive.png,conditions/adaptive.xlsx,test,-0.6,-0.6,-0.6,0.6,0.6,left,L,,,,,0,1,1,1,0,13,13,1,,,,,,,,,,,,,,,,,,,,,,,,,,,,,,,,,,,,,,,,,,,,191.11120170005597,None,right,0,0.5434071999043226,191.61188530002255,192.61441180005204,191.61188530002255,192.1129020000808,191.61188530002255,192.1129020000808,191.61188530002255,192.1129020000808,191.61188530002255,192.1129020000808,191.61188530002255,192.1129020000808,192.07918170001358,192.58104840002488,192.07918170001358,192.58104840002488,192.07918170001358,192.58104840002488,192.07918170001358,192.58104840002488,192.07918170001358,192.58104840002488,192.07918170001358,192.58104840002488,192.07918170001358,192.58104840002488,192.07918170001358,192.58104840002488,191.61188530002255,None,192.58104840002488,194.41687160008587,0.4900000000000002,194.43360320001375,None,195.1848831999814,None,,,,,,,[1.82928571],3.2600000000000025,0.6428571428571429,12004,001,2024_Jun_13_1329,MFTM_A_new1021,2021.2.3,60.02681996376307,
,,,,,,,,stim/Instruction_adaptive.png,conditions/adaptive.xlsx,test,-0.6,-0.6,-0.6,0.6,0.6,left,L,,,,,0,1,1,1,0,14,14,39,,,,,,,,,,,,,,,,,,,,,,,,,,,,,,,,,,,,,,,,,,,,195.68569660000503,None,right,0,1.561709100031294,196.18560860003345,197.38781480002217,196.18560860003345,196.88771500007715,196.18560860003345,196.88771500007715,196.18560860003345,196.88771500007715,196.18560860003345,196.88771500007715,196.18560860003345,196.88771500007715,196.85309009999037,197.35404230002314,196.85309009999037,197.35404230002314,196.85309009999037,197.35404230002314,196.85309009999037,197.35404230002314,196.85309009999037,197.35404230002314,196.85309009999037,197.35404230002314,196.85309009999037,197.35404230002314,196.85309009999037,197.35404230002314,196.18560860003345,None,197.35404230002314,199.17413709999528,0.6900000000000004,199.19000519998372,None,199.94154810009059,None,,,,,,,[[1.81]],2.680000000000002,0.6,12004,001,2024_Jun_13_1329,MFTM_A_new1021,2021.2.3,60.02681996376307,
,,,,,,,,stim/Instruction_adaptive.png,conditions/adaptive.xlsx,test,0.6,0.6,0.6,-0.6,-0.6,right,R,,,,,0,1,1,1,0,15,15,60,,,,,,,,,,,,,,,,,,,,,,,,,,,,,,,,,,,,,,,,,,,,200.44206140004098,None,right,1,1.6534716999158263,200.9429119999986,202.47849490004592,200.9429119999986,201.97754110000096,200.9429119999986,201.97754110000096,200.9429119999986,201.97754110000096,200.9429119999986,201.97754110000096,200.9429119999986,201.97754110000096,201.9610490000341,202.4617422000738,201.9610490000341,202.4617422000738,201.9610490000341,202.4617422000738,201.9610490000341,202.4617422000738,201.9610490000341,202.4617422000738,201.9610490000341,202.4617422000738,201.9610490000341,202.4617422000738,201.9610490000341,202.4617422000738,200.9429119999986,None,202.4617422000738,203.9313760000514,1.0300000000000007,203.9472186000785,None,204.69952440005727,None,,,,,,,[[1.47]],2.920000000000002,0.625,12004,001,2024_Jun_13_1329,MFTM_A_new1021,2021.2.3,60.02681996376307,
,,,,,,,,stim/Instruction_adaptive.png,conditions/adaptive.xlsx,test,-0.6,-0.6,-0.6,0.6,0.6,left,L,,,,,0,1,1,1,0,16,16,63,,,,,,,,,,,,,,,,,,,,,,,,,,,,,,,,,,,,,,,,,,,,205.19962359999772,None,left,1,0.7360132000176236,205.69974180008285,207.0685697000008,205.69974180008285,206.58443799999077,205.69974180008285,206.58443799999077,205.69974180008285,206.58443799999077,205.69974180008285,206.58443799999077,205.69974180008285,206.58443799999077,206.55135970003903,207.05263510008808,206.55135970003903,207.05263510008808,206.55135970003903,207.05263510008808,206.55135970003903,207.05263510008808,206.55135970003903,207.05263510008808,206.55135970003903,207.05263510008808,206.55135970003903,207.05263510008808,206.55135970003903,207.05263510008808,205.69974180008285,None,207.05263510008808,208.6883013000479,0.8700000000000006,208.70446799998172,None,209.45574730006047,None,,,,,,,[[1.63]],3.1000000000000023,0.6470588235294118,12004,001,2024_Jun_13_1329,MFTM_A_new1021,2021.2.3,60.02681996376307,
,,,,,,,,stim/Instruction_adaptive.png,conditions/adaptive.xlsx,test,-0.6,-0.6,-0.6,0.6,0.6,left,L,,,,,0,1,1,1,0,17,17,43,,,,,,,,,,,,,,,,,,,,,,,,,,,,,,,,,,,,,,,,,,,,209.95634550007526,None,right,0,1.4909659000113606,210.4568608000409,211.7254888000898,210.4568608000409,211.22638050001115,210.4568608000409,211.22638050001115,210.4568608000409,211.22638050001115,210.4568608000409,211.22638050001115,210.4568608000409,211.22638050001115,211.2095950000221,211.70986080006696,211.2095950000221,211.70986080006696,211.2095950000221,211.70986080006696,211.2095950000221,211.70986080006696,211.2095950000221,211.70986080006696,211.2095950000221,211.70986080006696,211.2095950000221,211.70986080006696,211.2095950000221,211.70986080006696,210.4568608000409,None,211.70986080006696,213.44538629997987,0.7700000000000005,213.4615693000378,None,214.21317580004688,None,,,,,,,[[1.73]],2.620000000000002,0.6111111111111112,12004,001,2024_Jun_13_1329,MFTM_A_new1021,2021.2.3,60.02681996376307,
,,,,,,,,stim/Instruction_adaptive.png,conditions/adaptive.xlsx,test,0.6,0.6,0.6,-0.6,-0.6,right,R,,,,,0,1,1,1,0,18,18,4,,,,,,,,,,,,,,,,,,,,,,,,,,,,,,,,,,,,,,,,,,,,214.71484340005554,None,right,1,1.6383153999922797,215.21410700003617,216.78333320003003,215.21410700003617,216.2825535000302,215.21410700003617,216.2825535000302,215.21410700003617,216.2825535000302,215.21410700003617,216.2825535000302,215.21410700003617,216.2825535000302,216.26671690004878,216.76666110008955,216.26671690004878,216.76666110008955,216.26671690004878,216.76666110008955,216.26671690004878,216.76666110008955,216.26671690004878,216.76666110008955,216.26671690004878,216.76666110008955,216.26671690004878,216.76666110008955,216.26671690004878,216.76666110008955,215.21410700003617,None,216.76666110008955,218.2022425000323,1.0700000000000007,218.2187818000093,None,218.97008830006234,None,,,,,,,[[1.43]],2.8100000000000023,0.631578947368421,12004,001,2024_Jun_13_1329,MFTM_A_new1021,2021.2.3,60.02681996376307,
,,,,,,,,stim/Instruction_adaptive.png,conditions/adaptive.xlsx,test,-0.6,-0.6,-0.6,0.6,0.6,left,L,,,,,0,1,1,1,0,19,19,81,,,,,,,,,,,,,,,,,,,,,,,,,,,,,,,,,,,,,,,,,,,,219.47145750001073,None,left,1,2.360752599895932,219.9714325000532,221.42350820009597,219.9714325000532,220.9241888000397,219.9714325000532,220.9241888000397,219.9714325000532,220.9241888000397,219.9714325000532,220.9241888000397,219.9714325000532,220.9241888000397,220.89048739999998,221.3911176000256,220.89048739999998,221.3911176000256,220.89048739999998,221.3911176000256,220.89048739999998,221.3911176000256,220.89048739999998,221.3911176000256,220.89048739999998,221.3911176000256,220.89048739999998,221.3911176000256,220.89048739999998,221.3911176000256,219.9714325000532,None,221.3911176000256,222.9605124000227,0.9400000000000006,222.9767198000336,None,223.72716210002545,None,,,,,,,[[1.56]],2.9700000000000024,0.65,12004,001,2024_Jun_13_1329,MFTM_A_new1021,2021.2.3,60.02681996376307,
,,,,,,,,stim/Instruction_adaptive.png,conditions/adaptive.xlsx,test,-0.6,-0.6,-0.6,0.6,0.6,left,L,,,,,0,1,1,1,0,20,20,69,,,,,,,,,,,,,,,,,,,,,,,,,,,,,,,,,,,,,,,,,,,,224.22898590005934,None,left,1,1.2517549999756739,224.7293676000554,226.08072140009608,224.7293676000554,225.5806041000178,224.7293676000554,225.5806041000178,224.7293676000554,225.5806041000178,224.7293676000554,225.5806041000178,224.7293676000554,225.5806041000178,225.54718800005503,226.04729320004117,225.54718800005503,226.04729320004117,225.54718800005503,226.04729320004117,225.54718800005503,226.04729320004117,225.54718800005503,226.04729320004117,225.54718800005503,226.04729320004117,225.54718800005503,226.04729320004117,225.54718800005503,226.04729320004117,224.7293676000554,None,226.04729320004117,227.71773640008178,0.8400000000000005,227.73313710000366,None,228.4842030000873,None,,,,,,,[[1.66]],3.1000000000000023,0.6666666666666666,12004,001,2024_Jun_13_1329,MFTM_A_new1021,2021.2.3,60.02681996376307,
,,,,,,,,stim/Instruction_adaptive.png,conditions/adaptive.xlsx,test,0.6,0.6,0.6,-0.6,-0.6,right,R,,,,,0,1,1,1,0,21,21,76,,,,,,,,,,,,,,,,,,,,,,,,,,,,,,,,,,,,,,,,,,,,228.98559240007307,None,left,0,1.268957299995236,229.48720040009357,230.77093230001628,229.48720040009357,230.27022900001612,229.48720040009357,230.27022900001612,229.48720040009357,230.27022900001612,229.48720040009357,230.27022900001612,229.48720040009357,230.27022900001612,230.23672540008556,230.73760320001747,230.23672540008556,230.73760320001747,230.23672540008556,230.73760320001747,230.23672540008556,230.73760320001747,230.23672540008556,230.73760320001747,230.23672540008556,230.73760320001747,230.23672540008556,230.73760320001747,230.23672540008556,230.73760320001747,229.48720040009357,None,230.73760320001747,232.47499350004364,0.7700000000000005,232.48964430007618,None,233.2426919999998,None,,,,,,,[[1.73]],2.7500000000000018,0.6363636363636364,12004,001,2024_Jun_13_1329,MFTM_A_new1021,2021.2.3,60.02681996376307,
,,,,,,,,stim/Instruction_adaptive.png,conditions/adaptive.xlsx,test,0.6,0.6,0.6,-0.6,-0.6,right,R,,,,,0,1,1,1,0,22,22,72,,,,,,,,,,,,,,,,,,,,,,,,,,,,,,,,,,,,,,,,,,,,233.743050100049,None,left,0,1.48117889999412,234.24302639998496,235.72882580000442,234.24302639998496,235.22792430000845,234.24302639998496,235.22792430000845,234.24302639998496,235.22792430000845,234.24302639998496,235.22792430000845,234.24302639998496,235.22792430000845,235.21107790002134,235.7123923000181,235.21107790002134,235.7123923000181,235.21107790002134,235.7123923000181,235.21107790002134,235.7123923000181,235.21107790002134,235.7123923000181,235.21107790002134,235.7123923000181,235.21107790002134,235.7123923000181,235.21107790002134,235.7123923000181,234.24302639998496,None,235.7123923000181,None,0.9800000000000006,237.2473450000398,None,237.99933800008148,None,,,,,,,[[1.52]],2.3200000000000016,0.6086956521739131,12004,001,2024_Jun_13_1329,MFTM_A_new1021,2021.2.3,60.02681996376307,
,,,,,,,,stim/Instruction_adaptive.png,conditions/adaptive.xlsx,test,0.6,0.6,0.6,-0.6,-0.6,right,R,,,,,0,1,1,1,0,23,23,58,,,,,,,,,,,,,,,,,,,,,,,,,,,,,,,,,,,,,,,,,,,,238.49923900002614,None,right,1,2.1235100999474525,239.00107200001366,240.8389527000254,239.00107200001366,240.33525300002657,239.00107200001366,240.33525300002657,239.00107200001366,240.33525300002657,239.00107200001366,240.33525300002657,239.00107200001366,240.33525300002657,240.30208170006517,240.80302560003474,240.30208170006517,240.80302560003474,240.30208170006517,240.80302560003474,240.30208170006517,240.80302560003474,240.30208170006517,240.80302560003474,240.30208170006517,240.80302560003474,240.30208170006517,240.80302560003474,240.30208170006517,240.80302560003474,239.00107200001366,None,240.80302560003474,241.98768660007045,1.320000000000001,242.00449780002236,None,242.75675370008685,None,,,,,,,[[1.18]],2.490000000000002,0.625,12004,001,2024_Jun_13_1329,MFTM_A_new1021,2021.2.3,60.02681996376307,
,,,,,,,,stim/Instruction_adaptive.png,conditions/adaptive.xlsx,test,0.6,0.6,0.6,-0.6,-0.6,right,R,,,,,0,1,1,1,0,24,24,78,,,,,,,,,,,,,,,,,,,,,,,,,,,,,,,,,,,,,,,,,,,,243.25684679998085,None,right,1,1.6389407999813557,243.75815570005216,245.4438880000962,243.75815570005216,244.94233140000142,243.75815570005216,244.94233140000142,243.75815570005216,244.94233140000142,243.75815570005216,244.94233140000142,243.75815570005216,244.94233140000142,244.90888700005598,245.40980140003376,244.90888700005598,245.40980140003376,244.90888700005598,245.40980140003376,244.90888700005598,245.40980140003376,244.90888700005598,245.40980140003376,244.90888700005598,245.40980140003376,244.90888700005598,245.40980140003376,244.90888700005598,245.40980140003376,243.75815570005216,None,245.40980140003376,246.74508900009096,1.1700000000000008,246.76174190000165,None,247.51405500003602,None,,,,,,,[[1.33]],2.6300000000000017,0.64,12004,001,2024_Jun_13_1329,MFTM_A_new1021,2021.2.3,60.02681996376307,
,,,,,,,,stim/Instruction_adaptive.png,conditions/adaptive.xlsx,test,-0.6,-0.6,-0.6,0.6,0.6,left,L,,,,,0,1,1,1,0,25,25,95,,,,,,,,,,,,,,,,,,,,,,,,,,,,,,,,,,,,,,,,,,,,248.01374580000993,None,left,1,2.442792300018482,248.51443920005113,250.08387450000737,248.51443920005113,249.58285110001452,248.51443920005113,249.58285110001452,248.51443920005113,249.58285110001452,248.51443920005113,249.58285110001452,248.51443920005113,249.58285110001452,249.56602480006404,250.06672030000482,249.56602480006404,250.06672030000482,249.56602480006404,250.06672030000482,249.56602480006404,250.06672030000482,249.56602480006404,250.06672030000482,249.56602480006404,250.06672030000482,249.56602480006404,250.06672030000482,249.56602480006404,250.06672030000482,248.51443920005113,None,250.06672030000482,None,1.0600000000000007,251.51894249999896,None,252.270490600029,None,,,,,,,[[1.44]],2.7500000000000018,0.6538461538461539,12004,001,2024_Jun_13_1329,MFTM_A_new1021,2021.2.3,60.02681996376307,
,,,,,,,,stim/Instruction_adaptive.png,conditions/adaptive.xlsx,test,-0.6,-0.6,-0.6,0.6,0.6,left,L,,,,,0,1,1,1,0,26,26,87,,,,,,,,,,,,,,,,,,,,,,,,,,,,,,,,,,,,,,,,,,,,252.77195770002436,None,left,1,1.0614465000107884,253.2722189000342,254.75831400009338,253.2722189000342,254.25720900006127,253.2722189000342,254.25720900006127,253.2722189000342,254.25720900006127,253.2722189000342,254.25720900006127,253.2722189000342,254.25720900006127,254.2410926000448,254.74056330008898,254.2410926000448,254.74056330008898,254.2410926000448,254.74056330008898,254.2410926000448,254.74056330008898,254.2410926000448,254.74056330008898,254.2410926000448,254.74056330008898,254.2410926000448,254.74056330008898,254.2410926000448,254.74056330008898,253.2722189000342,None,254.74056330008898,None,0.9800000000000006,256.27606290008407,None,257.0282365999883,None,,,,,,,[[1.52]],2.8500000000000023,0.6666666666666666,12004,001,2024_Jun_13_1329,MFTM_A_new1021,2021.2.3,60.02681996376307,
,,,,,,,,stim/Instruction_adaptive.png,conditions/adaptive.xlsx,test,-0.6,-0.6,-0.6,0.6,0.6,left,L,,,,,0,1,1,1,0,27,27,59,,,,,,,,,,,,,,,,,,,,,,,,,,,,,,,,,,,,,,,,,,,,257.528498700005,None,left,1,0.5844699000008404,258.0287244000938,259.4474719000282,258.0287244000938,258.9468341000611,258.0287244000938,258.9468341000611,258.0287244000938,258.9468341000611,258.0287244000938,258.9468341000611,258.0287244000938,258.9468341000611,258.913456600043,259.41439310007263,258.913456600043,259.41439310007263,258.913456600043,259.41439310007263,258.913456600043,259.41439310007263,258.913456600043,259.41439310007263,258.913456600043,259.41439310007263,258.913456600043,259.41439310007263,258.913456600043,259.41439310007263,258.0287244000938,None,259.41439310007263,261.0166589000728,0.9100000000000006,261.03329719998874,None,261.78521690005437,None,,,,,,,[[1.59]],2.940000000000002,0.6785714285714286,12004,001,2024_Jun_13_1329,MFTM_A_new1021,2021.2.3,60.02681996376307,
,,,,,,,,stim/Instruction_adaptive.png,conditions/adaptive.xlsx,test,0.6,0.6,0.6,-0.6,-0.6,right,R,,,,,0,1,1,1,0,28,28,34,,,,,,,,,,,,,,,,,,,,,,,,,,,,,,,,,,,,,,,,,,,,262.28511729999445,None,right,1,1.539229099988006,262.78596440004185,264.15552290005144,262.78596440004185,263.6550909000216,262.78596440004185,263.6550909000216,262.78596440004185,263.6550909000216,262.78596440004185,263.6550909000216,262.78596440004185,263.6550909000216,263.6372623000061,264.13876050000545,263.6372623000061,264.13876050000545,263.6372623000061,264.13876050000545,263.6372623000061,264.13876050000545,263.6372623000061,264.13876050000545,263.6372623000061,264.13876050000545,263.6372623000061,264.13876050000545,263.6372623000061,264.13876050000545,262.78596440004185,None,264.13876050000545,None,0.8600000000000005,265.7918295999989,None,266.5427427000832,None,,,,,,,[[1.64]],3.0200000000000022,0.6896551724137931,12004,001,2024_Jun_13_1329,MFTM_A_new1021,2021.2.3,60.02681996376307,
,,,,,,,,stim/Instruction_adaptive.png,conditions/adaptive.xlsx,test,0.6,0.6,0.6,-0.6,-0.6,right,R,,,,,0,1,1,1,0,29,29,68,,,,,,,,,,,,,,,,,,,,,,,,,,,,,,,,,,,,,,,,,,,,267.043218200095,None,right,1,1.1176559999585152,267.54361910000443,268.86262480006553,267.54361910000443,268.3616185000865,267.54361910000443,268.3616185000865,267.54361910000443,268.3616185000865,267.54361910000443,268.3616185000865,267.54361910000443,268.3616185000865,268.3284010000061,268.8283586000325,268.3284010000061,268.8283586000325,268.3284010000061,268.8283586000325,268.3284010000061,268.8283586000325,268.3284010000061,268.8283586000325,268.3284010000061,268.8283586000325,268.3284010000061,268.8283586000325,268.3284010000061,268.8283586000325,267.54361910000443,None,268.8283586000325,270.5147017000709,0.8100000000000005,270.5474534999812,None,271.298731100047,None,,,,,,,[1.68466667],3.1000000000000023,0.7,12004,001,2024_Jun_13_1329,MFTM_A_new1021,2021.2.3,60.02681996376307,
,,,,,,,,stim/Instruction_adaptive.png,conditions/adaptive.xlsx,test,-0.6,-0.6,-0.6,0.6,0.6,left,L,,,,,0,1,1,1,0,30,30,45,,,,,,,,,,,,,,,,,,,,,,,,,,,,,,,,,,,,,,,,,,,,271.7995935000945,None,left,1,1.057076600030996,272.3004360999912,273.5863298000768,272.3004360999912,273.08552700001746,272.3004360999912,273.08552700001746,272.3004360999912,273.08552700001746,272.3004360999912,273.08552700001746,272.3004360999912,273.08552700001746,273.0514529000502,273.5521994000301,273.0514529000502,273.5521994000301,273.0514529000502,273.5521994000301,273.0514529000502,273.5521994000301,273.0514529000502,273.5521994000301,273.0514529000502,273.5521994000301,273.0514529000502,273.5521994000301,273.0514529000502,273.5521994000301,272.3004360999912,None,273.5521994000301,275.2388163000578,0.7700000000000005,275.27224620000925,None,276.0232306000544,None,,,,,,,[1.68612903],3.1700000000000026,0.7096774193548387,12004,001,2024_Jun_13_1329,MFTM_A_new1021,2021.2.3,60.02681996376307,
,,,,,,,,stim/Instruction_adaptive.png,conditions/adaptive.xlsx,test,0.6,0.6,0.6,-0.6,-0.6,right,R,,,,,0,1,1,1,0,31,31,66,,,,,,,,,,,,,,,,,,,,,,,,,,,,,,,,,,,,,,,,,,,,276.523977200035,None,right,1,1.3405962999677286,277.02494010003284,278.25916890008375,277.02494010003284,277.7583442000905,277.02494010003284,277.7583442000905,277.02494010003284,277.7583442000905,277.02494010003284,277.7583442000905,277.02494010003284,277.7583442000905,277.7415914000012,278.242681200034,277.7415914000012,278.242681200034,277.7415914000012,278.242681200034,277.7415914000012,278.242681200034,277.7415914000012,278.242681200034,277.7415914000012,278.242681200034,277.7415914000012,278.242681200034,277.7415914000012,278.242681200034,277.02494010003284,None,278.242681200034,None,0.7300000000000004,279.94513620005455,None,280.69627399998717,None,,,,,,,[1.68875],3.2400000000000024,0.71875,12004,001,2024_Jun_13_1329,MFTM_A_new1021,2021.2.3,60.02681996376307,
,,,,,,,,stim/Instruction_adaptive.png,conditions/adaptive.xlsx,test,-0.6,-0.6,-0.6,0.6,0.6,left,L,,,,,0,1,1,1,0,32,32,97,,,,,,,,,,,,,,,,,,,,,,,,,,,,,,,,,,,,,,,,,,,,281.19844300008845,None,left,1,0.9159134000074118,281.69777130009606,282.9005324000027,281.69777130009606,282.39954710006714,281.69777130009606,282.39954710006714,281.69777130009606,282.39954710006714,281.69777130009606,282.39954710006714,281.69777130009606,282.39954710006714,282.3822990000481,282.88290600001346,282.3822990000481,282.88290600001346,282.3822990000481,282.88290600001346,282.3822990000481,282.88290600001346,282.3822990000481,282.88290600001346,282.3822990000481,282.88290600001346,282.3822990000481,282.88290600001346,282.3822990000481,282.88290600001346,281.69777130009606,None,282.88290600001346,284.58597470005043,0.7000000000000004,284.60232950001955,None,285.35328809998464,None,,,,,,,[1.69212121],3.3000000000000025,0.7272727272727273,12004,001,2024_Jun_13_1329,MFTM_A_new1021,2021.2.3,60.02681996376307,
,,,,,,,,stim/Instruction_adaptive.png,conditions/adaptive.xlsx,test,0.6,0.6,0.6,-0.6,-0.6,right,R,,,,,0,1,1,1,0,33,33,24,,,,,,,,,,,,,,,,,,,,,,,,,,,,,,,,,,,,,,,,,,,,285.85432300006505,None,right,1,1.0358492999803275,286.3546853000298,287.5398674000753,286.3546853000298,287.0392543000635,286.3546853000298,287.0392543000635,286.3546853000298,287.0392543000635,286.3546853000298,287.0392543000635,286.3546853000298,287.0392543000635,287.00611509999726,287.506654900033,287.00611509999726,287.506654900033,287.00611509999726,287.506654900033,287.00611509999726,287.506654900033,287.00611509999726,287.506654900033,287.00611509999726,287.506654900033,287.00611509999726,287.506654900033,287.00611509999726,287.506654900033,286.3546853000298,None,287.506654900033,289.2101637000451,0.6700000000000004,289.2262221000856,None,289.9770681000082,None,,,,,,,[1.69617647],3.3600000000000025,0.7352941176470589,12004,001,2024_Jun_13_1329,MFTM_A_new1021,2021.2.3,60.02681996376307,
,,,,,,,,stim/Instruction_adaptive.png,conditions/adaptive.xlsx,test,0.6,0.6,0.6,-0.6,-0.6,right,R,,,,,0,1,1,1,0,34,34,64,,,,,,,,,,,,,,,,,,,,,,,,,,,,,,,,,,,,,,,,,,,,290.47787310008425,None,left,0,1.0916251000016928,290.9785191999981,292.1301038999809,290.9785191999981,291.6303080000216,290.9785191999981,291.6303080000216,290.9785191999981,291.6303080000216,290.9785191999981,291.6303080000216,290.9785191999981,291.6303080000216,291.5967507000314,292.0966768000508,291.5967507000314,292.0966768000508,291.5967507000314,292.0966768000508,291.5967507000314,292.0966768000508,291.5967507000314,292.0966768000508,291.5967507000314,292.0966768000508,291.5967507000314,292.0966768000508,291.5967507000314,292.0966768000508,290.9785191999981,None,292.0966768000508,293.80137100000866,0.6400000000000003,293.83230280003045,None,294.5840418000007,None,,,,,,,[1.70085714],3.190000000000002,0.7142857142857143,12004,001,2024_Jun_13_1329,MFTM_A_new1021,2021.2.3,60.02681996376307,
,,,,,,,,stim/Instruction_adaptive.png,conditions/adaptive.xlsx,test,0.6,0.6,0.6,-0.6,-0.6,right,R,,,,,0,1,1,1,0,35,35,56,,,,,,,,,,,,,,,,,,,,,,,,,,,,,,,,,,,,,,,,,,,,295.0847476000199,None,left,0,2.468749099993147,295.58537410001736,296.80395930004306,295.58537410001736,296.3197839000495,295.58537410001736,296.3197839000495,295.58537410001736,296.3197839000495,295.58537410001736,296.3197839000495,295.58537410001736,296.3197839000495,296.2876005000435,296.78771880001295,296.2876005000435,296.78771880001295,296.2876005000435,296.78771880001295,296.2876005000435,296.78771880001295,296.2876005000435,296.78771880001295,296.2876005000435,296.78771880001295,296.2876005000435,296.78771880001295,296.2876005000435,296.78771880001295,295.58537410001736,None,296.78771880001295,None,0.7200000000000004,298.5062431000406,None,299.25892030005343,None,,,,,,,[1.70305556],3.0200000000000022,0.6944444444444444,12004,001,2024_Jun_13_1329,MFTM_A_new1021,2021.2.3,60.02681996376307,
,,,,,,,,stim/Instruction_adaptive.png,conditions/adaptive.xlsx,test,-0.6,-0.6,-0.6,0.6,0.6,left,L,,,,,0,1,1,1,0,36,36,49,,,,,,,,,,,,,,,,,,,,,,,,,,,,,,,,,,,,,,,,,,,,299.75842269998975,None,left,1,1.010901500005275,300.2591709999833,301.57921700004954,300.2591709999833,301.0784049000358,300.2591709999833,301.0784049000358,300.2591709999833,301.0784049000358,300.2591709999833,301.0784049000358,300.2591709999833,301.0784049000358,301.0615656999871,301.5611205000896,301.0615656999871,301.5611205000896,301.0615656999871,301.5611205000896,301.0615656999871,301.5611205000896,301.0615656999871,301.5611205000896,301.0615656999871,301.5611205000896,301.0615656999871,301.5611205000896,301.0615656999871,301.5611205000896,300.2591709999833,None,301.5611205000896,None,0.8100000000000005,303.263117399998,None,304.0148732000962,None,,,,,,,[[1.69]],3.0800000000000023,0.7027027027027027,12004,001,2024_Jun_13_1329,MFTM_A_new1021,2021.2.3,60.02681996376307,
,,,,,,,,stim/Instruction_adaptive.png,conditions/adaptive.xlsx,test,0.6,0.6,0.6,-0.6,-0.6,right,R,,,,,0,1,1,1,0,37,37,44,,,,,,,,,,,,,,,,,,,,,,,,,,,,,,,,,,,,,,,,,,,,304.5153886000626,None,left,0,2.5338212000206113,305.01637670001946,306.3024012000533,305.01637670001946,305.8011950000655,305.01637670001946,305.8011950000655,305.01637670001946,305.8011950000655,305.01637670001946,305.8011950000655,305.01637670001946,305.8011950000655,305.7846020000288,306.28487309999764,305.7846020000288,306.28487309999764,305.7846020000288,306.28487309999764,305.7846020000288,306.28487309999764,305.7846020000288,306.28487309999764,305.7846020000288,306.28487309999764,305.7846020000288,306.28487309999764,305.7846020000288,306.28487309999764,305.01637670001946,None,306.28487309999764,307.9881776000839,0.7800000000000005,308.00396800006274,None,308.7552267999854,None,,,,,,,[1.70315789],2.900000000000002,0.6842105263157895,12004,001,2024_Jun_13_1329,MFTM_A_new1021,2021.2.3,60.02681996376307,
,,,,,,,,stim/Instruction_adaptive.png,conditions/adaptive.xlsx,test,-0.6,-0.6,-0.6,0.6,0.6,left,L,,,,,0,1,1,1,0,38,38,41,,,,,,,,,,,,,,,,,,,,,,,,,,,,,,,,,,,,,,,,,,,,309.256125700078,None,left,1,1.9616705001099035,309.75680129998364,311.14211880008224,309.75680129998364,310.6414889000589,309.75680129998364,310.6414889000589,309.75680129998364,310.6414889000589,309.75680129998364,310.6414889000589,309.75680129998364,310.6414889000589,310.62478690000717,311.1265177000314,310.62478690000717,311.1265177000314,310.62478690000717,311.1265177000314,310.62478690000717,311.1265177000314,310.62478690000717,311.1265177000314,310.62478690000717,311.1265177000314,310.62478690000717,311.1265177000314,310.62478690000717,311.1265177000314,309.75680129998364,None,311.1265177000314,None,0.8800000000000006,312.76141080004163,None,313.5126773000229,None,,,,,,,[[1.62]],2.9700000000000024,0.6923076923076923,12004,001,2024_Jun_13_1329,MFTM_A_new1021,2021.2.3,60.02681996376307,
,,,,,,,,stim/Instruction_adaptive.png,conditions/adaptive.xlsx,test,-0.6,-0.6,-0.6,0.6,0.6,left,L,,,,,0,1,1,1,0,39,39,23,,,,,,,,,,,,,,,,,,,,,,,,,,,,,,,,,,,,,,,,,,,,314.0143197000725,None,left,1,2.148329499992542,314.51420730003156,315.86607410002034,314.51420730003156,315.365294200019,314.51420730003156,315.365294200019,314.51420730003156,315.365294200019,314.51420730003156,315.365294200019,314.51420730003156,315.365294200019,315.33182000007946,315.8343004999915,315.33182000007946,315.8343004999915,315.33182000007946,315.8343004999915,315.33182000007946,315.8343004999915,315.33182000007946,315.8343004999915,315.33182000007946,315.8343004999915,315.33182000007946,315.8343004999915,315.33182000007946,315.8343004999915,314.51420730003156,None,315.8343004999915,317.5018778999802,0.8400000000000005,317.5184441000456,None,318.2707494000206,None,,,,,,,[[1.66]],3.030000000000002,0.7,12004,001,2024_Jun_13_1329,MFTM_A_new1021,2021.2.3,60.02681996376307,
,,,,,,,,stim/Instruction_adaptive.png,conditions/adaptive.xlsx,test,0.6,0.6,0.6,-0.6,-0.6,right,R,,,,,0,1,1,1,0,40,40,88,,,,,,,,,,,,,,,,,,,,,,,,,,,,,,,,,,,,,,,,,,,,318.7704376000911,None,right,1,1.4553137000184506,319.27123870002106,320.5906931000063,319.27123870002106,320.0890736000147,319.27123870002106,320.0890736000147,319.27123870002106,320.0890736000147,319.27123870002106,320.0890736000147,319.27123870002106,320.0890736000147,320.0724194000941,320.5738725999836,320.0724194000941,320.5738725999836,320.0724194000941,320.5738725999836,320.0724194000941,320.5738725999836,320.0724194000941,320.5738725999836,320.0724194000941,320.5738725999836,320.0724194000941,320.5738725999836,320.0724194000941,320.5738725999836,319.27123870002106,None,320.55694380006753,322.2590549000306,0.8100000000000005,322.2756784000667,None,323.02757050003856,None,,,,,,,[[1.69]],3.0800000000000023,0.7073170731707317,12004,001,2024_Jun_13_1329,MFTM_A_new1021,2021.2.3,60.02681996376307,
,,,,,,,,stim/Instruction_adaptive.png,conditions/adaptive.xlsx,test,0.6,0.6,0.6,-0.6,-0.6,right,R,,,,,0,1,1,1,0,41,41,98,,,,,,,,,,,,,,,,,,,,,,,,,,,,,,,,,,,,,,,,,,,,323.527651600074,None,right,1,1.5309703999664634,324.0284553000238,325.31366079999134,324.0284553000238,324.8140816000523,324.0284553000238,324.8140816000523,324.0284553000238,324.8140816000523,324.0284553000238,324.8140816000523,324.0284553000238,324.8140816000523,324.79618310008664,325.298195600044,324.79618310008664,325.298195600044,324.79618310008664,325.298195600044,324.79618310008664,325.298195600044,324.79618310008664,325.298195600044,324.79618310008664,325.298195600044,324.79618310008664,325.298195600044,324.79618310008664,325.298195600044,324.0284553000238,None,325.298195600044,327.00006200000644,0.7800000000000005,327.0164721000474,None,327.7674504000461,None,,,,,,,[1.7002381],3.1300000000000026,0.7142857142857143,12004,001,2024_Jun_13_1329,MFTM_A_new1021,2021.2.3,60.02681996376307,
,,,,,,,,stim/Instruction_adaptive.png,conditions/adaptive.xlsx,test,-0.6,-0.6,-0.6,0.6,0.6,left,L,,,,,0,1,1,1,0,42,42,47,,,,,,,,,,,,,,,,,,,,,,,,,,,,,,,,,,,,,,,,,,,,328.26798210002016,None,right,0,2.1661543999798596,328.76903640001547,330.02159530005883,328.76903640001547,329.51977980008814,328.76903640001547,329.51977980008814,328.76903640001547,329.51977980008814,328.76903640001547,329.51977980008814,328.76903640001547,329.51977980008814,329.50377290009055,330.00393280002754,329.50377290009055,330.00393280002754,329.50377290009055,330.00393280002754,329.50377290009055,330.00393280002754,329.50377290009055,330.00393280002754,329.50377290009055,330.00393280002754,329.50377290009055,330.00393280002754,329.50377290009055,330.00393280002754,328.76903640001547,None,330.00393280002754,331.70748570002615,0.7500000000000004,331.7235122000566,None,332.47450990008656,None,,,,,,,[1.70139535],2.980000000000002,0.6976744186046512,12004,001,2024_Jun_13_1329,MFTM_A_new1021,2021.2.3,60.02681996376307,
,,,,,,,,stim/Instruction_adaptive.png,conditions/adaptive.xlsx,test,-0.6,-0.6,-0.6,0.6,0.6,left,L,,,,,0,1,1,1,0,43,43,21,,,,,,,,,,,,,,,,,,,,,,,,,,,,,,,,,,,,,,,,,,,,332.97541409998666,None,left,1,1.4522768999449909,333.47609020001255,334.8122604000382,333.47609020001255,334.3111852000002,333.47609020001255,334.3111852000002,333.47609020001255,334.3111852000002,333.47609020001255,334.3111852000002,333.47609020001255,334.3111852000002,334.29490179999266,334.796262799995,334.29490179999266,334.796262799995,334.29490179999266,334.796262799995,334.29490179999266,334.796262799995,334.29490179999266,334.796262799995,334.29490179999266,334.796262799995,334.29490179999266,334.796262799995,334.29490179999266,334.796262799995,333.47609020001255,None,334.796262799995,None,0.8300000000000005,336.47978789999615,None,337.2313898000866,None,,,,,,,[[1.67]],3.0400000000000023,0.7045454545454546,12004,001,2024_Jun_13_1329,MFTM_A_new1021,2021.2.3,60.02681996376307,
,,,,,,,,stim/Instruction_adaptive.png,conditions/adaptive.xlsx,test,0.6,0.6,0.6,-0.6,-0.6,right,R,,,,,0,1,1,1,0,44,44,50,,,,,,,,,,,,,,,,,,,,,,,,,,,,,,,,,,,,,,,,,,,,337.7322750000749,None,right,1,2.302024899981916,338.23359660001006,339.5359219000675,338.23359660001006,339.03447800001595,338.23359660001006,339.03447800001595,338.23359660001006,339.03447800001595,338.23359660001006,339.03447800001595,338.23359660001006,339.03447800001595,339.0180412000045,339.51938960002735,339.0180412000045,339.51938960002735,339.0180412000045,339.51938960002735,339.0180412000045,339.51938960002735,339.0180412000045,339.51938960002735,339.0180412000045,339.51938960002735,339.0180412000045,339.51938960002735,339.0180412000045,339.51938960002735,338.23359660001006,None,339.51938960002735,341.22067330009304,0.8000000000000005,341.2377739000367,None,341.9887201000238,None,,,,,,,[[1.7]],3.0900000000000025,0.7111111111111111,12004,001,2024_Jun_13_1329,MFTM_A_new1021,2021.2.3,60.02681996376307,
,,,,,,,,stim/Instruction_adaptive.png,conditions/adaptive.xlsx,test,0.6,0.6,0.6,-0.6,-0.6,right,R,,,,,0,1,1,1,0,45,45,0,,,,,,,,,,,,,,,,,,,,,,,,,,,,,,,,,,,,,,,,,,,,342.4896833000239,None,right,1,1.7849232000298798,342.9903968999861,344.258872800041,342.9903968999861,343.7753876000643,342.9903968999861,343.7753876000643,342.9903968999861,343.7753876000643,342.9903968999861,343.7753876000643,342.9903968999861,343.7753876000643,343.7420950999949,344.24315810005646,343.7420950999949,344.24315810005646,343.7420950999949,344.24315810005646,343.7420950999949,344.24315810005646,343.7420950999949,344.24315810005646,343.7420950999949,344.24315810005646,343.7420950999949,344.24315810005646,343.7420950999949,344.24315810005646,342.9903968999861,None,344.24315810005646,345.94462750002276,0.7700000000000005,345.961375300074,None,346.7125473000342,None,,,,,,,[1.70130435],3.1300000000000026,0.717391304347826,12004,001,2024_Jun_13_1329,MFTM_A_new1021,2021.2.3,60.02681996376307,
,,,,,,,,stim/Instruction_adaptive.png,conditions/adaptive.xlsx,test,0.6,0.6,0.6,-0.6,-0.6,right,R,,,,,0,1,1,1,0,46,46,70,,,,,,,,,,,,,,,,,,,,,,,,,,,,,,,,,,,,,,,,,,,,347.2143261000747,None,right,1,1.2128704000497237,347.7146809999831,348.9662650000537,347.7146809999831,348.4651860999875,347.7146809999831,348.4651860999875,347.7146809999831,348.4651860999875,347.7146809999831,348.4651860999875,347.7146809999831,348.4651860999875,348.448655800079,348.95029700000305,348.448655800079,348.95029700000305,348.448655800079,348.95029700000305,348.448655800079,348.95029700000305,348.448655800079,348.95029700000305,348.448655800079,348.95029700000305,348.448655800079,348.95029700000305,348.448655800079,348.95029700000305,347.7146809999831,None,348.95029700000305,350.6522957000416,0.7500000000000004,350.66949100000784,None,351.4197056000121,None,,,,,,,[1.70234043],3.1800000000000024,0.723404255319149,12004,001,2024_Jun_13_1329,MFTM_A_new1021,2021.2.3,60.02681996376307,
,,,,,,,,stim/Instruction_adaptive.png,conditions/adaptive.xlsx,test,0.6,0.6,0.6,-0.6,-0.6,right,R,,,,,0,1,1,1,0,47,47,22,,,,,,,,,,,,,,,,,,,,,,,,,,,,,,,,,,,,,,,,,,,,351.92033930006437,None,left,0,2.098754100035876,352.4213086999953,353.65681290009525,352.4213086999953,353.155550400028,352.4213086999953,353.155550400028,352.4213086999953,353.155550400028,352.4213086999953,353.155550400028,352.4213086999953,353.155550400028,353.1386832999997,353.63975950004533,353.1386832999997,353.63975950004533,353.1386832999997,353.63975950004533,353.1386832999997,353.63975950004533,353.1386832999997,353.63975950004533,353.1386832999997,353.63975950004533,353.1386832999997,353.63975950004533,353.1386832999997,353.63975950004533,352.4213086999953,None,353.63975950004533,355.3431335000787,0.7300000000000004,355.35944420006126,None,356.1098221000284,None,,,,,,,[1.70375],3.0500000000000025,0.7083333333333334,12004,001,2024_Jun_13_1329,MFTM_A_new1021,2021.2.3,60.02681996376307,
,,,,,,,,stim/Instruction_adaptive.png,conditions/adaptive.xlsx,test,-0.6,-0.6,-0.6,0.6,0.6,left,L,,,,,0,1,1,1,0,48,48,71,,,,,,,,,,,,,,,,,,,,,,,,,,,,,,,,,,,,,,,,,,,,356.6117783000227,None,left,1,1.9677838999778032,357.11240980005823,358.41363960003946,357.11240980005823,357.9139911000384,357.11240980005823,357.9139911000384,357.11240980005823,357.9139911000384,357.11240980005823,357.9139911000384,357.11240980005823,357.9139911000384,357.8795968000777,358.3804493000498,357.8795968000777,358.3804493000498,357.8795968000777,358.3804493000498,357.8795968000777,358.3804493000498,357.8795968000777,358.3804493000498,357.8795968000777,358.3804493000498,357.8795968000777,358.3804493000498,357.8795968000777,358.3804493000498,357.11240980005823,None,358.3804493000498,360.0825655000517,0.7900000000000005,360.1160097999964,None,360.8670926000923,None,,,,,,,[1.70387755],3.0900000000000025,0.7142857142857143,12004,001,2024_Jun_13_1329,MFTM_A_new1021,2021.2.3,60.02681996376307,
,,,,,,,,stim/Instruction_adaptive.png,conditions/adaptive.xlsx,test,-0.6,-0.6,-0.6,0.6,0.6,left,L,,,,,0,1,1,1,0,49,49,67,,,,,,,,,,,,,,,,,,,,,,,,,,,,,,,,,,,,,,,,,,,,361.3680093000876,None,right,0,2.0510794000001624,361.8691238000756,363.1547951999819,361.8691238000756,362.65317910001613,361.8691238000756,362.65317910001613,361.8691238000756,362.65317910001613,361.8691238000756,362.65317910001613,361.8691238000756,362.65317910001613,362.6199362000916,363.1207460000878,362.6199362000916,363.1207460000878,362.6199362000916,363.1207460000878,362.6199362000916,363.1207460000878,362.6199362000916,363.1207460000878,362.6199362000916,363.1207460000878,362.6199362000916,363.1207460000878,362.6199362000916,363.1207460000878,361.8691238000756,None,363.1207460000878,364.840638600057,0.7700000000000005,364.8565353000304,None,365.608583800029,None,,,,,,,[1.7044],2.960000000000002,0.7,12004,001,2024_Jun_13_1329,MFTM_A_new1021,2021.2.3,60.02681996376307,
,,,,,,,,stim/Instruction_adaptive.png,conditions/adaptive.xlsx,test,0.6,0.6,0.6,-0.6,-0.6,right,R,,,,,0,1,1,1,0,50,50,54,,,,,,,,,,,,,,,,,,,,,,,,,,,,,,,,,,,,,,,,,,,,366.10884110000916,None,left,0,1.3427718000020832,366.6091862000758,367.9612870999845,366.6091862000758,367.460354299983,366.6091862000758,367.460354299983,366.6091862000758,367.460354299983,366.6091862000758,367.460354299983,366.6091862000758,367.460354299983,367.4447642000159,367.9448470000643,367.4447642000159,367.9448470000643,367.4447642000159,367.9448470000643,367.4447642000159,367.9448470000643,367.4447642000159,367.9448470000643,367.4447642000159,367.9448470000643,367.4447642000159,367.9448470000643,367.4447642000159,367.9448470000643,366.6091862000758,None,367.9448470000643,369.5976918999804,0.8500000000000005,369.61447180004325,None,370.36566140002105,None,,,,,,,[[1.65]],2.820000000000002,0.6862745098039216,12004,001,2024_Jun_13_1329,MFTM_A_new1021,2021.2.3,60.02681996376307,
,,,,,,,,stim/Instruction_adaptive.png,conditions/adaptive.xlsx,test,-0.6,-0.6,-0.6,0.6,0.6,left,L,,,,,0,1,1,1,0,51,51,99,,,,,,,,,,,,,,,,,,,,,,,,,,,,,,,,,,,,,,,,,,,,370.8659037000034,None,left,1,1.8491668000351638,371.36730230005924,372.80263749998994,371.36730230005924,372.30122170003597,371.36730230005924,372.30122170003597,371.36730230005924,372.30122170003597,371.36730230005924,372.30122170003597,371.36730230005924,372.30122170003597,372.28450770000927,372.7854924000567,372.28450770000927,372.7854924000567,372.28450770000927,372.7854924000567,372.28450770000927,372.7854924000567,372.28450770000927,372.7854924000567,372.28450770000927,372.7854924000567,372.28450770000927,372.7854924000567,372.28450770000927,372.7854924000567,371.36730230005924,None,372.7854924000567,None,0.9300000000000006,374.3721002000384,None,375.12290210009087,None,,,,,,,[[1.57]],2.870000000000002,0.6923076923076923,12004,001,2024_Jun_13_1329,MFTM_A_new1021,2021.2.3,60.02681996376307,
,,,,,,,,stim/Instruction_adaptive.png,conditions/adaptive.xlsx,test,-0.6,-0.6,-0.6,0.6,0.6,left,L,,,,,0,1,1,1,0,52,52,75,,,,,,,,,,,,,,,,,,,,,,,,,,,,,,,,,,,,,,,,,,,,375.6234050000785,None,left,1,1.2366749999346212,376.1235247000586,377.52548340009525,376.1235247000586,377.02580400009174,376.1235247000586,377.02580400009174,376.1235247000586,377.02580400009174,376.1235247000586,377.02580400009174,376.1235247000586,377.02580400009174,377.0083090000553,377.50937280000653,377.0083090000553,377.50937280000653,377.0083090000553,377.50937280000653,377.0083090000553,377.50937280000653,377.0083090000553,377.50937280000653,377.0083090000553,377.50937280000653,377.0083090000553,377.50937280000653,377.0083090000553,377.50937280000653,376.1235247000586,None,377.50937280000653,379.11236060003284,0.9000000000000006,379.12816229998134,None,379.88025899999775,None,,,,,,,[[1.6]],2.920000000000002,0.6981132075471698,12004,001,2024_Jun_13_1329,MFTM_A_new1021,2021.2.3,60.02681996376307,
,,,,,,,,stim/Instruction_adaptive.png,conditions/adaptive.xlsx,test,-0.6,-0.6,-0.6,0.6,0.6,left,L,,,,,0,1,1,1,0,53,53,51,,,,,,,,,,,,,,,,,,,,,,,,,,,,,,,,,,,,,,,,,,,,380.3799835999962,None,left,1,1.2313863999443129,380.8814718000358,382.2671319000656,380.8814718000358,381.7664423000533,380.8814718000358,381.7664423000533,380.8814718000358,381.7664423000533,380.8814718000358,381.7664423000533,380.8814718000358,381.7664423000533,381.73196460003965,382.23291999998037,381.73196460003965,382.23291999998037,381.73196460003965,382.23291999998037,381.73196460003965,382.23291999998037,381.73196460003965,382.23291999998037,381.73196460003965,382.23291999998037,381.73196460003965,382.23291999998037,381.73196460003965,382.23291999998037,380.8814718000358,None,382.23291999998037,383.8694442000706,0.8700000000000006,383.88531580008566,None,384.6364996000193,None,,,,,,,[[1.63]],2.960000000000002,0.7037037037037037,12004,001,2024_Jun_13_1329,MFTM_A_new1021,2021.2.3,60.02681996376307,
,,,,,,,,stim/Instruction_adaptive.png,conditions/adaptive.xlsx,test,-0.6,-0.6,-0.6,0.6,0.6,left,L,,,,,0,1,1,1,0,54,54,85,,,,,,,,,,,,,,,,,,,,,,,,,,,,,,,,,,,,,,,,,,,,385.1376399000874,None,left,1,1.5858583999797702,385.6386108000297,386.9900714000687,385.6386108000297,386.48919730004855,385.6386108000297,386.48919730004855,385.6386108000297,386.48919730004855,385.6386108000297,386.48919730004855,385.6386108000297,386.48919730004855,386.4725771000376,386.97337620006874,386.4725771000376,386.97337620006874,386.4725771000376,386.97337620006874,386.4725771000376,386.97337620006874,386.4725771000376,386.97337620006874,386.4725771000376,386.97337620006874,386.4725771000376,386.97337620006874,386.4725771000376,386.97337620006874,385.6386108000297,None,386.97337620006874,388.62568030005787,0.8500000000000005,388.6424058000557,None,389.3945008000592,None,,,,,,,[[1.65]],3.000000000000002,0.7090909090909091,12004,001,2024_Jun_13_1329,MFTM_A_new1021,2021.2.3,60.02681996376307,
,,,,,,,,stim/Instruction_adaptive.png,conditions/adaptive.xlsx,test,0.6,0.6,0.6,-0.6,-0.6,right,R,,,,,0,1,1,1,0,55,55,62,,,,,,,,,,,,,,,,,,,,,,,,,,,,,,,,,,,,,,,,,,,,389.8943839999847,None,right,1,2.6857515999581665,390.39522840001155,391.7142793000676,390.39522840001155,391.23089320003055,390.39522840001155,391.23089320003055,390.39522840001155,391.23089320003055,390.39522840001155,391.23089320003055,390.39522840001155,391.23089320003055,391.19751410000026,391.6977507000556,391.19751410000026,391.6977507000556,391.19751410000026,391.6977507000556,391.19751410000026,391.6977507000556,391.19751410000026,391.6977507000556,391.19751410000026,391.6977507000556,391.19751410000026,391.6977507000556,391.19751410000026,391.6977507000556,390.39522840001155,None,391.6977507000556,393.38364780007396,0.8200000000000005,393.39993409998715,None,394.1507940000156,None,,,,,,,[[1.68]],3.0400000000000023,0.7142857142857143,12004,001,2024_Jun_13_1329,MFTM_A_new1021,2021.2.3,60.02681996376307,
,,,,,,,,stim/Instruction_adaptive.png,conditions/adaptive.xlsx,test,-0.6,-0.6,-0.6,0.6,0.6,left,L,,,,,0,1,1,1,0,56,56,9,,,,,,,,,,,,,,,,,,,,,,,,,,,,,,,,,,,,,,,,,,,,394.65184270008467,None,left,1,2.537180899991654,395.1521326000802,396.454293900053,395.1521326000802,395.95430410001427,395.1521326000802,395.95430410001427,395.1521326000802,395.95430410001427,395.1521326000802,395.95430410001427,395.1521326000802,395.95430410001427,395.9383240999887,396.43763569998555,395.9383240999887,396.43763569998555,395.9383240999887,396.43763569998555,395.9383240999887,396.43763569998555,395.9383240999887,396.43763569998555,395.9383240999887,396.43763569998555,395.9383240999887,396.43763569998555,395.9383240999887,396.43763569998555,395.1521326000802,None,396.43763569998555,398.14038560003974,0.8000000000000005,398.15680360002443,None,398.9079961000243,None,,,,,,,[1.69649123],3.0800000000000023,0.7192982456140351,12004,001,2024_Jun_13_1329,MFTM_A_new1021,2021.2.3,60.02681996376307,
,,,,,,,,stim/Instruction_adaptive.png,conditions/adaptive.xlsx,test,0.6,0.6,0.6,-0.6,-0.6,right,R,,,,,0,1,1,1,0,57,57,32,,,,,,,,,,,,,,,,,,,,,,,,,,,,,,,,,,,,,,,,,,,,399.409478400019,None,right,1,1.4760063999565318,399.90927750000264,401.1957451000344,399.90927750000264,400.693873399985,399.90927750000264,400.693873399985,399.90927750000264,400.693873399985,399.90927750000264,400.693873399985,399.90927750000264,400.693873399985,400.6771864000475,401.1779202000471,400.6771864000475,401.1779202000471,400.6771864000475,401.1779202000471,400.6771864000475,401.1779202000471,400.6771864000475,401.1779202000471,400.6771864000475,401.1779202000471,400.6771864000475,401.1779202000471,400.6771864000475,401.1779202000471,399.90927750000264,None,401.1779202000471,402.88065360009205,0.7800000000000005,402.8972311000107,None,403.64832280005794,None,,,,,,,[1.69689655],3.1200000000000023,0.7241379310344828,12004,001,2024_Jun_13_1329,MFTM_A_new1021,2021.2.3,60.02681996376307,
,,,,,,,,stim/Instruction_adaptive.png,conditions/adaptive.xlsx,test,-0.6,-0.6,-0.6,0.6,0.6,left,L,,,,,0,1,1,1,0,58,58,91,,,,,,,,,,,,,,,,,,,,,,,,,,,,,,,,,,,,,,,,,,,,404.14997790008783,None,left,1,1.807188899954781,404.6499409000389,405.9185481000459,404.6499409000389,405.4187144000316,404.6499409000389,405.4187144000316,404.6499409000389,405.4187144000316,404.6499409000389,405.4187144000316,404.6499409000389,405.4187144000316,405.385478900047,405.885746999993,405.385478900047,405.885746999993,405.385478900047,405.885746999993,405.385478900047,405.885746999993,405.385478900047,405.885746999993,405.385478900047,405.885746999993,405.385478900047,405.885746999993,405.385478900047,405.885746999993,404.6499409000389,None,405.885746999993,407.58791270002257,0.7600000000000005,407.6208834000863,None,408.3731150000822,None,,,,,,,[1.69762712],3.150000000000002,0.7288135593220338,12004,001,2024_Jun_13_1329,MFTM_A_new1021,2021.2.3,60.02681996376307,
,,,,,,,,stim/Instruction_adaptive.png,conditions/adaptive.xlsx,test,-0.6,-0.6,-0.6,0.6,0.6,left,L,,,,,0,1,1,1,0,59,59,55,,,,,,,,,,,,,,,,,,,,,,,,,,,,,,,,,,,,,,,,,,,,408.873538200045,None,left,1,2.2917140000499785,409.3737711000722,410.62633130000904,409.3737711000722,410.124902700074,409.3737711000722,410.124902700074,409.3737711000722,410.124902700074,409.3737711000722,410.124902700074,409.3737711000722,410.124902700074,410.09156420000363,410.5933925000718,410.09156420000363,410.5933925000718,410.09156420000363,410.5933925000718,410.09156420000363,410.5933925000718,410.09156420000363,410.5933925000718,410.09156420000363,410.5933925000718,410.09156420000363,410.5933925000718,410.09156420000363,410.5933925000718,409.3737711000722,None,410.5933925000718,412.29545139998663,0.7400000000000004,412.31239920004737,None,413.06266860000324,None,,,,,,,[1.69866667],3.190000000000002,0.7333333333333333,12004,001,2024_Jun_13_1329,MFTM_A_new1021,2021.2.3,60.02681996376307,
,,,,,,,,stim/Instruction_adaptive.png,conditions/adaptive.xlsx,test,0.6,0.6,0.6,-0.6,-0.6,right,R,,,,,0,1,1,1,0,60,60,94,,,,,,,,,,,,,,,,,,,,,,,,,,,,,,,,,,,,,,,,,,,,413.5633310000412,None,left,0,2.77626529999543,414.06522510002833,415.29992400004994,414.06522510002833,414.79874080000445,414.06522510002833,414.79874080000445,414.06522510002833,414.79874080000445,414.06522510002833,414.79874080000445,414.06522510002833,414.79874080000445,414.76519310008734,415.265937600052,414.76519310008734,415.265937600052,414.76519310008734,415.265937600052,414.76519310008734,415.265937600052,414.76519310008734,415.265937600052,414.76519310008734,415.265937600052,414.76519310008734,415.265937600052,414.76519310008734,415.265937600052,414.06522510002833,None,415.265937600052,416.96937030006666,0.7200000000000004,416.9846189999953,None,417.73625810001977,None,,,,,,,[1.7],3.0900000000000025,0.7213114754098361,12004,001,2024_Jun_13_1329,MFTM_A_new1021,2021.2.3,60.02681996376307,
,,,,,,,,stim/Instruction_adaptive.png,conditions/adaptive.xlsx,test,0.6,0.6,0.6,-0.6,-0.6,right,R,,,,,0,1,1,1,0,61,61,90,,,,,,,,,,,,,,,,,,,,,,,,,,,,,,,,,,,,,,,,,,,,418.2378420000896,None,left,0,1.7997159999795258,418.7378732000943,420.0243110000156,418.7378732000943,419.5222134999931,418.7378732000943,419.5222134999931,418.7378732000943,419.5222134999931,418.7378732000943,419.5222134999931,418.7378732000943,419.5222134999931,419.489382400061,419.9896753000794,419.489382400061,419.9896753000794,419.489382400061,419.9896753000794,419.489382400061,419.9896753000794,419.489382400061,419.9896753000794,419.489382400061,419.9896753000794,419.489382400061,419.9896753000794,419.489382400061,419.9896753000794,418.7378732000943,None,419.9896753000794,421.6927390000783,0.7700000000000005,421.7090468000388,None,422.4603597000241,None,,,,,,,[1.70048387],2.990000000000002,0.7096774193548387,12004,001,2024_Jun_13_1329,MFTM_A_new1021,2021.2.3,60.02681996376307,
,,,,,,,,stim/Instruction_adaptive.png,conditions/adaptive.xlsx,test,0.6,0.6,0.6,-0.6,-0.6,right,R,,,,,0,1,1,1,0,62,62,74,,,,,,,,,,,,,,,,,,,,,,,,,,,,,,,,,,,,,,,,,,,,422.9608600999927,None,left,0,1.3402171999914572,423.461621100083,424.7973008999834,423.461621100083,424.2961296000285,423.461621100083,424.2961296000285,423.461621100083,424.2961296000285,423.461621100083,424.2961296000285,423.461621100083,424.2961296000285,424.28075909998734,424.78031460009515,424.28075909998734,424.78031460009515,424.28075909998734,424.78031460009515,424.28075909998734,424.78031460009515,424.28075909998734,424.78031460009515,424.28075909998734,424.78031460009515,424.28075909998734,424.78031460009515,424.28075909998734,424.78031460009515,423.461621100083,None,424.78031460009515,426.44956920004915,0.8300000000000005,426.46622010006104,None,427.2179883000208,None,,,,,,,[[1.67]],2.880000000000002,0.6984126984126984,12004,001,2024_Jun_13_1329,MFTM_A_new1021,2021.2.3,60.02681996376307,
,,,,,,,,stim/Instruction_adaptive.png,conditions/adaptive.xlsx,test,0.6,0.6,0.6,-0.6,-0.6,right,R,,,,,0,1,1,1,0,63,63,42,,,,,,,,,,,,,,,,,,,,,,,,,,,,,,,,,,,,,,,,,,,,427.7188517000759,None,left,0,1.4298326999414712,428.2197582999943,429.6217275999952,428.2197582999943,429.1217652000487,428.2197582999943,429.1217652000487,428.2197582999943,429.1217652000487,428.2197582999943,429.1217652000487,428.2197582999943,429.1217652000487,429.0867082000477,429.5881333000725,429.0867082000477,429.5881333000725,429.0867082000477,429.5881333000725,429.0867082000477,429.5881333000725,429.0867082000477,429.5881333000725,429.0867082000477,429.5881333000725,429.0867082000477,429.5881333000725,429.0867082000477,429.5881333000725,428.2197582999943,None,429.5881333000725,431.20652610005345,0.8900000000000006,431.22342560009565,None,431.97451379999984,None,,,,,,,[[1.61]],2.760000000000002,0.6875,12004,001,2024_Jun_13_1329,MFTM_A_new1021,2021.2.3,60.02681996376307,
,,,,,,,,stim/Instruction_adaptive.png,conditions/adaptive.xlsx,test,0.6,0.6,0.6,-0.6,-0.6,right,R,,,,,0,1,1,1,0,64,64,14,,,,,,,,,,,,,,,,,,,,,,,,,,,,,,,,,,,,,,,,,,,,432.4756466000108,None,left,0,1.9377512000501156,432.97611739998683,434.4622495000949,432.97611739998683,433.96095209999476,432.97611739998683,433.96095209999476,432.97611739998683,433.96095209999476,432.97611739998683,433.96095209999476,432.97611739998683,433.96095209999476,433.9277189000277,434.42816220002715,433.9277189000277,434.42816220002715,433.9277189000277,434.42816220002715,433.9277189000277,434.42816220002715,433.9277189000277,434.42816220002715,433.9277189000277,434.42816220002715,433.9277189000277,434.42816220002715,433.9277189000277,434.42816220002715,432.97611739998683,None,434.42816220002715,435.96373519999906,0.9700000000000006,435.9804451999953,None,436.731729799998,None,,,,,,,[[1.53]],2.640000000000002,0.676923076923077,12004,001,2024_Jun_13_1329,MFTM_A_new1021,2021.2.3,60.02681996376307,
,,,,,,,,stim/Instruction_adaptive.png,conditions/adaptive.xlsx,test,-0.6,-0.6,-0.6,0.6,0.6,left,L,,,,,0,1,1,1,0,65,65,29,,,,,,,,,,,,,,,,,,,,,,,,,,,,,,,,,,,,,,,,,,,,437.233035900048,None,right,0,2.44490170001518,437.7332852000836,439.30250740004703,437.7332852000836,438.8013474000618,437.7332852000836,438.8013474000618,437.7332852000836,438.8013474000618,437.7332852000836,438.8013474000618,437.7332852000836,438.8013474000618,438.78460120002273,439.28547120001167,438.78460120002273,439.28547120001167,438.78460120002273,439.28547120001167,438.78460120002273,439.28547120001167,438.78460120002273,439.28547120001167,438.78460120002273,439.28547120001167,438.78460120002273,439.28547120001167,438.78460120002273,439.28547120001167,437.7332852000836,None,439.2696250000736,440.7215399000561,1.0600000000000007,440.7383897000691,None,441.48881360003725,None,,,,,,,[[1.44]],2.5000000000000018,0.6666666666666666,12004,001,2024_Jun_13_1329,MFTM_A_new1021,2021.2.3,60.02681996376307,
,,,,,,,,stim/Instruction_adaptive.png,conditions/adaptive.xlsx,test,0.6,0.6,0.6,-0.6,-0.6,right,R,,,,,0,1,1,1,0,66,66,52,,,,,,,,,,,,,,,,,,,,,,,,,,,,,,,,,,,,,,,,,,,,441.9895993000828,None,right,1,2.663727800012566,442.4902869000798,444.1595260000322,442.4902869000798,443.65926580002997,442.4902869000798,443.65926580002997,442.4902869000798,443.65926580002997,442.4902869000798,443.65926580002997,442.4902869000798,443.65926580002997,443.6423306000652,444.14269750006497,443.6423306000652,444.14269750006497,443.6423306000652,444.14269750006497,443.6423306000652,444.14269750006497,443.6423306000652,444.14269750006497,443.6423306000652,444.14269750006497,443.6423306000652,444.14269750006497,443.6423306000652,444.14269750006497,442.4902869000798,None,444.12597110006027,445.4780937000178,1.1600000000000008,445.4948000999866,None,446.24597150005866,None,,,,,,,[[1.34]],2.5500000000000016,0.6716417910447762,12004,001,2024_Jun_13_1329,MFTM_A_new1021,2021.2.3,60.02681996376307,
,,,,,,,,stim/Instruction_adaptive.png,conditions/adaptive.xlsx,test,0.6,0.6,0.6,-0.6,-0.6,right,R,,,,,0,1,1,1,0,67,67,20,,,,,,,,,,,,,,,,,,,,,,,,,,,,,,,,,,,,,,,,,,,,446.7465421000961,None,left,0,2.467109900084324,447.2473214000929,448.8669221000746,447.2473214000929,448.38245070003904,447.2473214000929,448.38245070003904,447.2473214000929,448.38245070003904,447.2473214000929,448.38245070003904,447.2473214000929,448.38245070003904,448.3491654000245,448.85157350008376,448.3491654000245,448.85157350008376,448.3491654000245,448.85157350008376,448.3491654000245,448.85157350008376,448.3491654000245,448.85157350008376,448.3491654000245,448.85157350008376,448.3491654000245,448.85157350008376,448.3491654000245,448.85157350008376,447.2473214000929,None,448.85157350008376,450.235468900064,1.1200000000000008,450.2520644000033,None,451.0032657000702,None,,,,,,,[[1.38]],2.410000000000002,0.6617647058823529,12004,001,2024_Jun_13_1329,MFTM_A_new1021,2021.2.3,60.02681996376307,
,,,,,,,,stim/Instruction_adaptive.png,conditions/adaptive.xlsx,test,-0.6,-0.6,-0.6,0.6,0.6,left,L,,,,,0,1,1,1,0,68,68,25,,,,,,,,,,,,,,,,,,,,,,,,,,,,,,,,,,,,,,,,,,,,451.5051953000948,None,left,1,1.7971693999134004,452.0054804000538,453.7580769000342,452.0054804000538,453.2565531000728,452.0054804000538,453.2565531000728,452.0054804000538,453.2565531000728,452.0054804000538,453.2565531000728,452.0054804000538,453.2565531000728,453.22316890000366,453.7245959000429,453.22316890000366,453.7245959000429,453.22316890000366,453.7245959000429,453.22316890000366,453.7245959000429,453.22316890000366,453.7245959000429,453.22316890000366,453.7245959000429,453.22316890000366,453.7245959000429,453.22316890000366,453.7245959000429,452.0054804000538,None,453.7245959000429,454.99388750002254,1.2400000000000009,455.0087553000776,None,455.76032150001265,None,,,,,,,[[1.26]],2.4600000000000017,0.6666666666666666,12004,001,2024_Jun_13_1329,MFTM_A_new1021,2021.2.3,60.02681996376307,
,,,,,,,,stim/Instruction_adaptive.png,conditions/adaptive.xlsx,test,-0.6,-0.6,-0.6,0.6,0.6,left,L,,,,,0,1,1,1,0,69,69,5,,,,,,,,,,,,,,,,,,,,,,,,,,,,,,,,,,,,,,,,,,,,456.2619747000281,None,left,1,1.9526318999705836,456.7626403000904,458.46436109999195,456.7626403000904,457.9636084000813,456.7626403000904,457.9636084000813,456.7626403000904,457.9636084000813,456.7626403000904,457.9636084000813,456.7626403000904,457.9636084000813,457.94704840006307,458.4475945000304,457.94704840006307,458.4475945000304,457.94704840006307,458.4475945000304,457.94704840006307,458.4475945000304,457.94704840006307,458.4475945000304,457.94704840006307,458.4475945000304,457.94704840006307,458.4475945000304,457.94704840006307,458.4475945000304,456.7626403000904,None,458.4475945000304,459.7497061000904,1.2000000000000008,459.7671390000032,None,460.5175204999978,None,,,,,,,[[1.3]],2.5100000000000016,0.6714285714285714,12004,001,2024_Jun_13_1329,MFTM_A_new1021,2021.2.3,60.02681996376307,
,,,,,,,,stim/Instruction_adaptive.png,conditions/adaptive.xlsx,test,0.6,0.6,0.6,-0.6,-0.6,right,R,,,,,0,1,1,1,0,70,70,36,,,,,,,,,,,,,,,,,,,,,,,,,,,,,,,,,,,,,,,,,,,,461.0195884000277,None,right,1,1.139769500005059,461.51899430004414,463.1721797999926,461.51899430004414,462.6708106000442,461.51899430004414,462.6708106000442,461.51899430004414,462.6708106000442,461.51899430004414,462.6708106000442,461.51899430004414,462.6708106000442,462.65400670003146,463.1556280000368,462.65400670003146,463.1556280000368,462.65400670003146,463.1556280000368,462.65400670003146,463.1556280000368,462.65400670003146,463.1556280000368,462.65400670003146,463.1556280000368,462.65400670003146,463.1556280000368,462.65400670003146,463.1556280000368,461.51899430004414,None,463.1556280000368,464.50697540002875,1.1500000000000008,464.52370390004944,None,465.2748836000683,None,,,,,,,[[1.35]],2.5500000000000016,0.676056338028169,12004,001,2024_Jun_13_1329,MFTM_A_new1021,2021.2.3,60.02681996376307,
,,,,,,,,stim/Instruction_adaptive.png,conditions/adaptive.xlsx,test,0.6,0.6,0.6,-0.6,-0.6,right,R,,,,,0,1,1,1,0,71,71,96,,,,,,,,,,,,,,,,,,,,,,,,,,,,,,,,,,,,,,,,,,,,465.7767353000818,None,right,1,1.5260398999089375,466.2768933000043,467.8958921000594,466.2768933000043,467.4120061000576,466.2768933000043,467.4120061000576,466.2768933000043,467.4120061000576,466.2768933000043,467.4120061000576,466.2768933000043,467.4120061000576,467.3786928000627,467.8794353000121,467.3786928000627,467.8794353000121,467.3786928000627,467.8794353000121,467.3786928000627,467.8794353000121,467.3786928000627,467.8794353000121,467.3786928000627,467.8794353000121,467.3786928000627,467.8794353000121,467.3786928000627,467.8794353000121,466.2768933000043,None,467.8794353000121,469.26456849998794,1.1200000000000008,469.2807188000297,None,470.0318894000957,None,,,,,,,[[1.38]],2.5900000000000016,0.6805555555555556,12004,001,2024_Jun_13_1329,MFTM_A_new1021,2021.2.3,60.02681996376307,
,,,,,,,,stim/Instruction_adaptive.png,conditions/adaptive.xlsx,test,-0.6,-0.6,-0.6,0.6,0.6,left,L,,,,,0,1,1,1,0,72,72,7,,,,,,,,,,,,,,,,,,,,,,,,,,,,,,,,,,,,,,,,,,,,470.53263150004204,None,left,1,1.4658869999693707,471.03351059998386,472.63578260003123,471.03351059998386,472.13553940004203,471.03351059998386,472.13553940004203,471.03351059998386,472.13553940004203,471.03351059998386,472.13553940004203,471.03351059998386,472.13553940004203,472.1020122000482,472.60357610008214,472.1020122000482,472.60357610008214,472.1020122000482,472.60357610008214,472.1020122000482,472.60357610008214,472.1020122000482,472.60357610008214,472.1020122000482,472.60357610008214,472.1020122000482,472.60357610008214,472.1020122000482,472.60357610008214,471.03351059998386,None,472.60357610008214,474.0220623000059,1.0900000000000007,474.0378068999853,None,474.7901818000246,None,,,,,,,[[1.41]],2.6300000000000017,0.684931506849315,12004,001,2024_Jun_13_1329,MFTM_A_new1021,2021.2.3,60.02681996376307,
,,,,,,,,stim/Instruction_adaptive.png,conditions/adaptive.xlsx,test,0.6,0.6,0.6,-0.6,-0.6,right,R,,,,,0,1,1,1,0,73,73,2,,,,,,,,,,,,,,,,,,,,,,,,,,,,,,,,,,,,,,,,,,,,475.289854700095,None,right,1,1.2605812000110745,475.79067090002354,477.35957410000265,475.79067090002354,476.8587620999897,475.79067090002354,476.8587620999897,475.79067090002354,476.8587620999897,475.79067090002354,476.8587620999897,475.79067090002354,476.8587620999897,476.82565300003625,477.32705219998024,476.82565300003625,477.32705219998024,476.82565300003625,477.32705219998024,476.82565300003625,477.32705219998024,476.82565300003625,477.32705219998024,476.82565300003625,477.32705219998024,476.82565300003625,477.32705219998024,476.82565300003625,477.32705219998024,475.79067090002354,None,477.32705219998024,478.77850350004155,1.0600000000000007,478.7948451000266,None,479.54728649999015,None,,,,,,,[[1.44]],2.6700000000000017,0.6891891891891891,12004,001,2024_Jun_13_1329,MFTM_A_new1021,2021.2.3,60.02681996376307,
,,,,,,,,stim/Instruction_adaptive.png,conditions/adaptive.xlsx,test,-0.6,-0.6,-0.6,0.6,0.6,left,L,,,,,0,1,1,1,0,74,74,57,,,,,,,,,,,,,,,,,,,,,,,,,,,,,,,,,,,,,,,,,,,,480.04790510004386,None,right,0,1.526962700067088,480.54827170004137,482.08324659999926,480.54827170004137,481.58270880009513,480.54827170004137,481.58270880009513,480.54827170004137,481.58270880009513,480.54827170004137,481.58270880009513,480.54827170004137,481.58270880009513,481.5659010000527,482.0665791000938,481.5659010000527,482.0665791000938,481.5659010000527,482.0665791000938,481.5659010000527,482.0665791000938,481.5659010000527,482.0665791000938,481.5659010000527,482.0665791000938,481.5659010000527,482.0665791000938,481.5659010000527,482.0665791000938,480.54827170004137,None,482.0665791000938,483.5363567000022,1.0300000000000007,483.5530857000267,None,484.3044063000707,None,,,,,,,[[1.47]],2.560000000000002,0.68,12004,001,2024_Jun_13_1329,MFTM_A_new1021,2021.2.3,60.02681996376307,
,,,,,,,,stim/Instruction_adaptive.png,conditions/adaptive.xlsx,test,-0.6,-0.6,-0.6,0.6,0.6,left,L,,,,,0,1,1,1,0,75,75,77,,,,,,,,,,,,,,,,,,,,,,,,,,,,,,,,,,,,,,,,,,,,484.8038968000328,None,right,0,2.7863725000061095,485.304887700011,486.92392760002986,485.304887700011,486.4399048000341,485.304887700011,486.4399048000341,485.304887700011,486.4399048000341,485.304887700011,486.4399048000341,485.304887700011,486.4399048000341,486.40653370006476,486.9072581999935,486.40653370006476,486.9072581999935,486.40653370006476,486.9072581999935,486.40653370006476,486.9072581999935,486.40653370006476,486.9072581999935,486.40653370006476,486.9072581999935,486.40653370006476,486.9072581999935,486.40653370006476,486.9072581999935,485.304887700011,None,486.9072581999935,488.2935214000754,1.1200000000000008,488.30937810009345,None,489.06043700000737,None,,,,,,,[[1.38]],2.4400000000000017,0.6710526315789473,12004,001,2024_Jun_13_1329,MFTM_A_new1021,2021.2.3,60.02681996376307,
,,,,,,,,stim/Instruction_adaptive.png,conditions/adaptive.xlsx,test,0.6,0.6,0.6,-0.6,-0.6,right,R,,,,,0,1,1,1,0,76,76,38,,,,,,,,,,,,,,,,,,,,,,,,,,,,,,,,,,,,,,,,,,,,489.5620444000233,None,right,1,1.652304199989885,490.06291670002975,491.7821542000165,490.06291670002975,491.2804914000444,490.06291670002975,491.2804914000444,490.06291670002975,491.2804914000444,490.06291670002975,491.2804914000444,490.06291670002975,491.2804914000444,491.26385520002805,491.7666327999905,491.26385520002805,491.7666327999905,491.26385520002805,491.7666327999905,491.26385520002805,491.7666327999905,491.26385520002805,491.7666327999905,491.26385520002805,491.7666327999905,491.26385520002805,491.7666327999905,491.26385520002805,491.7666327999905,490.06291670002975,None,491.7480704000918,493.0503932000138,1.2100000000000009,493.0668507000664,None,493.8184478000039,None,,,,,,,[[1.29]],2.4800000000000018,0.6753246753246753,12004,001,2024_Jun_13_1329,MFTM_A_new1021,2021.2.3,60.02681996376307,
,,,,,,,,stim/Instruction_adaptive.png,conditions/adaptive.xlsx,test,-0.6,-0.6,-0.6,0.6,0.6,left,L,,,,,0,1,1,1,0,77,77,61,,,,,,,,,,,,,,,,,,,,,,,,,,,,,,,,,,,,,,,,,,,,494.31934290006757,None,left,1,1.263701400021091,494.8199120000936,496.50515450001694,494.8199120000936,496.0042289000703,494.8199120000936,496.0042289000703,494.8199120000936,496.0042289000703,494.8199120000936,496.0042289000703,494.8199120000936,496.0042289000703,495.98776240006555,496.4883495999966,495.98776240006555,496.4883495999966,495.98776240006555,496.4883495999966,495.98776240006555,496.4883495999966,495.98776240006555,496.4883495999966,495.98776240006555,496.4883495999966,495.98776240006555,496.4883495999966,495.98776240006555,496.4883495999966,494.8199120000936,None,496.4883495999966,497.80698540003505,1.1800000000000008,497.8237346999813,None,498.57556070003193,None,,,,,,,[[1.32]],2.520000000000002,0.6794871794871795,12004,001,2024_Jun_13_1329,MFTM_A_new1021,2021.2.3,60.02681996376307,
,,,,,,,,stim/Instruction_adaptive.png,conditions/adaptive.xlsx,test,0.6,0.6,0.6,-0.6,-0.6,right,R,,,,,0,1,1,1,0,78,78,82,,,,,,,,,,,,,,,,,,,,,,,,,,,,,,,,,,,,,,,,,,,,499.0762229000684,None,right,1,1.6511549999704584,499.57695700007025,501.2288939000573,499.57695700007025,500.72874600009527,499.57695700007025,500.72874600009527,499.57695700007025,500.72874600009527,499.57695700007025,500.72874600009527,499.57695700007025,500.72874600009527,500.7121197000379,501.21287889999803,500.7121197000379,501.21287889999803,500.7121197000379,501.21287889999803,500.7121197000379,501.21287889999803,500.7121197000379,501.21287889999803,500.7121197000379,501.21287889999803,500.7121197000379,501.21287889999803,500.7121197000379,501.21287889999803,499.57695700007025,None,501.21287889999803,502.5641364000039,1.1500000000000008,502.5809906000504,None,503.3321562000783,None,,,,,,,[[1.35]],2.560000000000002,0.6835443037974683,12004,001,2024_Jun_13_1329,MFTM_A_new1021,2021.2.3,60.02681996376307,
,,,,,,,,stim/Instruction_adaptive.png,conditions/adaptive.xlsx,test,-0.6,-0.6,-0.6,0.6,0.6,left,L,,,,,0,1,1,1,0,79,79,83,,,,,,,,,,,,,,,,,,,,,,,,,,,,,,,,,,,,,,,,,,,,503.83328960009385,None,left,1,1.6382112000137568,504.33344220009167,505.9534810000332,504.33344220009167,505.4694679999957,504.33344220009167,505.4694679999957,504.33344220009167,505.4694679999957,504.33344220009167,505.4694679999957,504.33344220009167,505.4694679999957,505.4354029999813,505.93591600004584,505.4354029999813,505.93591600004584,505.4354029999813,505.93591600004584,505.4354029999813,505.93591600004584,505.4354029999813,505.93591600004584,505.4354029999813,505.93591600004584,505.4354029999813,505.93591600004584,505.4354029999813,505.93591600004584,504.33344220009167,None,505.93591600004584,507.32230380002875,1.1200000000000008,507.3382058000425,None,508.0895553000737,None,,,,,,,[[1.38]],2.5900000000000016,0.6875,12004,001,2024_Jun_13_1329,MFTM_A_new1021,2021.2.3,60.02681996376307,
,,,,,,,,stim/Instruction_adaptive.png,conditions/adaptive.xlsx,test,0.6,0.6,0.6,-0.6,-0.6,right,R,,,,,0,1,1,1,0,80,80,10,,,,,,,,,,,,,,,,,,,,,,,,,,,,,,,,,,,,,,,,,,,,508.5903257000027,None,left,0,1.9848865999374539,509.0914378000889,510.69306820002384,509.0914378000889,510.19256060000043,509.0914378000889,510.19256060000043,509.0914378000889,510.19256060000043,509.0914378000889,510.19256060000043,509.0914378000889,510.19256060000043,510.1600367000792,510.6609611000167,510.1600367000792,510.6609611000167,510.1600367000792,510.6609611000167,510.1600367000792,510.6609611000167,510.1600367000792,510.6609611000167,510.1600367000792,510.6609611000167,510.1600367000792,510.6609611000167,510.1600367000792,510.6609611000167,509.0914378000889,None,510.6609611000167,512.0789330999833,1.0900000000000007,512.0946728000417,None,512.8468758000527,None,,,,,,,[[1.41]],2.490000000000002,0.6790123456790124,12004,001,2024_Jun_13_1329,MFTM_A_new1021,2021.2.3,60.02681996376307,
,,,,,,,,stim/Instruction_adaptive.png,conditions/adaptive.xlsx,test,0.6,0.6,0.6,-0.6,-0.6,right,R,,,,,0,1,1,1,0,81,81,12,,,,,,,,,,,,,,,,,,,,,,,,,,,,,,,,,,,,,,,,,,,,513.347238700022,None,right,1,1.8281254000030458,513.8480448999908,515.5179620999843,513.8480448999908,515.0333366000559,513.8480448999908,515.0333366000559,513.8480448999908,515.0333366000559,513.8480448999908,515.0333366000559,513.8480448999908,515.0333366000559,514.9995626000455,515.50068190007,514.9995626000455,515.50068190007,514.9995626000455,515.50068190007,514.9995626000455,515.50068190007,514.9995626000455,515.50068190007,514.9995626000455,515.50068190007,514.9995626000455,515.50068190007,514.9995626000455,515.50068190007,513.8480448999908,None,515.50068190007,516.8356783000054,1.1700000000000008,516.8525800000643,None,517.6036181000527,None,,,,,,,[[1.33]],2.530000000000002,0.6829268292682927,12004,001,2024_Jun_13_1329,MFTM_A_new1021,2021.2.3,60.02681996376307,
,,,,,,,,stim/Instruction_adaptive.png,conditions/adaptive.xlsx,test,-0.6,-0.6,-0.6,0.6,0.6,left,L,,,,,0,1,1,1,0,82,82,37,,,,,,,,,,,,,,,,,,,,,,,,,,,,,,,,,,,,,,,,,,,,518.1043267000932,None,left,1,2.1424820999382064,518.6060294000199,520.2576661000494,518.6060294000199,519.7568689000327,518.6060294000199,519.7568689000327,518.6060294000199,519.7568689000327,518.6060294000199,519.7568689000327,518.6060294000199,519.7568689000327,519.724601300084,520.224934100057,519.724601300084,520.224934100057,519.724601300084,520.224934100057,519.724601300084,520.224934100057,519.724601300084,520.224934100057,519.724601300084,520.224934100057,519.724601300084,520.224934100057,519.724601300084,520.224934100057,518.6060294000199,None,520.224934100057,521.5931605000515,1.1400000000000008,521.6097855999833,None,522.3608248999808,None,,,,,,,[[1.36]],2.560000000000002,0.6867469879518072,12004,001,2024_Jun_13_1329,MFTM_A_new1021,2021.2.3,60.02681996376307,
,,,,,,,,stim/Instruction_adaptive.png,conditions/adaptive.xlsx,test,-0.6,-0.6,-0.6,0.6,0.6,left,L,,,,,0,1,1,1,0,83,83,79,,,,,,,,,,,,,,,,,,,,,,,,,,,,,,,,,,,,,,,,,,,,522.8615673000459,None,left,1,1.9226275999099016,523.3621930000372,524.981872000033,523.3621930000372,524.4984527000925,523.3621930000372,524.4984527000925,523.3621930000372,524.4984527000925,523.3621930000372,524.4984527000925,523.3621930000372,524.4984527000925,524.4639071000274,524.965311100008,524.4639071000274,524.965311100008,524.4639071000274,524.965311100008,524.4639071000274,524.965311100008,524.4639071000274,524.965311100008,524.4639071000274,524.965311100008,524.4639071000274,524.965311100008,524.4639071000274,524.965311100008,523.3621930000372,None,524.965311100008,526.3500141000841,1.1200000000000008,526.3667889999924,None,527.1180081000784,None,,,,,,,[[1.38]],2.600000000000002,0.6904761904761905,12004,001,2024_Jun_13_1329,MFTM_A_new1021,2021.2.3,60.02681996376307,
,,,,,,,,stim/Instruction_adaptive.png,conditions/adaptive.xlsx,test,0.6,0.6,0.6,-0.6,-0.6,right,R,,,,,0,1,1,1,0,84,84,48,,,,,,,,,,,,,,,,,,,,,,,,,,,,,,,,,,,,,,,,,,,,527.6188070999924,None,right,1,1.8862901999382302,528.1194225000218,529.7231482000789,528.1194225000218,529.2209838000126,528.1194225000218,529.2209838000126,528.1194225000218,529.2209838000126,528.1194225000218,529.2209838000126,528.1194225000218,529.2209838000126,529.1878531000111,529.6884558000602,529.1878531000111,529.6884558000602,529.1878531000111,529.6884558000602,529.1878531000111,529.6884558000602,529.1878531000111,529.6884558000602,529.1878531000111,529.6884558000602,529.1878531000111,529.6884558000602,529.1878531000111,529.6884558000602,528.1194225000218,None,529.6884558000602,531.1074477999937,1.0900000000000007,531.1246694000438,None,531.8758281000191,None,,,,,,,[[1.41]],2.6300000000000017,0.6941176470588235,12004,001,2024_Jun_13_1329,MFTM_A_new1021,2021.2.3,60.02681996376307,
,,,,,,,,stim/Instruction_adaptive.png,conditions/adaptive.xlsx,test,0.6,0.6,0.6,-0.6,-0.6,right,R,,,,,0,1,1,1,0,85,85,80,,,,,,,,,,,,,,,,,,,,,,,,,,,,,,,,,,,,,,,,,,,,532.375998100033,None,right,1,1.1361678999383003,532.876633200096,534.4458320999984,532.876633200096,533.9460164000047,532.876633200096,533.9460164000047,532.876633200096,533.9460164000047,532.876633200096,533.9460164000047,532.876633200096,533.9460164000047,533.9282433000626,534.4295926000923,533.9282433000626,534.4295926000923,533.9282433000626,534.4295926000923,533.9282433000626,534.4295926000923,533.9282433000626,534.4295926000923,533.9282433000626,534.4295926000923,533.9282433000626,534.4295926000923,533.9282433000626,534.4295926000923,532.876633200096,None,534.4134671000065,535.8658078000881,1.0600000000000007,535.8811839000555,None,536.6322648000205,None,,,,,,,[[1.44]],2.660000000000002,0.6976744186046512,12004,001,2024_Jun_13_1329,MFTM_A_new1021,2021.2.3,60.02681996376307,
,,,,,,,,stim/Instruction_adaptive.png,conditions/adaptive.xlsx,test,0.6,0.6,0.6,-0.6,-0.6,right,R,,,,,0,1,1,1,0,86,86,84,,,,,,,,,,,,,,,,,,,,,,,,,,,,,,,,,,,,,,,,,,,,537.1342294000788,None,right,1,2.2674450000049546,537.6337775000138,539.1874535999959,537.6337775000138,538.685330200009,537.6337775000138,538.685330200009,537.6337775000138,538.685330200009,537.6337775000138,538.685330200009,537.6337775000138,538.685330200009,538.6519274000311,539.1537071000785,538.6519274000311,539.1537071000785,538.6519274000311,539.1537071000785,538.6519274000311,539.1537071000785,538.6519274000311,539.1537071000785,538.6519274000311,539.1537071000785,538.6519274000311,539.1537071000785,538.6519274000311,539.1537071000785,537.6337775000138,None,539.1537071000785,540.6217146000126,1.0400000000000007,540.6382761000423,None,541.3897867000196,None,,,,,,,[[1.46]],2.690000000000002,0.7011494252873564,12004,001,2024_Jun_13_1329,MFTM_A_new1021,2021.2.3,60.02681996376307,
,,,,,,,,stim/Instruction_adaptive.png,conditions/adaptive.xlsx,test,-0.6,-0.6,-0.6,0.6,0.6,left,L,,,,,0,1,1,1,0,87,87,31,,,,,,,,,,,,,,,,,,,,,,,,,,,,,,,,,,,,,,,,,,,,541.8910421000328,None,left,1,1.3897928000660613,542.39103910001,543.9275501000229,542.39103910001,543.4257804000517,542.39103910001,543.4257804000517,542.39103910001,543.4257804000517,542.39103910001,543.4257804000517,542.39103910001,543.4257804000517,543.3923087000148,543.8931003999896,543.3923087000148,543.8931003999896,543.3923087000148,543.8931003999896,543.3923087000148,543.8931003999896,543.3923087000148,543.8931003999896,543.3923087000148,543.8931003999896,543.3923087000148,543.8931003999896,543.3923087000148,543.8931003999896,542.39103910001,None,543.8931003999896,545.3788540000096,1.0200000000000007,545.3967512000818,None,546.1476781000383,None,,,,,,,[[1.48]],2.720000000000002,0.7045454545454546,12004,001,2024_Jun_13_1329,MFTM_A_new1021,2021.2.3,60.02681996376307,
,,,,,,,,stim/Instruction_adaptive.png,conditions/adaptive.xlsx,test,-0.6,-0.6,-0.6,0.6,0.6,left,L,,,,,0,1,1,1,0,88,88,13,,,,,,,,,,,,,,,,,,,,,,,,,,,,,,,,,,,,,,,,,,,,546.6472206000471,None,left,1,1.8808053999673575,547.147954300046,548.6506117000245,547.147954300046,548.1508473000722,547.147954300046,548.1508473000722,547.147954300046,548.1508473000722,547.147954300046,548.1508473000722,547.147954300046,548.1508473000722,548.1330563999945,548.6338178000879,548.1330563999945,548.6338178000879,548.1330563999945,548.6338178000879,548.1330563999945,548.6338178000879,548.1330563999945,548.6338178000879,548.1330563999945,548.6338178000879,548.1330563999945,548.6338178000879,548.1330563999945,548.6338178000879,547.147954300046,None,548.6338178000879,550.1359372000443,1.0000000000000007,550.1527203000151,None,550.9048641000409,None,,,,,,,[[1.5]],2.740000000000002,0.7078651685393258,12004,001,2024_Jun_13_1329,MFTM_A_new1021,2021.2.3,60.02681996376307,
,,,,,,,,stim/Instruction_adaptive.png,conditions/adaptive.xlsx,test,-0.6,-0.6,-0.6,0.6,0.6,left,L,,,,,0,1,1,1,0,89,89,33,,,,,,,,,,,,,,,,,,,,,,,,,,,,,,,,,,,,,,,,,,,,551.4054055000888,None,left,1,1.0754363000160083,551.9058378000045,553.3920137999812,551.9058378000045,552.8900773000205,551.9058378000045,552.8900773000205,551.9058378000045,552.8900773000205,551.9058378000045,552.8900773000205,551.9058378000045,552.8900773000205,552.8733108000597,553.3755987000186,552.8733108000597,553.3755987000186,552.8733108000597,553.3755987000186,552.8733108000597,553.3755987000186,552.8733108000597,553.3755987000186,552.8733108000597,553.3755987000186,552.8733108000597,553.3755987000186,552.8733108000597,553.3755987000186,551.9058378000045,None,553.3755987000186,None,0.9800000000000006,554.9113218000857,None,555.6619955000933,None,,,,,,,[[1.52]],2.7700000000000022,0.7111111111111111,12004,001,2024_Jun_13_1329,MFTM_A_new1021,2021.2.3,60.02681996376307,
,,,,,,,,stim/Instruction_adaptive.png,conditions/adaptive.xlsx,test,0.6,0.6,0.6,-0.6,-0.6,right,R,,,,,0,1,1,1,0,90,90,86,,,,,,,,,,,,,,,,,,,,,,,,,,,,,,,,,,,,,,,,,,,,556.1620219000615,None,right,1,2.398696199990809,556.6626921000425,558.1321566000115,556.6626921000425,557.6306249999907,556.6626921000425,557.6306249999907,556.6626921000425,557.6306249999907,556.6626921000425,557.6306249999907,556.6626921000425,557.6306249999907,557.613975699991,558.1146999000339,557.613975699991,558.1146999000339,557.613975699991,558.1146999000339,557.613975699991,558.1146999000339,557.613975699991,558.1146999000339,557.613975699991,558.1146999000339,557.613975699991,558.1146999000339,557.613975699991,558.1146999000339,556.6626921000425,None,558.1146999000339,None,0.9600000000000006,559.6669046999887,None,560.4189345000777,None,,,,,,,[[1.54]],2.790000000000002,0.7142857142857143,12004,001,2024_Jun_13_1329,MFTM_A_new1021,2021.2.3,60.02681996376307,
,,,,,,,,stim/Instruction_adaptive.png,conditions/adaptive.xlsx,test,-0.6,-0.6,-0.6,0.6,0.6,left,L,,,,,0,1,1,1,0,91,91,73,,,,,,,,,,,,,,,,,,,,,,,,,,,,,,,,,,,,,,,,,,,,560.9197951999959,None,left,1,1.4579508999595419,561.4202267000219,562.8717872999841,561.4202267000219,562.3723408000078,561.4202267000219,562.3723408000078,561.4202267000219,562.3723408000078,561.4202267000219,562.3723408000078,561.4202267000219,562.3723408000078,562.3544108000351,562.8550442000851,562.3544108000351,562.8550442000851,562.3544108000351,562.8550442000851,562.3544108000351,562.8550442000851,562.3544108000351,562.8550442000851,562.3544108000351,562.8550442000851,562.3544108000351,562.8550442000851,562.3544108000351,562.8550442000851,561.4202267000219,None,562.8550442000851,564.4082081000088,0.9500000000000006,564.4242632000241,None,565.1751888000872,None,,,,,,,[[1.55]],2.820000000000002,0.717391304347826,12004,001,2024_Jun_13_1329,MFTM_A_new1021,2021.2.3,60.02681996376307,
,,,,,,,,stim/Instruction_adaptive.png,conditions/adaptive.xlsx,test,-0.6,-0.6,-0.6,0.6,0.6,left,L,,,,,0,1,1,1,0,92,92,89,,,,,,,,,,,,,,,,,,,,,,,,,,,,,,,,,,,,,,,,,,,,565.6760794000002,None,left,1,2.5087314000120386,566.1768705000868,567.612278799992,566.1768705000868,567.1118228000123,566.1768705000868,567.1118228000123,566.1768705000868,567.1118228000123,566.1768705000868,567.1118228000123,566.1768705000868,567.1118228000123,567.0948453000747,567.5957251000218,567.0948453000747,567.5957251000218,567.0948453000747,567.5957251000218,567.0948453000747,567.5957251000218,567.0948453000747,567.5957251000218,567.0948453000747,567.5957251000218,567.0948453000747,567.5957251000218,567.0948453000747,567.5957251000218,566.1768705000868,None,567.5957251000218,569.1657086000778,0.9300000000000006,569.1819980000146,None,569.9330360000022,None,,,,,,,[[1.57]],2.840000000000002,0.7204301075268817,12004,001,2024_Jun_13_1329,MFTM_A_new1021,2021.2.3,60.02681996376307,
,,,,,,,,stim/Instruction_adaptive.png,conditions/adaptive.xlsx,test,-0.6,-0.6,-0.6,0.6,0.6,left,L,,,,,0,1,1,1,0,93,93,3,,,,,,,,,,,,,,,,,,,,,,,,,,,,,,,,,,,,,,,,,,,,570.4333527000854,None,right,0,2.183135399944149,570.9349227000494,572.3706353000598,570.9349227000494,571.8687292999821,570.9349227000494,571.8687292999821,570.9349227000494,571.8687292999821,570.9349227000494,571.8687292999821,570.9349227000494,571.8687292999821,571.8351362000685,572.3369795000181,571.8351362000685,572.3369795000181,571.8351362000685,572.3369795000181,571.8351362000685,572.3369795000181,571.8351362000685,572.3369795000181,571.8351362000685,572.3369795000181,571.8351362000685,572.3369795000181,571.8351362000685,572.3369795000181,570.9349227000494,None,572.3369795000181,573.9219611000735,0.9200000000000006,573.9385350000812,None,574.6898148000473,None,,,,,,,[[1.58]],2.7700000000000022,0.7127659574468085,12004,001,2024_Jun_13_1329,MFTM_A_new1021,2021.2.3,60.02681996376307,
