arrwidth1,arrwidth2,arrwidth3,arrwidth4,arrwidth5,keyb,type,orientation,instruction_image,block_filename,block_type,arrow11,arrow22,arrow33,arrow44,arrow55,keyb_3,orientation3,trials.thisRepN,trials.thisTrialN,trials.thisN,trials.thisIndex,trials_3.thisRepN,trials_3.thisTrialN,trials_3.thisN,trials_3.thisIndex,trials_2.thisRepN,trials_2.thisTrialN,trials_2.thisN,trials_2.thisIndex,welcome.started,key_resp.started,key_resp.keys,key_resp.rt,instruction_example.started,key_resp_3.started,key_resp_3.keys,key_resp_3.rt,instruction_task.started,key_resp_2.started,key_resp_2.keys,key_resp_2.rt,text_2.started,A1.started,A2.started,A3.started,A4.started,A5.started,key_resp_4.started,key_resp_4.keys,key_resp_4.corr,key_resp_4.rt,fb.started,instruction_block.started,key_resp_8.started,key_resp_8.keys,key_resp_8.rt,text_8.started,text_5.started,A11_3.started,A22_2.started,A33_2.started,A44_2.started,A55_2.started,key_resp_9.started,key_resp_9.keys,key_resp_9.corr,key_resp_9.rt,M1_3.started,M2_2.started,M3_2.started,M4_2.started,M5_2.started,M6_2.started,M7_2.started,M8_2.started,A11_3.stopped,A22_2.stopped,A33_2.stopped,A44_2.stopped,A55_2.stopped,M1_3.stopped,M2_2.stopped,M3_2.stopped,M4_2.stopped,M5_2.stopped,M6_2.stopped,M7_2.stopped,M8_2.stopped,fixation.started,fixation.stopped,text_5.stopped,key_resp_9.stopped,ET,fb_3.started,fb_3.stopped,text_9.started,text_9.stopped,text_8.stopped,fb_4.started,text_7.started,text_7.stopped,endtext.started,fb_4.stopped,endtext.stopped,fixation_ITI,CCC,Acc,participant,session,date,expName,psychopyVersion,frameRate,
,,,,,,,,,,,,,,,,,,,,,,,,,,,,,,22.21878860000288,22.21878860000288,space,2.66560949999257,,,,,,,,,,,,,,,,,,,,,,,,,,,,,,,,,,,,,,,,,,,,,,,,,,,,,,,,,,,,,,,,,,,,,,,,,,,12007,001,2024-06-14_17h02.22.255,MFTM_A_new1021,2022.2.4,None,
,,,,,,,,,,,,,,,,,,,,,,,,,,,,,,,,,,24.906556500005536,24.906556500005536,right,15.149617100003525,,,,,,,,,,,,,,,,,,,,,,,,,,,,,,,,,,,,,,,,,,,,,,,,,,,,,,,,,,,,,,,,,,,,,,,12007,001,2024-06-14_17h02.22.255,MFTM_A_new1021,2022.2.4,None,
,,,,,,,,,,,,,,,,,,,,,,,,,,,,,,,,,,,,,,40.082331700003124,40.082331700003124,space,1.2315532000066014,,,,,,,,,,,,,,,,,,,,,,,,,,,,,,,,,,,,,,,,,,,,,,,,,,,,,,,,,,,,,,,,,,,12007,001,2024-06-14_17h02.22.255,MFTM_A_new1021,2022.2.4,None,
-0.6,-0.6,-0.6,0.6,0.6,left,3:2,L,,,,,,,,,,,0,0,0,1,,,,,,,,,,,,,,,,,,,,,41.339462400006596,41.339462400006596,41.339462400006596,41.339462400006596,41.339462400006596,41.339462400006596,41.339462400006596,left,1,6.477202499998384,47.83630370000901,,,,,,,,,,,,,,,,,,,,,,,,,,,,,,,,,,,,,,,,,,,,,,,,,,,,,,,,12007,001,2024-06-14_17h02.22.255,MFTM_A_new1021,2022.2.4,None,
0.6,0.6,0.6,-0.6,-0.6,right,3:2,R,,,,,,,,,,,0,1,1,0,,,,,,,,,,,,,,,,,,,,,48.59017209999729,48.59017209999729,48.59017209999729,48.59017209999729,48.59017209999729,48.59017209999729,48.59017209999729,right,1,9.386247800008277,57.9901366999984,,,,,,,,,,,,,,,,,,,,,,,,,,,,,,,,,,,,,,,,,,,,,,,,,,,,,,,,12007,001,2024-06-14_17h02.22.255,MFTM_A_new1021,2022.2.4,None,
-0.6,-0.6,-0.6,0.6,0.6,left,3:2,L,,,,,,,,,,,1,0,2,1,,,,,,,,,,,,,,,,,,,,,58.744959200004814,58.744959200004814,58.744959200004814,58.744959200004814,58.744959200004814,58.744959200004814,58.744959200004814,left,1,2.0880337999988114,60.84706670000742,,,,,,,,,,,,,,,,,,,,,,,,,,,,,,,,,,,,,,,,,,,,,,,,,,,,,,,,12007,001,2024-06-14_17h02.22.255,MFTM_A_new1021,2022.2.4,None,
0.6,0.6,0.6,-0.6,-0.6,right,3:2,R,,,,,,,,,,,1,1,3,0,,,,,,,,,,,,,,,,,,,,,61.600373100009165,61.600373100009165,61.600373100009165,61.600373100009165,61.600373100009165,61.600373100009165,61.600373100009165,right,1,2.871872500007157,64.50078879999637,,,,,,,,,,,,,,,,,,,,,,,,,,,,,,,,,,,,,,,,,,,,,,,,,,,,,,,,12007,001,2024-06-14_17h02.22.255,MFTM_A_new1021,2022.2.4,None,
,,,,,,,,stim/Instruction_mask.png,conditions/adaptive.xlsx,practice,0.6,0.6,0.6,-0.6,-0.6,right,R,,,,,0,0,0,0,0,0,0,34,,,,,,,,,,,,,,,,,,,,,,,,65.37777089999872,65.37777089999872,space,21.42098039999837,86.83094220000203,87.3227448999969,87.3227448999969,87.3227448999969,87.3227448999969,87.3227448999969,87.3227448999969,87.3227448999969,right,1,2.0546463999926345,90.30386260000523,90.30386260000523,90.30386260000523,90.30386260000523,90.30386260000523,90.30386260000523,90.30386260000523,90.30386260000523,90.32295470000827,90.32295470000827,90.32295470000827,90.32295470000827,90.32295470000827,90.80122069999925,90.80122069999925,90.80122069999925,90.80122069999925,90.80122069999925,90.80122069999925,90.80122069999925,90.80122069999925,90.80122069999925,90.80122069999925,90.82334750000155,90.82334750000155,3,90.82334750000155,91.56777160000638,91.56777160000638,92.06532599999628,,,,,,,,,,,12007,001,2024-06-14_17h02.22.255,MFTM_A_new1021,2022.2.4,None,
,,,,,,,,stim/Instruction_mask.png,conditions/adaptive.xlsx,practice,-0.6,-0.6,-0.6,0.6,0.6,left,L,,,,,0,0,0,0,0,1,1,57,,,,,,,,,,,,,,,,,,,,,,,,,,,,92.06532599999628,92.57872590000625,92.57872590000625,92.57872590000625,92.57872590000625,92.57872590000625,92.57872590000625,92.57872590000625,left,1,2.709334300001501,94.05735230000573,94.05735230000573,94.05735230000573,94.05735230000573,94.05735230000573,94.05735230000573,94.05735230000573,94.05735230000573,94.07870070000354,94.07870070000354,94.07870070000354,94.07870070000354,94.07870070000354,94.55635830000392,94.55635830000392,94.55635830000392,94.55635830000392,94.55635830000392,94.55635830000392,94.55635830000392,94.55635830000392,94.55635830000392,96.05661220000184,94.5788484000077,96.07912310000393,1.5,96.07912310000393,96.8227862000058,96.8227862000058,97.32320800000161,92.57872590000625,,,,,,,,,,12007,001,2024-06-14_17h02.22.255,MFTM_A_new1021,2022.2.4,None,
,,,,,,,,stim/Instruction_mask.png,conditions/adaptive.xlsx,practice,-0.6,-0.6,-0.6,0.6,0.6,left,L,,,,,0,0,0,0,0,2,2,73,,,,,,,,,,,,,,,,,,,,,,,,,,,,97.32320800000161,97.83086440000625,97.83086440000625,97.83086440000625,97.83086440000625,97.83086440000625,97.83086440000625,97.83086440000625,left,1,3.465522800004692,98.62591390000307,98.62591390000307,98.62591390000307,98.62591390000307,98.62591390000307,98.62591390000307,98.62591390000307,98.62591390000307,98.63472329999786,98.63472329999786,98.63472329999786,98.63472329999786,98.63472329999786,99.12144970000372,99.12144970000372,99.12144970000372,99.12144970000372,99.12144970000372,99.12144970000372,99.12144970000372,99.12144970000372,99.1123246000061,101.31249500000558,99.1342439,101.33487449999666,0.8,101.33487449999666,102.07884430000558,102.07884430000558,102.57873439999821,97.83086440000625,,,,,,,,,,12007,001,2024-06-14_17h02.22.255,MFTM_A_new1021,2022.2.4,None,
,,,,,,,,stim/Instruction_mask.png,conditions/adaptive.xlsx,practice,0.6,0.6,0.6,-0.6,-0.6,right,R,,,,,0,0,0,0,0,3,3,96,,,,,,,,,,,,,,,,,,,,,,,,,,,,102.57873439999821,103.08135970000876,103.08135970000876,103.08135970000876,103.08135970000876,103.08135970000876,103.08135970000876,103.08135970000876,left,0,2.470225400000345,103.32113409999874,103.32113409999874,103.32113409999874,103.32113409999874,103.32113409999874,103.32113409999874,103.32113409999874,103.32113409999874,103.33241620000626,103.33241620000626,103.33241620000626,103.33241620000626,103.33241620000626,103.82128470001044,103.82128470001044,103.82128470001044,103.82128470001044,103.82128470001044,103.82128470001044,103.82128470001044,103.82128470001044,103.82128470001044,106.56822749999992,103.83426770000369,106.58117930000299,3,106.58117930000299,,107.33428439999989,,103.08135970000876,,,,,,,,,,12007,001,2024-06-14_17h02.22.255,MFTM_A_new1021,2022.2.4,None,
,,,,,,,,stim/Instruction_mask.png,conditions/adaptive.xlsx,practice,,,,,,,,,,,,0,0,0,0,,,,,,,,,,,,,,,,,,,,,,,,,,,,,,,,,,,,,,,,,,,,,,,,,,,,,,,,,,,,,,,,,,,,,,,,,,107.84558570000809,108.82286070000555,108.82286070000555,108.82286070000555,108.84295820000989,111.96170310000889,,,,12007,001,2024-06-14_17h02.22.255,MFTM_A_new1021,2022.2.4,None,
,,,,,,,,stim/Instruction_adaptive.png,conditions/adaptive.xlsx,test,-0.6,-0.6,-0.6,0.6,0.6,left,L,,,,,0,1,1,1,0,0,0,63,,,,,,,,,,,,,,,,,,,,,,,,111.96170310000889,111.96170310000889,space,16.82601610000711,128.82008370000403,129.31183859999874,129.31183859999874,129.31183859999874,129.31183859999874,129.31183859999874,129.31183859999874,129.31183859999874,left,1,2.809139500008314,132.2896122000093,132.2896122000093,132.2896122000093,132.2896122000093,132.2896122000093,132.2896122000093,132.2896122000093,132.2896122000093,132.3100204000075,132.3100204000075,132.3100204000075,132.3100204000075,132.3100204000075,132.78953609999735,132.78953609999735,132.78953609999735,132.78953609999735,132.78953609999735,132.78953609999735,132.78953609999735,132.78953609999735,132.78953609999735,132.78953609999735,132.8116832000087,132.8116832000087,3,132.8116832000087,133.5559796000016,133.5559796000016,134.0569075000094,,,,,,,,0,6.000000000000005,1.0,12007,001,2024-06-14_17h02.22.255,MFTM_A_new1021,2022.2.4,None,
,,,,,,,,stim/Instruction_adaptive.png,conditions/adaptive.xlsx,test,0.6,0.6,0.6,-0.6,-0.6,right,R,,,,,0,1,1,1,0,1,1,96,,,,,,,,,,,,,,,,,,,,,,,,,,,,134.0569075000094,134.55760030000238,134.55760030000238,134.55760030000238,134.55760030000238,134.55760030000238,134.55760030000238,134.55760030000238,left,0,2.2583267000009073,134.79983590000484,134.79983590000484,134.79983590000484,134.79983590000484,134.79983590000484,134.79983590000484,134.79983590000484,134.79983590000484,134.81220870000834,134.81220870000834,134.81220870000834,134.81220870000834,134.81220870000834,135.29894200000854,135.29894200000854,135.29894200000854,135.29894200000854,135.29894200000854,135.29894200000854,135.29894200000854,135.29894200000854,135.29894200000854,136.83255310000095,135.31205490000139,136.84736369999882,0.25,136.84736369999882,,137.59910610000952,,134.55760030000238,,,,,,,[0.875],2.570000000000002,0.5,12007,001,2024-06-14_17h02.22.255,MFTM_A_new1021,2022.2.4,None,
,,,,,,,,stim/Instruction_adaptive.png,conditions/adaptive.xlsx,test,-0.6,-0.6,-0.6,0.6,0.6,left,L,,,,,0,1,1,1,0,2,2,7,,,,,,,,,,,,,,,,,,,,,,,,,,,,138.09897710000223,138.61228729999857,138.61228729999857,138.61228729999857,138.61228729999857,138.61228729999857,138.61228729999857,138.61228729999857,left,1,2.3480179000034695,139.68706090000342,139.68706090000342,139.68706090000342,139.68706090000342,139.68706090000342,139.68706090000342,139.68706090000342,139.68706090000342,139.7210657000105,139.7210657000105,139.7210657000105,139.7210657000105,139.7210657000105,140.18895409999823,140.18895409999823,140.18895409999823,140.18895409999823,140.18895409999823,140.18895409999823,140.18895409999823,140.18895409999823,140.18895409999823,141.23532140000316,140.2213550000015,141.26709429999755,1.1100000000000008,141.26709429999755,142.01237350000883,142.01237350000883,142.51208130001032,,,,,,,,[1.04666667],3.3800000000000026,0.6666666666666666,12007,001,2024-06-14_17h02.22.255,MFTM_A_new1021,2022.2.4,None,
,,,,,,,,stim/Instruction_adaptive.png,conditions/adaptive.xlsx,test,0.6,0.6,0.6,-0.6,-0.6,right,R,,,,,0,1,1,1,0,3,3,80,,,,,,,,,,,,,,,,,,,,,,,,,,,,142.51208130001032,143.01491300000635,143.01491300000635,143.01491300000635,143.01491300000635,143.01491300000635,143.01491300000635,143.01491300000635,left,0,1.3368258999980753,143.634217800005,143.634217800005,143.634217800005,143.634217800005,143.634217800005,143.634217800005,143.634217800005,143.634217800005,143.64580340000975,143.64580340000975,143.64580340000975,143.64580340000975,143.64580340000975,144.13501830000314,144.13501830000314,144.13501830000314,144.13501830000314,144.13501830000314,144.13501830000314,144.13501830000314,144.13501830000314,144.13501830000314,145.38831540000683,144.14453130000038,145.40344380000897,0.6300000000000003,145.40344380000897,,146.15658070000063,,143.01491300000635,,,,,,,[1.2525],2.1700000000000017,0.5,12007,001,2024-06-14_17h02.22.255,MFTM_A_new1021,2022.2.4,None,
,,,,,,,,stim/Instruction_adaptive.png,conditions/adaptive.xlsx,test,0.6,0.6,0.6,-0.6,-0.6,right,R,,,,,0,1,1,1,0,4,4,34,,,,,,,,,,,,,,,,,,,,,,,,,,,,146.65623680000135,147.15601810000953,147.15601810000953,147.15601810000953,147.15601810000953,147.15601810000953,147.15601810000953,147.15601810000953,right,1,1.8851436999975704,148.6039335000096,148.6039335000096,148.6039335000096,148.6039335000096,148.6039335000096,148.6039335000096,148.6039335000096,148.6039335000096,148.6128222999978,148.6128222999978,148.6128222999978,148.6128222999978,148.6128222999978,149.10291600000346,149.10291600000346,149.10291600000346,149.10291600000346,149.10291600000346,149.10291600000346,149.10291600000346,149.10291600000346,149.10291600000346,150.14337920000253,149.11168760000146,150.15882579999743,1.460000000000001,150.15882579999743,,150.91018500000064,,,,,,,,,[[1.04]],2.690000000000002,0.6,12007,001,2024-06-14_17h02.22.255,MFTM_A_new1021,2022.2.4,None,
,,,,,,,,stim/Instruction_adaptive.png,conditions/adaptive.xlsx,test,-0.6,-0.6,-0.6,0.6,0.6,left,L,,,,,0,1,1,1,0,5,5,23,,,,,,,,,,,,,,,,,,,,,,,,,,,,151.40929880000476,151.9097829000093,151.9097829000093,151.9097829000093,151.9097829000093,151.9097829000093,151.9097829000093,151.9097829000093,right,0,3.1148298000043724,152.91210919999867,152.91210919999867,152.91210919999867,152.91210919999867,152.91210919999867,152.91210919999867,152.91210919999867,152.91210919999867,152.9326521000039,152.9326521000039,152.9326521000039,152.9326521000039,152.9326521000039,153.41231500000868,153.41231500000868,153.41231500000868,153.41231500000868,153.41231500000868,153.41231500000868,153.41231500000868,153.41231500000868,153.41231500000868,155.04561770000146,153.42376990000776,155.05887000000803,1.0200000000000007,155.05887000000803,,155.81158460000006,,,,,,,,,[1.255],1.670000000000001,0.5,12007,001,2024-06-14_17h02.22.255,MFTM_A_new1021,2022.2.4,None,
,,,,,,,,stim/Instruction_adaptive.png,conditions/adaptive.xlsx,test,0.6,0.6,0.6,-0.6,-0.6,right,R,,,,,0,1,1,1,0,6,6,92,,,,,,,,,,,,,,,,,,,,,,,,,,,,156.3126365000062,156.81087080000725,156.81087080000725,156.81087080000725,156.81087080000725,156.81087080000725,156.81087080000725,156.81087080000725,left,0,2.909642200000235,158.86481040000217,158.86481040000217,158.86481040000217,158.86481040000217,158.86481040000217,158.86481040000217,158.86481040000217,158.86481040000217,158.87752989999717,158.87752989999717,158.87752989999717,158.87752989999717,158.87752989999717,159.36462980000942,159.36462980000942,159.36462980000942,159.36462980000942,159.36462980000942,159.36462980000942,159.36462980000942,159.36462980000942,159.36462980000942,159.78779689999647,159.37699289999728,159.81340340001043,2.0700000000000016,159.81340340001043,,160.56776250000985,,,,,,,,,[[0.43]],0.5,0.42857142857142855,12007,001,2024-06-14_17h02.22.255,MFTM_A_new1021,2022.2.4,None,
,,,,,,,,stim/Instruction_adaptive.png,conditions/adaptive.xlsx,test,0.6,0.6,0.6,-0.6,-0.6,right,R,,,,,0,1,1,1,0,7,7,62,,,,,,,,,,,,,,,,,,,,,,,,,,,,161.0670073000074,161.56779110000934,161.56779110000934,161.56779110000934,161.56779110000934,161.56779110000934,161.56779110000934,161.56779110000934,right,1,2.808943199997884,164.54692649999924,164.54692649999924,164.54692649999924,164.54692649999924,164.54692649999924,164.54692649999924,164.54692649999924,164.54692649999924,164.56759540000348,164.56759540000348,164.56759540000348,164.56759540000348,164.56759540000348,165.04947369999718,165.04947369999718,165.04947369999718,165.04947369999718,165.04947369999718,165.04947369999718,165.04947369999718,165.04947369999718,165.04947369999718,165.04947369999718,165.0815367000032,165.0815367000032,3.0000000000000027,165.0815367000032,,165.83525380000356,,,,,,,,,0,0.8700000000000003,0.5,12007,001,2024-06-14_17h02.22.255,MFTM_A_new1021,2022.2.4,None,
,,,,,,,,stim/Instruction_adaptive.png,conditions/adaptive.xlsx,test,-0.6,-0.6,-0.6,0.6,0.6,left,L,,,,,0,1,1,1,0,8,8,83,,,,,,,,,,,,,,,,,,,,,,,,,,,,166.3344330999971,166.83356510000885,166.83356510000885,166.83356510000885,166.83356510000885,166.83356510000885,166.83356510000885,166.83356510000885,left,1,2.8069845999998506,169.81388090000837,169.81388090000837,169.81388090000837,169.81388090000837,169.81388090000837,169.81388090000837,169.81388090000837,169.81388090000837,169.8361142000067,169.8361142000067,169.8361142000067,169.8361142000067,169.8361142000067,170.30997729999945,170.30997729999945,170.30997729999945,170.30997729999945,170.30997729999945,170.30997729999945,170.30997729999945,170.30997729999945,170.32435920000717,170.32435920000717,170.33857800000987,170.33857800000987,3.0000000000000027,170.33857800000987,,171.08870020000904,,,,,,,,,0,1.3600000000000008,0.5555555555555556,12007,001,2024-06-14_17h02.22.255,MFTM_A_new1021,2022.2.4,None,
,,,,,,,,stim/Instruction_adaptive.png,conditions/adaptive.xlsx,test,0.6,0.6,0.6,-0.6,-0.6,right,R,,,,,0,1,1,1,0,9,9,94,,,,,,,,,,,,,,,,,,,,,,,,,,,,171.58985299999767,172.08934040000895,172.08934040000895,172.08934040000895,172.08934040000895,172.08934040000895,172.08934040000895,172.08934040000895,right,1,2.1110087999986717,174.63272910000524,174.63272910000524,174.63272910000524,174.63272910000524,174.63272910000524,174.63272910000524,174.63272910000524,174.63272910000524,174.64538950000133,174.64538950000133,174.64538950000133,174.64538950000133,174.64538950000133,175.1323165000067,175.1323165000067,175.1323165000067,175.1323165000067,175.1323165000067,175.1323165000067,175.1323165000067,175.1323165000067,175.1323165000067,175.1323165000067,175.14528730000893,175.14528730000893,2.5600000000000023,175.14528730000893,175.88941909999994,175.88941909999994,176.39007049999782,,,,,,,,0,1.660000000000001,0.6,12007,001,2024-06-14_17h02.22.255,MFTM_A_new1021,2022.2.4,None,
,,,,,,,,stim/Instruction_adaptive.png,conditions/adaptive.xlsx,test,-0.6,-0.6,-0.6,0.6,0.6,left,L,,,,,0,1,1,1,0,10,10,15,,,,,,,,,,,,,,,,,,,,,,,,,,,,176.39007049999782,176.89241870000842,176.89241870000842,176.89241870000842,176.89241870000842,176.89241870000842,176.89241870000842,176.89241870000842,left,1,1.7717541000019992,178.958395499998,178.958395499998,178.958395499998,178.958395499998,178.958395499998,178.958395499998,178.958395499998,178.958395499998,178.96800530000473,178.96800530000473,178.96800530000473,178.96800530000473,178.96800530000473,179.45551759999944,179.45551759999944,179.45551759999944,179.45551759999944,179.45551759999944,179.45551759999944,179.45551759999944,179.45551759999944,179.46498930000234,179.88931749999756,179.46498930000234,179.88931749999756,2.080000000000002,179.88931749999756,,180.64469739999913,,176.89241870000842,,,,,,,[[0.42]],1.8800000000000012,0.6363636363636364,12007,001,2024-06-14_17h02.22.255,MFTM_A_new1021,2022.2.4,None,
,,,,,,,,stim/Instruction_adaptive.png,conditions/adaptive.xlsx,test,0.6,0.6,0.6,-0.6,-0.6,right,R,,,,,0,1,1,1,0,11,11,40,,,,,,,,,,,,,,,,,,,,,,,,,,,,181.1449183000077,181.64535430000979,181.64535430000979,181.64535430000979,181.64535430000979,181.64535430000979,181.64535430000979,181.64535430000979,right,1,3.074714000002132,183.42083640000783,183.42083640000783,183.42083640000783,183.42083640000783,183.42083640000783,183.42083640000783,183.42083640000783,183.42083640000783,183.43033000000287,183.43033000000287,183.43033000000287,183.43033000000287,183.43033000000287,183.92039379999915,183.92039379999915,183.92039379999915,183.92039379999915,183.92039379999915,183.92039379999915,183.92039379999915,183.92039379999915,183.92039379999915,184.73435549999704,183.9330772999965,184.74707530000887,1.7900000000000014,184.74707530000887,,185.50067470000067,,,,,,,,,[0.66916667],2.0500000000000016,0.6666666666666666,12007,001,2024-06-14_17h02.22.255,MFTM_A_new1021,2022.2.4,None,
,,,,,,,,stim/Instruction_adaptive.png,conditions/adaptive.xlsx,test,0.6,0.6,0.6,-0.6,-0.6,right,R,,,,,0,1,1,1,0,12,12,18,,,,,,,,,,,,,,,,,,,,,,,,,,,,186.0000415000104,186.5000349000038,186.5000349000038,186.5000349000038,186.5000349000038,186.5000349000038,186.5000349000038,186.5000349000038,left,0,2.6601853000029223,188.07775219999894,188.07775219999894,188.07775219999894,188.07775219999894,188.07775219999894,188.07775219999894,188.07775219999894,188.07775219999894,188.08989430000656,188.08989430000656,188.08989430000656,188.08989430000656,188.08989430000656,188.5770676000102,188.5770676000102,188.5770676000102,188.5770676000102,188.5770676000102,188.5770676000102,188.5770676000102,188.5770676000102,188.5770676000102,189.26800310000544,188.5898426000058,189.28177370000049,1.5900000000000012,189.28177370000049,,190.0335267000046,,,,,,,,,[0.68769231],1.600000000000001,0.6153846153846154,12007,001,2024-06-14_17h02.22.255,MFTM_A_new1021,2022.2.4,None,
,,,,,,,,stim/Instruction_adaptive.png,conditions/adaptive.xlsx,test,0.6,0.6,0.6,-0.6,-0.6,right,R,,,,,0,1,1,1,0,13,13,14,,,,,,,,,,,,,,,,,,,,,,,,,,,,190.53422830000636,191.0368451000104,191.0368451000104,191.0368451000104,191.0368451000104,191.0368451000104,191.0368451000104,191.0368451000104,right,1,2.9549535999976797,193.1898352999997,193.1898352999997,193.1898352999997,193.1898352999997,193.1898352999997,193.1898352999997,193.1898352999997,193.1898352999997,193.19934610000928,193.19934610000928,193.19934610000928,193.19934610000928,193.19934610000928,193.68950039999618,193.68950039999618,193.68950039999618,193.68950039999618,193.68950039999618,193.68950039999618,193.68950039999618,193.68950039999618,193.68950039999618,194.02264209999703,193.69864640000742,194.0450320000091,2.1700000000000017,194.0450320000091,,194.78931520000333,,,,,,,,,[[0.33]],1.7800000000000011,0.6428571428571429,12007,001,2024-06-14_17h02.22.255,MFTM_A_new1021,2022.2.4,None,
,,,,,,,,stim/Instruction_adaptive.png,conditions/adaptive.xlsx,test,0.6,0.6,0.6,-0.6,-0.6,right,R,,,,,0,1,1,1,0,14,14,70,,,,,,,,,,,,,,,,,,,,,,,,,,,,195.28932989999885,195.79720570000063,195.79720570000063,195.79720570000063,195.79720570000063,195.79720570000063,195.79720570000063,195.79720570000063,right,1,2.4992483999958495,197.68986430000223,197.68986430000223,197.68986430000223,197.68986430000223,197.68986430000223,197.68986430000223,197.68986430000223,197.68986430000223,197.71205110001029,197.71205110001029,197.71205110001029,197.71205110001029,197.71205110001029,198.18963160000567,198.18963160000567,198.18963160000567,198.18963160000567,198.18963160000567,198.18963160000567,198.18963160000567,198.18963160000567,198.18963160000567,198.76565030000347,198.22282290000294,198.80027910000354,1.9200000000000015,198.80027910000354,,199.55581560000428,,,,,,,,,[[0.58]],1.9200000000000013,0.6666666666666666,12007,001,2024-06-14_17h02.22.255,MFTM_A_new1021,2022.2.4,None,
,,,,,,,,stim/Instruction_adaptive.png,conditions/adaptive.xlsx,test,-0.6,-0.6,-0.6,0.6,0.6,left,L,,,,,0,1,1,1,0,15,15,73,,,,,,,,,,,,,,,,,,,,,,,,,,,,200.05463919999602,200.55658020000556,200.55658020000556,200.55658020000556,200.55658020000556,200.55658020000556,200.55658020000556,200.55658020000556,left,1,2.3071458999911556,202.28124310000567,202.28124310000567,202.28124310000567,202.28124310000567,202.28124310000567,202.28124310000567,202.28124310000567,202.28124310000567,202.29039160000684,202.29039160000684,202.29039160000684,202.29039160000684,202.29039160000684,202.77909110000473,202.77909110000473,202.77909110000473,202.77909110000473,202.77909110000473,202.77909110000473,202.77909110000473,202.77909110000473,202.77909110000473,203.44295599999896,202.78789829999732,203.45172450000246,1.7400000000000013,203.45172450000246,204.2004203999968,204.2004203999968,204.70017690000532,,,,,,,,[0.663125],2.0500000000000016,0.6875,12007,001,2024-06-14_17h02.22.255,MFTM_A_new1021,2022.2.4,None,
,,,,,,,,stim/Instruction_adaptive.png,conditions/adaptive.xlsx,test,0.6,0.6,0.6,-0.6,-0.6,right,R,,,,,0,1,1,1,0,16,16,98,,,,,,,,,,,,,,,,,,,,,,,,,,,,204.70017690000532,205.20199840000714,205.20199840000714,205.20199840000714,205.20199840000714,205.20199840000714,205.20199840000714,205.20199840000714,None,0,0,206.7769574999984,206.7769574999984,206.7769574999984,206.7769574999984,206.7769574999984,206.7769574999984,206.7769574999984,206.7769574999984,206.78959190000023,206.78959190000023,206.78959190000023,206.78959190000023,206.78959190000023,207.27718289999757,207.27718289999757,207.27718289999757,207.27718289999757,207.27718289999757,207.27718289999757,207.27718289999757,207.27718289999757,207.27718289999757,208.68907790000958,207.28980290000618,208.70478660000663,1.5900000000000012,208.70478660000663,,209.45630010000605,,205.20199840000714,,,,,,,[[1.41]],1.710000000000001,0.6470588235294118,12007,001,2024-06-14_17h02.22.255,MFTM_A_new1021,2022.2.4,None,
,,,,,,,,stim/Instruction_adaptive.png,conditions/adaptive.xlsx,test,0.6,0.6,0.6,-0.6,-0.6,right,R,,,,,0,1,1,1,0,17,17,50,,,,,,,,,,,,,,,,,,,,,,,,,,,,209.9559322999994,210.45721000000776,210.45721000000776,210.45721000000776,210.45721000000776,210.45721000000776,210.45721000000776,210.45721000000776,left,0,2.320049999994808,212.4432097999961,212.4432097999961,212.4432097999961,212.4432097999961,212.4432097999961,212.4432097999961,212.4432097999961,212.4432097999961,212.46752160000324,212.46752160000324,212.46752160000324,212.46752160000324,212.46752160000324,212.94337520000408,212.94337520000408,212.94337520000408,212.94337520000408,212.94337520000408,212.94337520000408,212.94337520000408,212.94337520000408,212.94337520000408,213.43205319999834,212.9677917000081,213.45955430000322,2.0100000000000016,213.45955430000322,,214.21248630000628,,,,,,,,,[[0.49]],1.3100000000000007,0.6111111111111112,12007,001,2024-06-14_17h02.22.255,MFTM_A_new1021,2022.2.4,None,
,,,,,,,,stim/Instruction_adaptive.png,conditions/adaptive.xlsx,test,0.6,0.6,0.6,-0.6,-0.6,right,R,,,,,0,1,1,1,0,18,18,6,,,,,,,,,,,,,,,,,,,,,,,,,,,,214.71251500000653,215.21098170000187,215.21098170000187,215.21098170000187,215.21098170000187,215.21098170000187,215.21098170000187,215.21098170000187,right,1,1.7725313999981154,217.8447087000095,217.8447087000095,217.8447087000095,217.8447087000095,217.8447087000095,217.8447087000095,217.8447087000095,217.8447087000095,217.85579040000448,217.85579040000448,217.85579040000448,217.85579040000448,217.85579040000448,218.34478880000825,218.34478880000825,218.34478880000825,218.34478880000825,218.34478880000825,218.34478880000825,218.34478880000825,218.34478880000825,218.34478880000825,218.34478880000825,218.3583607000037,218.3583607000037,2.650000000000002,218.3583607000037,,219.1127126000065,,,,,,,,,0,1.4600000000000009,0.631578947368421,12007,001,2024-06-14_17h02.22.255,MFTM_A_new1021,2022.2.4,None,
,,,,,,,,stim/Instruction_adaptive.png,conditions/adaptive.xlsx,test,-0.6,-0.6,-0.6,0.6,0.6,left,L,,,,,0,1,1,1,0,19,19,19,,,,,,,,,,,,,,,,,,,,,,,,,,,,219.61119779999717,220.12034619999758,220.12034619999758,220.12034619999758,220.12034619999758,220.12034619999758,220.12034619999758,220.12034619999758,left,1,1.8399996999942232,222.48730320000323,222.48730320000323,222.48730320000323,222.48730320000323,222.48730320000323,222.48730320000323,222.48730320000323,222.48730320000323,222.51134650000313,222.51134650000313,222.51134650000313,222.51134650000313,222.51134650000313,222.98847620000015,222.98847620000015,222.98847620000015,222.98847620000015,222.98847620000015,222.98847620000015,222.98847620000015,222.98847620000015,222.98847620000015,223.10109620000003,223.0119937999989,223.12448080000468,2.390000000000002,223.12448080000468,,223.8784455999994,,,,,,,,,[[0.11]],1.600000000000001,0.65,12007,001,2024-06-14_17h02.22.255,MFTM_A_new1021,2022.2.4,None,
,,,,,,,,stim/Instruction_adaptive.png,conditions/adaptive.xlsx,test,-0.6,-0.6,-0.6,0.6,0.6,left,L,,,,,0,1,1,1,0,20,20,25,,,,,,,,,,,,,,,,,,,,,,,,,,,,224.3784500000038,224.87832830000843,224.87832830000843,224.87832830000843,224.87832830000843,224.87832830000843,224.87832830000843,224.87832830000843,left,1,2.481603799998993,227.0350635000068,227.0350635000068,227.0350635000068,227.0350635000068,227.0350635000068,227.0350635000068,227.0350635000068,227.0350635000068,227.0443465999997,227.0443465999997,227.0443465999997,227.0443465999997,227.0443465999997,227.534911499999,227.534911499999,227.534911499999,227.534911499999,227.534911499999,227.534911499999,227.534911499999,227.534911499999,227.534911499999,227.8697019000101,227.543139100002,227.8808684000105,2.1700000000000017,227.8808684000105,,228.63366870000027,,,,,,,,,[[0.33]],1.710000000000001,0.6666666666666666,12007,001,2024-06-14_17h02.22.255,MFTM_A_new1021,2022.2.4,None,
,,,,,,,,stim/Instruction_adaptive.png,conditions/adaptive.xlsx,test,-0.6,-0.6,-0.6,0.6,0.6,left,L,,,,,0,1,1,1,0,21,21,17,,,,,,,,,,,,,,,,,,,,,,,,,,,,229.13369070000772,229.64199889999873,229.64199889999873,229.64199889999873,229.64199889999873,229.64199889999873,229.64199889999873,229.64199889999873,left,1,2.806812799986801,231.63516309999977,231.63516309999977,231.63516309999977,231.63516309999977,231.63516309999977,231.63516309999977,231.63516309999977,231.63516309999977,231.6441821000044,231.6441821000044,231.6441821000044,231.6441821000044,231.6441821000044,232.1340240999998,232.1340240999998,232.1340240999998,232.1340240999998,232.1340240999998,232.1340240999998,232.1340240999998,232.1340240999998,232.1340240999998,232.6244347000029,232.1567931000027,232.6387481999991,2.0100000000000016,232.6387481999991,,233.38902410000446,,,,,,,,,[[0.49]],1.8100000000000012,0.6818181818181818,12007,001,2024-06-14_17h02.22.255,MFTM_A_new1021,2022.2.4,None,
,,,,,,,,stim/Instruction_adaptive.png,conditions/adaptive.xlsx,test,0.6,0.6,0.6,-0.6,-0.6,right,R,,,,,0,1,1,1,0,22,22,42,,,,,,,,,,,,,,,,,,,,,,,,,,,,233.8893653999985,234.3921948000061,234.3921948000061,234.3921948000061,234.3921948000061,234.3921948000061,234.3921948000061,234.3921948000061,right,1,3.192085799993947,236.25744240000495,236.25744240000495,236.25744240000495,236.25744240000495,236.25744240000495,236.25744240000495,236.25744240000495,236.25744240000495,236.266787200002,236.266787200002,236.266787200002,236.266787200002,236.266787200002,236.75647839999874,236.75647839999874,236.75647839999874,236.75647839999874,236.75647839999874,236.75647839999874,236.75647839999874,236.75647839999874,236.75647839999874,237.60061609999684,236.7656369000033,237.6136642000056,1.8800000000000014,237.6136642000056,238.35805130000517,238.35805130000517,238.85648550000042,,,,,,,,[0.58304348],1.9000000000000012,0.6956521739130435,12007,001,2024-06-14_17h02.22.255,MFTM_A_new1021,2022.2.4,None,
,,,,,,,,stim/Instruction_adaptive.png,conditions/adaptive.xlsx,test,-0.6,-0.6,-0.6,0.6,0.6,left,L,,,,,0,1,1,1,0,23,23,53,,,,,,,,,,,,,,,,,,,,,,,,,,,,238.85648550000042,239.35867600000347,239.35867600000347,239.35867600000347,239.35867600000347,239.35867600000347,239.35867600000347,239.35867600000347,None,0,0,241.11561380000785,241.11561380000785,241.11561380000785,241.11561380000785,241.11561380000785,241.11561380000785,241.11561380000785,241.11561380000785,241.11561380000785,241.11561380000785,241.11561380000785,241.11561380000785,241.11561380000785,241.61225099999865,241.61225099999865,241.61225099999865,241.61225099999865,241.61225099999865,241.61225099999865,241.61225099999865,241.61225099999865,241.61225099999865,242.8580759000033,241.62148590000288,242.8580759000033,1.7600000000000013,242.8580759000033,,243.61125110001012,,239.35867600000347,,,,,,,[[1.24]],1.650000000000001,0.6666666666666666,12007,001,2024-06-14_17h02.22.255,MFTM_A_new1021,2022.2.4,None,
,,,,,,,,stim/Instruction_adaptive.png,conditions/adaptive.xlsx,test,0.6,0.6,0.6,-0.6,-0.6,right,R,,,,,0,1,1,1,0,24,24,28,,,,,,,,,,,,,,,,,,,,,,,,,,,,244.1119233000063,244.61444050000864,244.61444050000864,244.61444050000864,244.61444050000864,244.61444050000864,244.61444050000864,244.61444050000864,right,1,1.9216221999959089,246.69156590000784,246.69156590000784,246.69156590000784,246.69156590000784,246.69156590000784,246.69156590000784,246.69156590000784,246.69156590000784,246.7154625999974,246.7154625999974,246.7154625999974,246.7154625999974,246.7154625999974,247.18985629999952,247.18985629999952,247.18985629999952,247.18985629999952,247.18985629999952,247.18985629999952,247.18985629999952,247.18985629999952,247.2007733000064,247.6009977000067,247.20990880001045,247.61334429999988,2.1000000000000014,247.61334429999988,,248.36745930000325,,,,,,,,,[[0.4]],1.740000000000001,0.68,12007,001,2024-06-14_17h02.22.255,MFTM_A_new1021,2022.2.4,None,
,,,,,,,,stim/Instruction_adaptive.png,conditions/adaptive.xlsx,test,-0.6,-0.6,-0.6,0.6,0.6,left,L,,,,,0,1,1,1,0,25,25,41,,,,,,,,,,,,,,,,,,,,,,,,,,,,248.86761780000234,249.37518090000958,249.37518090000958,249.37518090000958,249.37518090000958,249.37518090000958,249.37518090000958,249.37518090000958,left,1,1.7452271999936784,251.32329670000763,251.32329670000763,251.32329670000763,251.32329670000763,251.32329670000763,251.32329670000763,251.32329670000763,251.32329670000763,251.34411950000504,251.34411950000504,251.34411950000504,251.34411950000504,251.34411950000504,251.82272779999766,251.82272779999766,251.82272779999766,251.82272779999766,251.82272779999766,251.82272779999766,251.82272779999766,251.82272779999766,251.82272779999766,252.35671540000476,251.84295459999703,252.3896781000076,1.9700000000000015,252.3896781000076,,253.1337646000029,,,,,,,,,[[0.53]],1.8300000000000012,0.6923076923076923,12007,001,2024-06-14_17h02.22.255,MFTM_A_new1021,2022.2.4,None,
,,,,,,,,stim/Instruction_adaptive.png,conditions/adaptive.xlsx,test,-0.6,-0.6,-0.6,0.6,0.6,left,L,,,,,0,1,1,1,0,26,26,69,,,,,,,,,,,,,,,,,,,,,,,,,,,,253.63327299999946,254.13373620000493,254.13373620000493,254.13373620000493,254.13373620000493,254.13373620000493,254.13373620000493,254.13373620000493,left,1,3.3776555999938864,255.96769440000935,255.96769440000935,255.96769440000935,255.96769440000935,255.96769440000935,255.96769440000935,255.96769440000935,255.96769440000935,255.97938990000694,255.97938990000694,255.97938990000694,255.97938990000694,255.97938990000694,256.4654587999976,256.4654587999976,256.4654587999976,256.4654587999976,256.4654587999976,256.4654587999976,256.4654587999976,256.4654587999976,256.4654587999976,257.52408470000955,256.4900170000037,257.5345806999976,1.8500000000000014,257.5345806999976,,258.28984440000204,,,,,,,,,[0.58259259],1.9000000000000012,0.7037037037037037,12007,001,2024-06-14_17h02.22.255,MFTM_A_new1021,2022.2.4,None,
,,,,,,,,stim/Instruction_adaptive.png,conditions/adaptive.xlsx,test,0.6,0.6,0.6,-0.6,-0.6,right,R,,,,,0,1,1,1,0,27,27,58,,,,,,,,,,,,,,,,,,,,,,,,,,,,258.7893861000048,259.2913777000067,259.2913777000067,259.2913777000067,259.2913777000067,259.2913777000067,259.2913777000067,259.2913777000067,right,1,1.7973483000096167,261.034278799998,261.034278799998,261.034278799998,261.034278799998,261.034278799998,261.034278799998,261.034278799998,261.034278799998,261.04528859999846,261.04528859999846,261.04528859999846,261.04528859999846,261.04528859999846,261.53060410000035,261.53060410000035,261.53060410000035,261.53060410000035,261.53060410000035,261.53060410000035,261.53060410000035,261.53060410000035,261.53060410000035,262.12031019999995,261.55191229999764,262.1462869000097,1.7600000000000013,262.1462869000097,,262.9005676000088,,,,,,,,,[0.58821429],1.9700000000000013,0.7142857142857143,12007,001,2024-06-14_17h02.22.255,MFTM_A_new1021,2022.2.4,None,
,,,,,,,,stim/Instruction_adaptive.png,conditions/adaptive.xlsx,test,-0.6,-0.6,-0.6,0.6,0.6,left,L,,,,,0,1,1,1,0,28,28,37,,,,,,,,,,,,,,,,,,,,,,,,,,,,263.4002681999991,263.90159989999665,263.90159989999665,263.90159989999665,263.90159989999665,263.90159989999665,263.90159989999665,263.90159989999665,left,1,1.4987093999952776,265.5674929000088,265.5674929000088,265.5674929000088,265.5674929000088,265.5674929000088,265.5674929000088,265.5674929000088,265.5674929000088,265.5786669000081,265.5786669000081,265.5786669000081,265.5786669000081,265.5786669000081,266.069574299996,266.069574299996,266.069574299996,266.069574299996,266.069574299996,266.069574299996,266.069574299996,266.069574299996,266.05749520000245,266.65607810000074,266.08134170000267,266.6866764000006,1.6800000000000013,266.6866764000006,,267.4343177999981,,,,,,,,,[0.5962069],2.0400000000000014,0.7241379310344828,12007,001,2024-06-14_17h02.22.255,MFTM_A_new1021,2022.2.4,None,
,,,,,,,,stim/Instruction_adaptive.png,conditions/adaptive.xlsx,test,-0.6,-0.6,-0.6,0.6,0.6,left,L,,,,,0,1,1,1,0,29,29,57,,,,,,,,,,,,,,,,,,,,,,,,,,,,267.93409170000814,268.4348277000099,268.4348277000099,268.4348277000099,268.4348277000099,268.4348277000099,268.4348277000099,268.4348277000099,left,1,2.3167937000107486,270.0228716999991,270.0228716999991,270.0228716999991,270.0228716999991,270.0228716999991,270.0228716999991,270.0228716999991,270.0228716999991,270.0340632000007,270.0340632000007,270.0340632000007,270.0340632000007,270.0340632000007,270.5228846999962,270.5228846999962,270.5228846999962,270.5228846999962,270.5228846999962,270.5228846999962,270.5228846999962,270.5228846999962,270.5228846999962,271.13435940000636,270.5342284000071,271.1455322999973,1.6000000000000012,271.1455322999973,,271.900284000003,,,,,,,,,[0.60633333],2.1000000000000014,0.7333333333333333,12007,001,2024-06-14_17h02.22.255,MFTM_A_new1021,2022.2.4,None,
,,,,,,,,stim/Instruction_adaptive.png,conditions/adaptive.xlsx,test,-0.6,-0.6,-0.6,0.6,0.6,left,L,,,,,0,1,1,1,0,30,30,93,,,,,,,,,,,,,,,,,,,,,,,,,,,,272.4012683000037,272.9015565000009,272.9015565000009,272.9015565000009,272.9015565000009,272.9015565000009,272.9015565000009,272.9015565000009,right,0,1.7473539999919012,274.41179040000134,274.41179040000134,274.41179040000134,274.41179040000134,274.41179040000134,274.41179040000134,274.41179040000134,274.41179040000134,274.43223710000166,274.43223710000166,274.43223710000166,274.43223710000166,274.43223710000166,274.91170540000894,274.91170540000894,274.91170540000894,274.91170540000894,274.91170540000894,274.91170540000894,274.91170540000894,274.91170540000894,274.91170540000894,275.531685000009,274.9323105000076,275.5629309000069,1.5300000000000011,275.5629309000069,,276.3124870000029,,,,,,,,,[0.61806452],1.9300000000000013,0.7096774193548387,12007,001,2024-06-14_17h02.22.255,MFTM_A_new1021,2022.2.4,None,
,,,,,,,,stim/Instruction_adaptive.png,conditions/adaptive.xlsx,test,-0.6,-0.6,-0.6,0.6,0.6,left,L,,,,,0,1,1,1,0,31,31,97,,,,,,,,,,,,,,,,,,,,,,,,,,,,276.81255170000077,277.31276260000595,277.31276260000595,277.31276260000595,277.31276260000595,277.31276260000595,277.31276260000595,277.31276260000595,left,1,1.895352699997602,279.02449409999826,279.02449409999826,279.02449409999826,279.02449409999826,279.02449409999826,279.02449409999826,279.02449409999826,279.02449409999826,279.04507540000486,279.04507540000486,279.04507540000486,279.04507540000486,279.04507540000486,279.5217013000074,279.5217013000074,279.5217013000074,279.5217013000074,279.5217013000074,279.5217013000074,279.5217013000074,279.5217013000074,279.5217013000074,280.14547620000667,279.5462697000039,280.17125480000686,1.7300000000000013,280.17125480000686,,280.92035210000176,,,,,,,,,[0.6228125],1.9900000000000013,0.71875,12007,001,2024-06-14_17h02.22.255,MFTM_A_new1021,2022.2.4,None,
,,,,,,,,stim/Instruction_adaptive.png,conditions/adaptive.xlsx,test,0.6,0.6,0.6,-0.6,-0.6,right,R,,,,,0,1,1,1,0,32,32,16,,,,,,,,,,,,,,,,,,,,,,,,,,,,281.42064080000273,281.92292880000605,281.92292880000605,281.92292880000605,281.92292880000605,281.92292880000605,281.92292880000605,281.92292880000605,right,1,1.9969323000113945,283.5668146000098,283.5668146000098,283.5668146000098,283.5668146000098,283.5668146000098,283.5668146000098,283.5668146000098,283.5668146000098,283.5779479000048,283.5779479000048,283.5779479000048,283.5779479000048,283.5779479000048,284.0676051000046,284.0676051000046,284.0676051000046,284.0676051000046,284.0676051000046,284.0676051000046,284.0676051000046,284.0676051000046,284.0676051000046,284.7009504000016,284.07848949999607,284.7140577999962,1.6600000000000013,284.7140577999962,,285.46665460000804,,,,,,,,,[0.62939394],2.0400000000000014,0.7272727272727273,12007,001,2024-06-14_17h02.22.255,MFTM_A_new1021,2022.2.4,None,
,,,,,,,,stim/Instruction_adaptive.png,conditions/adaptive.xlsx,test,-0.6,-0.6,-0.6,0.6,0.6,left,L,,,,,0,1,1,1,0,33,33,35,,,,,,,,,,,,,,,,,,,,,,,,,,,,285.96704099999624,286.4668182000023,286.4668182000023,286.4668182000023,286.4668182000023,286.4668182000023,286.4668182000023,286.4668182000023,left,1,1.0689523000037298,288.05607849999797,288.05607849999797,288.05607849999797,288.05607849999797,288.05607849999797,288.05607849999797,288.05607849999797,288.05607849999797,288.0671168999979,288.0671168999979,288.0671168999979,288.0671168999979,288.0671168999979,288.55628460001026,288.55628460001026,288.55628460001026,288.55628460001026,288.55628460001026,288.55628460001026,288.55628460001026,288.55628460001026,288.55628460001026,289.1896271000005,288.56731769999897,289.20300470000075,1.6000000000000012,289.20300470000075,,289.9567401000095,,,,,,,,,[0.63735294],2.1000000000000014,0.7352941176470589,12007,001,2024-06-14_17h02.22.255,MFTM_A_new1021,2022.2.4,None,
,,,,,,,,stim/Instruction_adaptive.png,conditions/adaptive.xlsx,test,0.6,0.6,0.6,-0.6,-0.6,right,R,,,,,0,1,1,1,0,34,34,46,,,,,,,,,,,,,,,,,,,,,,,,,,,,290.4555793000036,290.9555076999968,290.9555076999968,290.9555076999968,290.9555076999968,290.9555076999968,290.9555076999968,290.9555076999968,left,0,3.061004100003629,292.4683156999963,292.4683156999963,292.4683156999963,292.4683156999963,292.4683156999963,292.4683156999963,292.4683156999963,292.4683156999963,292.47782559999905,292.47782559999905,292.47782559999905,292.47782559999905,292.47782559999905,292.9674206000054,292.9674206000054,292.9674206000054,292.9674206000054,292.9674206000054,292.9674206000054,292.9674206000054,292.9674206000054,292.9674206000054,294.0345432000031,292.9896865000046,294.0480183000036,1.5300000000000011,294.0480183000036,,294.79911570000695,,,,,,,,,[0.64685714],1.9400000000000013,0.7142857142857143,12007,001,2024-06-14_17h02.22.255,MFTM_A_new1021,2022.2.4,None,
,,,,,,,,stim/Instruction_adaptive.png,conditions/adaptive.xlsx,test,0.6,0.6,0.6,-0.6,-0.6,right,R,,,,,0,1,1,1,0,35,35,90,,,,,,,,,,,,,,,,,,,,,,,,,,,,295.2988917000039,295.80031430000963,295.80031430000963,295.80031430000963,295.80031430000963,295.80031430000963,295.80031430000963,295.80031430000963,right,1,2.1679103000060422,297.5017588000046,297.5017588000046,297.5017588000046,297.5017588000046,297.5017588000046,297.5017588000046,297.5017588000046,297.5017588000046,297.51320380000107,297.51320380000107,297.51320380000107,297.51320380000107,297.51320380000107,297.9983467999991,297.9983467999991,297.9983467999991,297.9983467999991,297.9983467999991,297.9983467999991,297.9983467999991,297.9983467999991,297.9983467999991,298.6450238999969,298.012197700009,298.6582793999987,1.7100000000000013,298.6582793999987,,299.41183670000464,,,,,,,,,[0.65083333],2.0000000000000013,0.7222222222222222,12007,001,2024-06-14_17h02.22.255,MFTM_A_new1021,2022.2.4,None,
,,,,,,,,stim/Instruction_adaptive.png,conditions/adaptive.xlsx,test,-0.6,-0.6,-0.6,0.6,0.6,left,L,,,,,0,1,1,1,0,36,36,75,,,,,,,,,,,,,,,,,,,,,,,,,,,,299.9112673000054,300.41182340000523,300.41182340000523,300.41182340000523,300.41182340000523,300.41182340000523,300.41182340000523,300.41182340000523,left,1,1.756649999995716,302.03404800000135,302.03404800000135,302.03404800000135,302.03404800000135,302.03404800000135,302.03404800000135,302.03404800000135,302.03404800000135,302.05397720000474,302.05397720000474,302.05397720000474,302.05397720000474,302.05397720000474,302.5338924000098,302.5338924000098,302.5338924000098,302.5338924000098,302.5338924000098,302.5338924000098,302.5338924000098,302.5338924000098,302.5338924000098,303.1868114999961,302.5545587000088,303.2131328999967,1.6400000000000012,303.2131328999967,,303.9676974000031,,,,,,,,,[0.65648649],2.0500000000000016,0.7297297297297297,12007,001,2024-06-14_17h02.22.255,MFTM_A_new1021,2022.2.4,None,
,,,,,,,,stim/Instruction_adaptive.png,conditions/adaptive.xlsx,test,0.6,0.6,0.6,-0.6,-0.6,right,R,,,,,0,1,1,1,0,37,37,12,,,,,,,,,,,,,,,,,,,,,,,,,,,,304.4669423000014,304.96737840000424,304.96737840000424,304.96737840000424,304.96737840000424,304.96737840000424,304.96737840000424,304.96737840000424,right,1,3.425242999990587,306.5466480000032,306.5466480000032,306.5466480000032,306.5466480000032,306.5466480000032,306.5466480000032,306.5466480000032,306.5466480000032,306.5560852000053,306.5560852000053,306.5560852000053,306.5560852000053,306.5560852000053,307.04548810000415,307.04548810000415,307.04548810000415,307.04548810000415,307.04548810000415,307.04548810000415,307.04548810000415,307.04548810000415,307.04548810000415,308.4099328000011,307.0547871000017,308.42264570000407,1.5900000000000012,308.42264570000407,309.1676414000103,309.1676414000103,309.66747570000007,,,,,,,,[0.66315789],2.1000000000000014,0.7368421052631579,12007,001,2024-06-14_17h02.22.255,MFTM_A_new1021,2022.2.4,None,
,,,,,,,,stim/Instruction_adaptive.png,conditions/adaptive.xlsx,test,-0.6,-0.6,-0.6,0.6,0.6,left,L,,,,,0,1,1,1,0,38,38,89,,,,,,,,,,,,,,,,,,,,,,,,,,,,309.66747570000007,310.1699055000063,310.1699055000063,310.1699055000063,310.1699055000063,310.1699055000063,310.1699055000063,310.1699055000063,right,0,2.1975545000022976,311.6889639000001,311.6889639000001,311.6889639000001,311.6889639000001,311.6889639000001,311.6889639000001,311.6889639000001,311.6889639000001,311.7000648999965,311.7000648999965,311.7000648999965,311.7000648999965,311.7000648999965,312.189486999996,312.189486999996,312.189486999996,312.189486999996,312.189486999996,312.189486999996,312.189486999996,312.189486999996,312.189486999996,312.8563628999982,312.20085839999956,312.8698887000064,1.5300000000000011,312.8698887000064,,313.6264813000016,,310.1699055000063,,,,,,,[0.67102564],1.9600000000000013,0.717948717948718,12007,001,2024-06-14_17h02.22.255,MFTM_A_new1021,2022.2.4,None,
,,,,,,,,stim/Instruction_adaptive.png,conditions/adaptive.xlsx,test,-0.6,-0.6,-0.6,0.6,0.6,left,L,,,,,0,1,1,1,0,39,39,45,,,,,,,,,,,,,,,,,,,,,,,,,,,,314.1233635999961,314.6232912999985,314.6232912999985,314.6232912999985,314.6232912999985,314.6232912999985,314.6232912999985,314.6232912999985,left,1,1.7199238000030164,316.30230320000555,316.30230320000555,316.30230320000555,316.30230320000555,316.30230320000555,316.30230320000555,316.30230320000555,316.30230320000555,316.31431610000436,316.31431610000436,316.31431610000436,316.31431610000436,316.31431610000436,316.79991139999765,316.79991139999765,316.79991139999765,316.79991139999765,316.79991139999765,316.79991139999765,316.79991139999765,316.79991139999765,316.79991139999765,317.4668900999968,316.8126103000104,317.4925065999996,1.6900000000000013,317.4925065999996,,318.24464990000706,,,,,,,,,[0.6745],2.0100000000000016,0.725,12007,001,2024-06-14_17h02.22.255,MFTM_A_new1021,2022.2.4,None,
,,,,,,,,stim/Instruction_adaptive.png,conditions/adaptive.xlsx,test,-0.6,-0.6,-0.6,0.6,0.6,left,L,,,,,0,1,1,1,0,40,40,13,,,,,,,,,,,,,,,,,,,,,,,,,,,,318.7454144000076,319.2452256999968,319.2452256999968,319.2452256999968,319.2452256999968,319.2452256999968,319.2452256999968,319.2452256999968,right,0,2.434670999995433,320.8583510000026,320.8583510000026,320.8583510000026,320.8583510000026,320.8583510000026,320.8583510000026,320.8583510000026,320.8583510000026,320.86794880000525,320.86794880000525,320.86794880000525,320.86794880000525,320.86794880000525,321.35450030000356,321.35450030000356,321.35450030000356,321.35450030000356,321.35450030000356,321.35450030000356,321.35450030000356,321.35450030000356,321.35450030000356,322.03410469999653,321.3784474999993,322.0570901000028,1.6300000000000012,322.0570901000028,,322.8116255000059,,,,,,,,,[0.67926829],1.8700000000000012,0.7073170731707317,12007,001,2024-06-14_17h02.22.255,MFTM_A_new1021,2022.2.4,None,
,,,,,,,,stim/Instruction_adaptive.png,conditions/adaptive.xlsx,test,0.6,0.6,0.6,-0.6,-0.6,right,R,,,,,0,1,1,1,0,41,41,24,,,,,,,,,,,,,,,,,,,,,,,,,,,,323.311766800005,323.81099959999847,323.81099959999847,323.81099959999847,323.81099959999847,323.81099959999847,323.81099959999847,323.81099959999847,left,0,2.3889431999996305,325.58989820000716,325.58989820000716,325.58989820000716,325.58989820000716,325.58989820000716,325.58989820000716,325.58989820000716,325.58989820000716,325.6115456999978,325.6115456999978,325.6115456999978,325.6115456999978,325.6115456999978,326.0880629000021,326.0880629000021,326.0880629000021,326.0880629000021,326.0880629000021,326.0880629000021,326.0880629000021,326.0880629000021,326.1008531999978,326.7785012000095,326.11256340000546,326.8009005000058,1.8000000000000014,326.8009005000058,,327.5445605999994,,,,,,,,,[0.6797619],1.720000000000001,0.6904761904761905,12007,001,2024-06-14_17h02.22.255,MFTM_A_new1021,2022.2.4,None,
,,,,,,,,stim/Instruction_adaptive.png,conditions/adaptive.xlsx,test,-0.6,-0.6,-0.6,0.6,0.6,left,L,,,,,0,1,1,1,0,42,42,3,,,,,,,,,,,,,,,,,,,,,,,,,,,,328.0428435000067,328.54513539999607,328.54513539999607,328.54513539999607,328.54513539999607,328.54513539999607,328.54513539999607,328.54513539999607,left,1,1.4067125000001397,330.5340283999976,330.5340283999976,330.5340283999976,330.5340283999976,330.5340283999976,330.5340283999976,330.5340283999976,330.5340283999976,330.54293000001053,330.54293000001053,330.54293000001053,330.54293000001053,330.54293000001053,331.033738099999,331.033738099999,331.033738099999,331.033738099999,331.033738099999,331.033738099999,331.033738099999,331.033738099999,331.033738099999,331.5345575000101,331.04287150000164,331.55777020000096,2.0000000000000018,331.55777020000096,,332.3012355000101,,,,,,,,,[[0.5]],1.7700000000000011,0.6976744186046512,12007,001,2024-06-14_17h02.22.255,MFTM_A_new1021,2022.2.4,None,
,,,,,,,,stim/Instruction_adaptive.png,conditions/adaptive.xlsx,test,-0.6,-0.6,-0.6,0.6,0.6,left,L,,,,,0,1,1,1,0,43,43,47,,,,,,,,,,,,,,,,,,,,,,,,,,,,332.8002551999962,333.30323620000854,333.30323620000854,333.30323620000854,333.30323620000854,333.30323620000854,333.30323620000854,333.30323620000854,left,1,1.9772014000045601,335.21148320000793,335.21148320000793,335.21148320000793,335.21148320000793,335.21148320000793,335.21148320000793,335.21148320000793,335.21148320000793,335.23206460000074,335.23206460000074,335.23206460000074,335.23206460000074,335.23206460000074,335.7109460000065,335.7109460000065,335.7109460000065,335.7109460000065,335.7109460000065,335.7109460000065,335.7109460000065,335.7109460000065,335.72142060000624,336.2896968999994,335.7314434,336.30118880000373,1.9300000000000015,336.30118880000373,,337.0560848000023,,,,,,,,,[[0.57]],1.8200000000000012,0.7045454545454546,12007,001,2024-06-14_17h02.22.255,MFTM_A_new1021,2022.2.4,None,
,,,,,,,,stim/Instruction_adaptive.png,conditions/adaptive.xlsx,test,-0.6,-0.6,-0.6,0.6,0.6,left,L,,,,,0,1,1,1,0,44,44,81,,,,,,,,,,,,,,,,,,,,,,,,,,,,337.5557412000053,338.0640296000056,338.0640296000056,338.0640296000056,338.0640296000056,338.0640296000056,338.0640296000056,338.0640296000056,left,1,2.079142499991576,339.8989731000038,339.8989731000038,339.8989731000038,339.8989731000038,339.8989731000038,339.8989731000038,339.8989731000038,339.8989731000038,339.92270900000585,339.92270900000585,339.92270900000585,339.92270900000585,339.92270900000585,340.3986814000091,340.3986814000091,340.3986814000091,340.3986814000091,340.3986814000091,340.3986814000091,340.3986814000091,340.3986814000091,340.3986814000091,341.03205150000576,340.4228443000029,341.0672534000041,1.8600000000000014,341.0672534000041,341.8115455000079,341.8115455000079,342.3116560000053,,,,,,,,[[0.64]],1.8700000000000012,0.7111111111111111,12007,001,2024-06-14_17h02.22.255,MFTM_A_new1021,2022.2.4,None,
,,,,,,,,stim/Instruction_adaptive.png,conditions/adaptive.xlsx,test,-0.6,-0.6,-0.6,0.6,0.6,left,L,,,,,0,1,1,1,0,45,45,77,,,,,,,,,,,,,,,,,,,,,,,,,,,,342.3116560000053,342.81192269999883,342.81192269999883,342.81192269999883,342.81192269999883,342.81192269999883,342.81192269999883,342.81192269999883,left,1,2.0050472999864724,344.61284760000126,344.61284760000126,344.61284760000126,344.61284760000126,344.61284760000126,344.61284760000126,344.61284760000126,344.61284760000126,344.61284760000126,344.61284760000126,344.61284760000126,344.61284760000126,344.61284760000126,345.11189900001045,345.11189900001045,345.11189900001045,345.11189900001045,345.11189900001045,345.11189900001045,345.11189900001045,345.11189900001045,345.11189900001045,345.7806336000067,345.11189900001045,345.7806336000067,1.8000000000000014,345.7806336000067,,346.5340628999984,,342.81192269999883,,,,,,,[0.67304348],1.9100000000000013,0.717391304347826,12007,001,2024-06-14_17h02.22.255,MFTM_A_new1021,2022.2.4,None,
,,,,,,,,stim/Instruction_adaptive.png,conditions/adaptive.xlsx,test,-0.6,-0.6,-0.6,0.6,0.6,left,L,,,,,0,1,1,1,0,46,46,27,,,,,,,,,,,,,,,,,,,,,,,,,,,,347.0340492000105,347.53340220000246,347.53340220000246,347.53340220000246,347.53340220000246,347.53340220000246,347.53340220000246,347.53340220000246,left,1,0.8906741999962833,349.26763960000244,349.26763960000244,349.26763960000244,349.26763960000244,349.26763960000244,349.26763960000244,349.26763960000244,349.26763960000244,349.2767315000092,349.2767315000092,349.2767315000092,349.2767315000092,349.2767315000092,349.76770260000194,349.76770260000194,349.76770260000194,349.76770260000194,349.76770260000194,349.76770260000194,349.76770260000194,349.76770260000194,349.76770260000194,350.44316490000347,349.7767071999988,350.4562855999975,1.7500000000000013,350.4562855999975,351.2002947000001,351.2002947000001,351.70129130000714,,,,,,,,[0.67468085],1.9600000000000013,0.723404255319149,12007,001,2024-06-14_17h02.22.255,MFTM_A_new1021,2022.2.4,None,
,,,,,,,,stim/Instruction_adaptive.png,conditions/adaptive.xlsx,test,0.6,0.6,0.6,-0.6,-0.6,right,R,,,,,0,1,1,1,0,47,47,30,,,,,,,,,,,,,,,,,,,,,,,,,,,,351.70129130000714,352.20046400000865,352.20046400000865,352.20046400000865,352.20046400000865,352.20046400000865,352.20046400000865,352.20046400000865,None,0,0,353.87837960000616,353.87837960000616,353.87837960000616,353.87837960000616,353.87837960000616,353.87837960000616,353.87837960000616,353.87837960000616,353.88955059999716,353.88955059999716,353.88955059999716,353.88955059999716,353.88955059999716,354.37667409999995,354.37667409999995,354.37667409999995,354.37667409999995,354.37667409999995,354.37667409999995,354.37667409999995,354.37667409999995,354.37667409999995,355.6897469999967,354.38976930000354,355.70194600000104,1.6900000000000013,355.70194600000104,,356.45640380000987,,352.20046400000865,,,,,,,[[1.31]],1.8300000000000012,0.7083333333333334,12007,001,2024-06-14_17h02.22.255,MFTM_A_new1021,2022.2.4,None,
,,,,,,,,stim/Instruction_adaptive.png,conditions/adaptive.xlsx,test,-0.6,-0.6,-0.6,0.6,0.6,left,L,,,,,0,1,1,1,0,48,48,49,,,,,,,,,,,,,,,,,,,,,,,,,,,,356.95646580000175,357.45908680000866,357.45908680000866,357.45908680000866,357.45908680000866,357.45908680000866,357.45908680000866,357.45908680000866,right,0,2.3320474999927683,359.2923863000033,359.2923863000033,359.2923863000033,359.2923863000033,359.2923863000033,359.2923863000033,359.2923863000033,359.2923863000033,359.30116550000093,359.30116550000093,359.30116550000093,359.30116550000093,359.30116550000093,359.78964950000227,359.78964950000227,359.78964950000227,359.78964950000227,359.78964950000227,359.78964950000227,359.78964950000227,359.78964950000227,359.78964950000227,360.43209139999817,359.8117603999999,360.4587088999979,1.8500000000000014,360.4587088999979,,361.2118390999967,,,,,,,,,[[0.65]],1.700000000000001,0.6938775510204082,12007,001,2024-06-14_17h02.22.255,MFTM_A_new1021,2022.2.4,None,
,,,,,,,,stim/Instruction_adaptive.png,conditions/adaptive.xlsx,test,-0.6,-0.6,-0.6,0.6,0.6,left,L,,,,,0,1,1,1,0,49,49,79,,,,,,,,,,,,,,,,,,,,,,,,,,,,361.71132810000563,362.2119643000042,362.2119643000042,362.2119643000042,362.2119643000042,362.2119643000042,362.2119643000042,362.2119643000042,left,1,2.1795584999927087,364.2131864999974,364.2131864999974,364.2131864999974,364.2131864999974,364.2131864999974,364.2131864999974,364.2131864999974,364.2131864999974,364.23393460000807,364.23393460000807,364.23393460000807,364.23393460000807,364.23393460000807,364.7122750999988,364.7122750999988,364.7122750999988,364.7122750999988,364.7122750999988,364.7122750999988,364.7122750999988,364.7122750999988,364.7122750999988,365.18768020000425,364.7338451999967,365.21421649999684,2.0200000000000014,365.21421649999684,,365.96701269999903,,,,,,,,,[[0.48]],1.750000000000001,0.7,12007,001,2024-06-14_17h02.22.255,MFTM_A_new1021,2022.2.4,None,
,,,,,,,,stim/Instruction_adaptive.png,conditions/adaptive.xlsx,test,-0.6,-0.6,-0.6,0.6,0.6,left,L,,,,,0,1,1,1,0,50,50,87,,,,,,,,,,,,,,,,,,,,,,,,,,,,366.4669711000024,366.9666569999972,366.9666569999972,366.9666569999972,366.9666569999972,366.9666569999972,366.9666569999972,366.9666569999972,left,1,2.256519799993839,368.90980259999924,368.90980259999924,368.90980259999924,368.90980259999924,368.90980259999924,368.90980259999924,368.90980259999924,368.90980259999924,368.9226531000022,368.9226531000022,368.9226531000022,368.9226531000022,368.9226531000022,369.4099562000047,369.4099562000047,369.4099562000047,369.4099562000047,369.4099562000047,369.4099562000047,369.4099562000047,369.4099562000047,369.4099562000047,369.9430960000027,369.4228523000056,369.96950160000415,1.9600000000000015,369.96950160000415,,370.7234162000095,,,,,,,,,[[0.54]],1.7900000000000011,0.7058823529411765,12007,001,2024-06-14_17h02.22.255,MFTM_A_new1021,2022.2.4,None,
,,,,,,,,stim/Instruction_adaptive.png,conditions/adaptive.xlsx,test,-0.6,-0.6,-0.6,0.6,0.6,left,L,,,,,0,1,1,1,0,51,51,85,,,,,,,,,,,,,,,,,,,,,,,,,,,,371.2224148000096,371.71939910000947,371.71939910000947,371.71939910000947,371.71939910000947,371.71939910000947,371.71939910000947,371.71939910000947,left,1,1.7440799999894807,373.602249100004,373.602249100004,373.602249100004,373.602249100004,373.602249100004,373.602249100004,373.602249100004,373.602249100004,373.6116613000049,373.6116613000049,373.6116613000049,373.6116613000049,373.6116613000049,374.1006287000055,374.1006287000055,374.1006287000055,374.1006287000055,374.1006287000055,374.1006287000055,374.1006287000055,374.1006287000055,374.1099453000061,374.7104754000029,374.1227745000069,374.72280899999896,1.9000000000000015,374.72280899999896,375.4652552000043,375.4652552000043,375.96524620000855,,,,,,,,[[0.6]],1.8300000000000012,0.7115384615384616,12007,001,2024-06-14_17h02.22.255,MFTM_A_new1021,2022.2.4,None,
,,,,,,,,stim/Instruction_adaptive.png,conditions/adaptive.xlsx,test,0.6,0.6,0.6,-0.6,-0.6,right,R,,,,,0,1,1,1,0,52,52,52,,,,,,,,,,,,,,,,,,,,,,,,,,,,375.96524620000855,376.46490520000225,376.46490520000225,376.46490520000225,376.46490520000225,376.46490520000225,376.46490520000225,376.46490520000225,right,1,1.254606300004525,378.3117398000031,378.3117398000031,378.3117398000031,378.3117398000031,378.3117398000031,378.3117398000031,378.3117398000031,378.3117398000031,378.3117398000031,378.3117398000031,378.3117398000031,378.3117398000031,378.3117398000031,378.8118710999988,378.8118710999988,378.8118710999988,378.8118710999988,378.8118710999988,378.8118710999988,378.8118710999988,378.8118710999988,378.8118710999988,379.45614619999833,378.8118710999988,379.46744530000433,1.8500000000000014,379.46744530000433,,380.22230000000854,,376.46490520000225,,,,,,,[[0.65]],1.8700000000000012,0.7169811320754716,12007,001,2024-06-14_17h02.22.255,MFTM_A_new1021,2022.2.4,None,
,,,,,,,,stim/Instruction_adaptive.png,conditions/adaptive.xlsx,test,0.6,0.6,0.6,-0.6,-0.6,right,R,,,,,0,1,1,1,0,53,53,56,,,,,,,,,,,,,,,,,,,,,,,,,,,,380.72216079999635,381.22571820000303,381.22571820000303,381.22571820000303,381.22571820000303,381.22571820000303,381.22571820000303,381.22571820000303,left,0,1.943302700005006,383.01161980000325,383.01161980000325,383.01161980000325,383.01161980000325,383.01161980000325,383.01161980000325,383.01161980000325,383.01161980000325,383.0207977999962,383.0207977999962,383.0207977999962,383.0207977999962,383.0207977999962,383.51209840000956,383.51209840000956,383.51209840000956,383.51209840000956,383.51209840000956,383.51209840000956,383.51209840000956,383.51209840000956,383.51209840000956,384.17871910000395,383.52109460000065,384.19084799999837,1.8000000000000014,384.19084799999837,,384.94459490000736,,,,,,,,,[0.66925926],1.7600000000000011,0.7037037037037037,12007,001,2024-06-14_17h02.22.255,MFTM_A_new1021,2022.2.4,None,
,,,,,,,,stim/Instruction_adaptive.png,conditions/adaptive.xlsx,test,0.6,0.6,0.6,-0.6,-0.6,right,R,,,,,0,1,1,1,0,54,54,48,,,,,,,,,,,,,,,,,,,,,,,,,,,,385.4451323000103,385.94758200000797,385.94758200000797,385.94758200000797,385.94758200000797,385.94758200000797,385.94758200000797,385.94758200000797,right,1,2.3875207999954,387.8672976000089,387.8672976000089,387.8672976000089,387.8672976000089,387.8672976000089,387.8672976000089,387.8672976000089,387.8672976000089,387.8881667000096,387.8881667000096,387.8881667000096,387.8881667000096,387.8881667000096,388.36723370000254,388.36723370000254,388.36723370000254,388.36723370000254,388.36723370000254,388.36723370000254,388.36723370000254,388.36723370000254,388.36723370000254,388.922885100008,388.3875851000048,388.94640460000664,1.9400000000000015,388.94640460000664,,389.7010946000082,,,,,,,,,[[0.56]],1.8000000000000012,0.7090909090909091,12007,001,2024-06-14_17h02.22.255,MFTM_A_new1021,2022.2.4,None,
,,,,,,,,stim/Instruction_adaptive.png,conditions/adaptive.xlsx,test,0.6,0.6,0.6,-0.6,-0.6,right,R,,,,,0,1,1,1,0,55,55,20,,,,,,,,,,,,,,,,,,,,,,,,,,,,390.1999518000084,390.7000939999998,390.7000939999998,390.7000939999998,390.7000939999998,390.7000939999998,390.7000939999998,390.7000939999998,left,0,2.2591527000040514,392.5782557000057,392.5782557000057,392.5782557000057,392.5782557000057,392.5782557000057,392.5782557000057,392.5782557000057,392.5782557000057,392.5894748999999,392.5894748999999,392.5894748999999,392.5894748999999,392.5894748999999,393.076575900006,393.076575900006,393.076575900006,393.076575900006,393.076575900006,393.076575900006,393.076575900006,393.076575900006,393.076575900006,393.6896647000103,393.0904279000097,393.70300049999787,1.8900000000000015,393.70300049999787,,394.4554655000102,,,,,,,,,[[0.61]],1.680000000000001,0.6964285714285714,12007,001,2024-06-14_17h02.22.255,MFTM_A_new1021,2022.2.4,None,
,,,,,,,,stim/Instruction_adaptive.png,conditions/adaptive.xlsx,test,0.6,0.6,0.6,-0.6,-0.6,right,R,,,,,0,1,1,1,0,56,56,2,,,,,,,,,,,,,,,,,,,,,,,,,,,,394.95640260000073,395.455629700009,395.455629700009,395.455629700009,395.455629700009,395.455629700009,395.455629700009,395.455629700009,left,0,1.7518609000107972,397.4912178000086,397.4912178000086,397.4912178000086,397.4912178000086,397.4912178000086,397.4912178000086,397.4912178000086,397.4912178000086,397.5004958000063,397.5004958000063,397.5004958000063,397.5004958000063,397.5004958000063,397.989556600005,397.989556600005,397.989556600005,397.989556600005,397.989556600005,397.989556600005,397.989556600005,397.989556600005,397.989556600005,398.4316724000091,397.99875130000873,398.4576087000023,2.0500000000000016,398.4576087000023,,399.21124350000173,,,,,,,,,[[0.45]],1.550000000000001,0.6842105263157895,12007,001,2024-06-14_17h02.22.255,MFTM_A_new1021,2022.2.4,None,
,,,,,,,,stim/Instruction_adaptive.png,conditions/adaptive.xlsx,test,0.6,0.6,0.6,-0.6,-0.6,right,R,,,,,0,1,1,1,0,57,57,38,,,,,,,,,,,,,,,,,,,,,,,,,,,,399.71047610000824,400.2129546000069,400.2129546000069,400.2129546000069,400.2129546000069,400.2129546000069,400.2129546000069,400.2129546000069,right,1,2.355817499992554,402.44554939999944,402.44554939999944,402.44554939999944,402.44554939999944,402.44554939999944,402.44554939999944,402.44554939999944,402.44554939999944,402.4545722000039,402.4545722000039,402.4545722000039,402.4545722000039,402.4545722000039,402.94519900000887,402.94519900000887,402.94519900000887,402.94519900000887,402.94519900000887,402.94519900000887,402.94519900000887,402.94519900000887,402.94519900000887,403.2011066999985,402.96749830000044,403.2147471000062,2.2500000000000018,403.2147471000062,,403.9666148999968,,,,,,,,,[[0.25]],1.600000000000001,0.6896551724137931,12007,001,2024-06-14_17h02.22.255,MFTM_A_new1021,2022.2.4,None,
,,,,,,,,stim/Instruction_adaptive.png,conditions/adaptive.xlsx,test,-0.6,-0.6,-0.6,0.6,0.6,left,L,,,,,0,1,1,1,0,58,58,55,,,,,,,,,,,,,,,,,,,,,,,,,,,,404.4681324999983,404.96651399999973,404.96651399999973,404.96651399999973,404.96651399999973,404.96651399999973,404.96651399999973,404.96651399999973,left,1,1.7534897000005003,407.122108399999,407.122108399999,407.122108399999,407.122108399999,407.122108399999,407.122108399999,407.122108399999,407.122108399999,407.13381389999995,407.13381389999995,407.13381389999995,407.13381389999995,407.13381389999995,407.61986289999913,407.61986289999913,407.61986289999913,407.61986289999913,407.61986289999913,407.61986289999913,407.61986289999913,407.61986289999913,407.61986289999913,407.9450998999964,407.6327171000012,407.96706530000665,2.1700000000000017,407.96706530000665,408.7109905999969,408.7109905999969,409.2092416000087,,,,,,,,[[0.33]],1.640000000000001,0.6949152542372882,12007,001,2024-06-14_17h02.22.255,MFTM_A_new1021,2022.2.4,None,
,,,,,,,,stim/Instruction_adaptive.png,conditions/adaptive.xlsx,test,-0.6,-0.6,-0.6,0.6,0.6,left,L,,,,,0,1,1,1,0,59,59,39,,,,,,,,,,,,,,,,,,,,,,,,,,,,409.2092416000087,409.70956220000517,409.70956220000517,409.70956220000517,409.70956220000517,409.70956220000517,409.70956220000517,409.70956220000517,right,0,1.546161399994162,411.81165060000785,411.81165060000785,411.81165060000785,411.81165060000785,411.81165060000785,411.81165060000785,411.81165060000785,411.81165060000785,411.82272779999766,411.82272779999766,411.82272779999766,411.82272779999766,411.82272779999766,412.3101344000024,412.3101344000024,412.3101344000024,412.3101344000024,412.3101344000024,412.3101344000024,412.3101344000024,412.3101344000024,412.3101344000024,412.70047760001034,412.3226338000095,412.71179810000467,2.1100000000000017,412.71179810000467,,413.46718249999685,,409.70956220000517,,,,,,,[[0.39]],1.520000000000001,0.6833333333333333,12007,001,2024-06-14_17h02.22.255,MFTM_A_new1021,2022.2.4,None,
,,,,,,,,stim/Instruction_adaptive.png,conditions/adaptive.xlsx,test,-0.6,-0.6,-0.6,0.6,0.6,left,L,,,,,0,1,1,1,0,60,60,31,,,,,,,,,,,,,,,,,,,,,,,,,,,,413.96698939999624,414.46959710000374,414.46959710000374,414.46959710000374,414.46959710000374,414.46959710000374,414.46959710000374,414.46959710000374,left,1,3.083767000003718,416.74509890000627,416.74509890000627,416.74509890000627,416.74509890000627,416.74509890000627,416.74509890000627,416.74509890000627,416.74509890000627,416.75616309999896,416.75616309999896,416.75616309999896,416.75616309999896,416.75616309999896,417.24503689999983,417.24503689999983,417.24503689999983,417.24503689999983,417.24503689999983,417.24503689999983,417.24503689999983,417.24503689999983,417.24503689999983,417.5662292000052,417.2562681999989,417.58076700000674,2.290000000000002,417.58076700000674,,418.3317703000066,,,,,,,,,[[0.21]],1.560000000000001,0.6885245901639344,12007,001,2024-06-14_17h02.22.255,MFTM_A_new1021,2022.2.4,None,
,,,,,,,,stim/Instruction_adaptive.png,conditions/adaptive.xlsx,test,-0.6,-0.6,-0.6,0.6,0.6,left,L,,,,,0,1,1,1,0,61,61,29,,,,,,,,,,,,,,,,,,,,,,,,,,,,418.83185770000273,419.33331159999943,419.33331159999943,419.33331159999943,419.33331159999943,419.33331159999943,419.33331159999943,419.33331159999943,left,1,2.5145572000037646,421.548377900006,421.548377900006,421.548377900006,421.548377900006,421.548377900006,421.548377900006,421.548377900006,421.548377900006,421.55762839999807,421.55762839999807,421.55762839999807,421.55762839999807,421.55762839999807,422.04512239999895,422.04512239999895,422.04512239999895,422.04512239999895,422.04512239999895,422.04512239999895,422.04512239999895,422.04512239999895,422.04512239999895,422.3129428000102,422.06514540000353,422.3385122000036,2.2300000000000018,422.3385122000036,,423.08795310001005,,,,,,,,,[[0.27]],1.600000000000001,0.6935483870967742,12007,001,2024-06-14_17h02.22.255,MFTM_A_new1021,2022.2.4,None,
,,,,,,,,stim/Instruction_adaptive.png,conditions/adaptive.xlsx,test,0.6,0.6,0.6,-0.6,-0.6,right,R,,,,,0,1,1,1,0,62,62,22,,,,,,,,,,,,,,,,,,,,,,,,,,,,423.58812250000483,424.0881550000049,424.0881550000049,424.0881550000049,424.0881550000049,424.0881550000049,424.0881550000049,424.0881550000049,right,1,1.7759166000032565,426.2464219999965,426.2464219999965,426.2464219999965,426.2464219999965,426.2464219999965,426.2464219999965,426.2464219999965,426.2464219999965,426.25589490000857,426.25589490000857,426.25589490000857,426.25589490000857,426.25589490000857,426.74527390000003,426.74527390000003,426.74527390000003,426.74527390000003,426.74527390000003,426.74527390000003,426.74527390000003,426.74527390000003,426.74527390000003,427.07826350000687,426.75431210000534,427.08966260000307,2.1700000000000017,427.08966260000307,,427.8438021000038,,,,,,,,,[[0.33]],1.640000000000001,0.6984126984126984,12007,001,2024-06-14_17h02.22.255,MFTM_A_new1021,2022.2.4,None,
,,,,,,,,stim/Instruction_adaptive.png,conditions/adaptive.xlsx,test,0.6,0.6,0.6,-0.6,-0.6,right,R,,,,,0,1,1,1,0,63,63,84,,,,,,,,,,,,,,,,,,,,,,,,,,,,428.34504190000007,428.8525579999987,428.8525579999987,428.8525579999987,428.8525579999987,428.8525579999987,428.8525579999987,428.8525579999987,right,1,2.0994974999921396,430.93380640000396,430.93380640000396,430.93380640000396,430.93380640000396,430.93380640000396,430.93380640000396,430.93380640000396,430.93380640000396,430.96736720000627,430.96736720000627,430.96736720000627,430.96736720000627,430.96736720000627,431.4349316000007,431.4349316000007,431.4349316000007,431.4349316000007,431.4349316000007,431.4349316000007,431.4349316000007,431.4349316000007,431.4349316000007,431.8217263999977,431.46744229999604,431.85469210000883,2.1100000000000017,431.85469210000883,432.60016420000466,432.60016420000466,433.1004898999963,,,,,,,,[[0.39]],1.680000000000001,0.703125,12007,001,2024-06-14_17h02.22.255,MFTM_A_new1021,2022.2.4,None,
,,,,,,,,stim/Instruction_adaptive.png,conditions/adaptive.xlsx,test,0.6,0.6,0.6,-0.6,-0.6,right,R,,,,,0,1,1,1,0,64,64,78,,,,,,,,,,,,,,,,,,,,,,,,,,,,433.1004898999963,433.60078500000236,433.60078500000236,433.60078500000236,433.60078500000236,433.60078500000236,433.60078500000236,433.60078500000236,right,1,2.0157267000031425,435.6424645000079,435.6424645000079,435.6424645000079,435.6424645000079,435.6424645000079,435.6424645000079,435.6424645000079,435.6424645000079,435.6558667000063,435.6558667000063,435.6558667000063,435.6558667000063,435.6558667000063,436.1453582999966,436.1453582999966,436.1453582999966,436.1453582999966,436.1453582999966,436.1453582999966,436.1453582999966,436.1453582999966,436.1453582999966,436.5890236999985,436.15638850000687,436.59887990000425,2.0500000000000016,436.59887990000425,437.3444671000034,437.3444671000034,437.844769000003,433.60078500000236,,,,,,,[[0.45]],1.710000000000001,0.7076923076923077,12007,001,2024-06-14_17h02.22.255,MFTM_A_new1021,2022.2.4,None,
,,,,,,,,stim/Instruction_adaptive.png,conditions/adaptive.xlsx,test,0.6,0.6,0.6,-0.6,-0.6,right,R,,,,,0,1,1,1,0,65,65,88,,,,,,,,,,,,,,,,,,,,,,,,,,,,437.844769000003,438.34443330000795,438.34443330000795,438.34443330000795,438.34443330000795,438.34443330000795,438.34443330000795,438.34443330000795,right,1,1.61533440000494,440.35271099999954,440.35271099999954,440.35271099999954,440.35271099999954,440.35271099999954,440.35271099999954,440.35271099999954,440.35271099999954,440.35271099999954,440.35271099999954,440.35271099999954,440.35271099999954,440.35271099999954,440.8546528000006,440.8546528000006,440.8546528000006,440.8546528000006,440.8546528000006,440.8546528000006,440.8546528000006,440.8546528000006,440.8546528000006,441.34609259999706,440.8546528000006,441.34609259999706,2.0100000000000016,441.34609259999706,,442.0980503000028,,438.34443330000795,,,,,,,[[0.49]],1.750000000000001,0.7121212121212122,12007,001,2024-06-14_17h02.22.255,MFTM_A_new1021,2022.2.4,None,
,,,,,,,,stim/Instruction_adaptive.png,conditions/adaptive.xlsx,test,0.6,0.6,0.6,-0.6,-0.6,right,R,,,,,0,1,1,1,0,66,66,44,,,,,,,,,,,,,,,,,,,,,,,,,,,,442.5986755000049,443.1015330000082,443.1015330000082,443.1015330000082,443.1015330000082,443.1015330000082,443.1015330000082,443.1015330000082,right,1,1.7055124000034994,445.04466810000304,445.04466810000304,445.04466810000304,445.04466810000304,445.04466810000304,445.04466810000304,445.04466810000304,445.04466810000304,445.05395940000017,445.05395940000017,445.05395940000017,445.05395940000017,445.05395940000017,445.5448488999973,445.5448488999973,445.5448488999973,445.5448488999973,445.5448488999973,445.5448488999973,445.5448488999973,445.5448488999973,445.5448488999973,446.08759389999614,445.5539626999962,446.100612299997,1.9600000000000015,446.100612299997,446.84462350000103,446.84462350000103,447.34474950000003,,,,,,,,[[0.54]],1.7800000000000011,0.7164179104477612,12007,001,2024-06-14_17h02.22.255,MFTM_A_new1021,2022.2.4,None,
,,,,,,,,stim/Instruction_adaptive.png,conditions/adaptive.xlsx,test,-0.6,-0.6,-0.6,0.6,0.6,left,L,,,,,0,1,1,1,0,67,67,95,,,,,,,,,,,,,,,,,,,,,,,,,,,,447.34474950000003,447.84761250000156,447.84761250000156,447.84761250000156,447.84761250000156,447.84761250000156,447.84761250000156,447.84761250000156,left,1,2.9594637999980478,449.7602101000084,449.7602101000084,449.7602101000084,449.7602101000084,449.7602101000084,449.7602101000084,449.7602101000084,449.7602101000084,449.7681494999997,449.7681494999997,449.7681494999997,449.7681494999997,449.7681494999997,450.2557450000022,450.2557450000022,450.2557450000022,450.2557450000022,450.2557450000022,450.2557450000022,450.2557450000022,450.2557450000022,450.2557450000022,450.8330019999994,450.26695630000904,450.84486900000775,1.9200000000000015,450.84486900000775,,451.6007520999992,,447.84761250000156,,,,,,,[[0.58]],1.8100000000000012,0.7205882352941176,12007,001,2024-06-14_17h02.22.255,MFTM_A_new1021,2022.2.4,None,
,,,,,,,,stim/Instruction_adaptive.png,conditions/adaptive.xlsx,test,-0.6,-0.6,-0.6,0.6,0.6,left,L,,,,,0,1,1,1,0,68,68,61,,,,,,,,,,,,,,,,,,,,,,,,,,,,452.1021569000004,452.6027116000041,452.6027116000041,452.6027116000041,452.6027116000041,452.6027116000041,452.6027116000041,452.6027116000041,left,1,1.773005800001556,454.46716359999846,454.46716359999846,454.46716359999846,454.46716359999846,454.46716359999846,454.46716359999846,454.46716359999846,454.46716359999846,454.47683010000037,454.47683010000037,454.47683010000037,454.47683010000037,454.47683010000037,454.96740229999705,454.96740229999705,454.96740229999705,454.96740229999705,454.96740229999705,454.96740229999705,454.96740229999705,454.96740229999705,454.96740229999705,455.5762112000084,454.97625760000665,455.60278590000235,1.8800000000000014,455.60278590000235,456.346635599999,456.346635599999,456.8454517000064,,,,,,,,[0.61753623],1.8400000000000012,0.7246376811594203,12007,001,2024-06-14_17h02.22.255,MFTM_A_new1021,2022.2.4,None,
,,,,,,,,stim/Instruction_adaptive.png,conditions/adaptive.xlsx,test,0.6,0.6,0.6,-0.6,-0.6,right,R,,,,,0,1,1,1,0,69,69,74,,,,,,,,,,,,,,,,,,,,,,,,,,,,456.8454517000064,457.34543090000807,457.34543090000807,457.34543090000807,457.34543090000807,457.34543090000807,457.34543090000807,457.34543090000807,right,1,1.5180859999964014,459.1784752000094,459.1784752000094,459.1784752000094,459.1784752000094,459.1784752000094,459.1784752000094,459.1784752000094,459.1784752000094,459.1902427000023,459.1902427000023,459.1902427000023,459.1902427000023,459.1902427000023,459.6783770000038,459.6783770000038,459.6783770000038,459.6783770000038,459.6783770000038,459.6783770000038,459.6783770000038,459.6783770000038,459.6783770000038,460.3130397000059,459.6896135999996,460.3130397000059,1.8400000000000014,460.3130397000059,,461.06424420000985,,457.34543090000807,,,,,,,[0.61814286],1.8700000000000012,0.7285714285714285,12007,001,2024-06-14_17h02.22.255,MFTM_A_new1021,2022.2.4,None,
,,,,,,,,stim/Instruction_adaptive.png,conditions/adaptive.xlsx,test,-0.6,-0.6,-0.6,0.6,0.6,left,L,,,,,0,1,1,1,0,70,70,9,,,,,,,,,,,,,,,,,,,,,,,,,,,,461.56510560000606,462.06680840000627,462.06680840000627,462.06680840000627,462.06680840000627,462.06680840000627,462.06680840000627,462.06680840000627,left,1,1.8686674000055064,463.8470176999981,463.8470176999981,463.8470176999981,463.8470176999981,463.8470176999981,463.8470176999981,463.8470176999981,463.8470176999981,463.86728050000966,463.86728050000966,463.86728050000966,463.86728050000966,463.86728050000966,464.3441240000102,464.3441240000102,464.3441240000102,464.3441240000102,464.3441240000102,464.3441240000102,464.3441240000102,464.3441240000102,464.35354490000464,464.97847190000175,464.36632400000235,464.9899880000012,1.8000000000000014,464.9899880000012,,465.7446129000018,,,,,,,,,[0.61929577],1.9000000000000012,0.7323943661971831,12007,001,2024-06-14_17h02.22.255,MFTM_A_new1021,2022.2.4,None,
,,,,,,,,stim/Instruction_adaptive.png,conditions/adaptive.xlsx,test,-0.6,-0.6,-0.6,0.6,0.6,left,L,,,,,0,1,1,1,0,71,71,33,,,,,,,,,,,,,,,,,,,,,,,,,,,,466.2453652999975,466.74447790000704,466.74447790000704,466.74447790000704,466.74447790000704,466.74447790000704,466.74447790000704,466.74447790000704,left,1,1.7108013999968534,468.4893002000026,468.4893002000026,468.4893002000026,468.4893002000026,468.4893002000026,468.4893002000026,468.4893002000026,468.4893002000026,468.5006024000031,468.5006024000031,468.5006024000031,468.5006024000031,468.5006024000031,468.9872733000084,468.9872733000084,468.9872733000084,468.9872733000084,468.9872733000084,468.9872733000084,468.9872733000084,468.9872733000084,468.9872733000084,469.6119963000092,469.00053210000624,469.6231511000078,1.7600000000000013,469.6231511000078,470.3672593000083,470.3672593000083,470.8672004999971,,,,,,,,[0.62097222],1.9300000000000013,0.7361111111111112,12007,001,2024-06-14_17h02.22.255,MFTM_A_new1021,2022.2.4,None,
,,,,,,,,stim/Instruction_adaptive.png,conditions/adaptive.xlsx,test,0.6,0.6,0.6,-0.6,-0.6,right,R,,,,,0,1,1,1,0,72,72,36,,,,,,,,,,,,,,,,,,,,,,,,,,,,470.8672004999971,471.3667978000012,471.3667978000012,471.3667978000012,471.3667978000012,471.3667978000012,471.3667978000012,471.3667978000012,right,1,2.168993799990858,473.0896042000095,473.0896042000095,473.0896042000095,473.0896042000095,473.0896042000095,473.0896042000095,473.0896042000095,473.0896042000095,473.1008881000016,473.1008881000016,473.1008881000016,473.1008881000016,473.1008881000016,473.58949179999763,473.58949179999763,473.58949179999763,473.58949179999763,473.58949179999763,473.58949179999763,473.58949179999763,473.58949179999763,473.58949179999763,474.2097544999997,473.60070629999973,474.22348270000657,1.7300000000000013,474.22348270000657,474.96697069999937,474.96697069999937,475.46689419999893,471.3667978000012,,,,,,,[0.6230137],1.9500000000000013,0.7397260273972602,12007,001,2024-06-14_17h02.22.255,MFTM_A_new1021,2022.2.4,None,
,,,,,,,,stim/Instruction_adaptive.png,conditions/adaptive.xlsx,test,0.6,0.6,0.6,-0.6,-0.6,right,R,,,,,0,1,1,1,0,73,73,64,,,,,,,,,,,,,,,,,,,,,,,,,,,,475.46689419999893,475.9685169000004,475.9685169000004,475.9685169000004,475.9685169000004,475.9685169000004,475.9685169000004,475.9685169000004,right,1,1.3190877000015462,477.6561170000059,477.6561170000059,477.6561170000059,477.6561170000059,477.6561170000059,477.6561170000059,477.6561170000059,477.6561170000059,477.6652863000054,477.6652863000054,477.6652863000054,477.6652863000054,477.6652863000054,478.15614180000557,478.15614180000557,478.15614180000557,478.15614180000557,478.15614180000557,478.15614180000557,478.15614180000557,478.15614180000557,478.15614180000557,478.7774684000033,478.16479080000136,478.79037000000244,1.7000000000000013,478.79037000000244,479.53213560000586,479.53213560000586,480.031951500001,475.9685169000004,,,,,,,[0.62540541],1.9800000000000013,0.7432432432432432,12007,001,2024-06-14_17h02.22.255,MFTM_A_new1021,2022.2.4,None,
,,,,,,,,stim/Instruction_adaptive.png,conditions/adaptive.xlsx,test,0.6,0.6,0.6,-0.6,-0.6,right,R,,,,,0,1,1,1,0,74,74,10,,,,,,,,,,,,,,,,,,,,,,,,,,,,480.031951500001,480.533657100008,480.533657100008,480.533657100008,480.533657100008,480.533657100008,480.533657100008,480.533657100008,right,1,1.9542424000101164,482.1992437000008,482.1992437000008,482.1992437000008,482.1992437000008,482.1992437000008,482.1992437000008,482.1992437000008,482.1992437000008,482.1992437000008,482.1992437000008,482.1992437000008,482.1992437000008,482.1992437000008,482.6985121000034,482.6985121000034,482.6985121000034,482.6985121000034,482.6985121000034,482.6985121000034,482.6985121000034,482.6985121000034,482.6985121000034,483.3208655000053,482.6985121000034,483.3337477000023,1.6700000000000013,483.3337477000023,484.07762690000527,484.07762690000527,484.5778769000026,480.533657100008,,,,,,,[0.62813333],2.0000000000000013,0.7466666666666667,12007,001,2024-06-14_17h02.22.255,MFTM_A_new1021,2022.2.4,None,
,,,,,,,,stim/Instruction_adaptive.png,conditions/adaptive.xlsx,test,-0.6,-0.6,-0.6,0.6,0.6,left,L,,,,,0,1,1,1,0,75,75,71,,,,,,,,,,,,,,,,,,,,,,,,,,,,484.5778769000026,485.0801538000087,485.0801538000087,485.0801538000087,485.0801538000087,485.0801538000087,485.0801538000087,485.0801538000087,left,1,2.0634783999994397,486.7111917000002,486.7111917000002,486.7111917000002,486.7111917000002,486.7111917000002,486.7111917000002,486.7111917000002,486.7111917000002,486.72054599999683,486.72054599999683,486.72054599999683,486.72054599999683,486.72054599999683,487.2133215000067,487.2133215000067,487.2133215000067,487.2133215000067,487.2133215000067,487.2133215000067,487.2133215000067,487.2133215000067,487.2133215000067,487.84717239999736,487.22264220000943,487.84717239999736,1.6400000000000012,487.84717239999736,,488.59983150000335,,485.0801538000087,,,,,,,[0.63118421],2.030000000000001,0.75,12007,001,2024-06-14_17h02.22.255,MFTM_A_new1021,2022.2.4,None,
,,,,,,,,stim/Instruction_adaptive.png,conditions/adaptive.xlsx,test,-0.6,-0.6,-0.6,0.6,0.6,left,L,,,,,0,1,1,1,0,76,76,65,,,,,,,,,,,,,,,,,,,,,,,,,,,,489.0998833000049,489.5998898999969,489.5998898999969,489.5998898999969,489.5998898999969,489.5998898999969,489.5998898999969,489.5998898999969,left,1,1.631450600005337,491.20314650000364,491.20314650000364,491.20314650000364,491.20314650000364,491.20314650000364,491.20314650000364,491.20314650000364,491.20314650000364,491.21184840000933,491.21184840000933,491.21184840000933,491.21184840000933,491.21184840000933,491.7000304000103,491.7000304000103,491.7000304000103,491.7000304000103,491.7000304000103,491.7000304000103,491.7000304000103,491.7000304000103,491.7000304000103,492.3339612999989,491.7096248000016,492.35515309999755,1.6100000000000012,492.35515309999755,,493.1003406000091,,,,,,,,,[0.63454545],2.0500000000000016,0.7532467532467533,12007,001,2024-06-14_17h02.22.255,MFTM_A_new1021,2022.2.4,None,
,,,,,,,,stim/Instruction_adaptive.png,conditions/adaptive.xlsx,test,0.6,0.6,0.6,-0.6,-0.6,right,R,,,,,0,1,1,1,0,77,77,66,,,,,,,,,,,,,,,,,,,,,,,,,,,,493.5996087000094,494.1037243000028,494.1037243000028,494.1037243000028,494.1037243000028,494.1037243000028,494.1037243000028,494.1037243000028,right,1,1.3599897999956738,495.67861780000385,495.67861780000385,495.67861780000385,495.67861780000385,495.67861780000385,495.67861780000385,495.67861780000385,495.67861780000385,495.6904652000085,495.6904652000085,495.6904652000085,495.6904652000085,495.6904652000085,496.17401499999687,496.17401499999687,496.17401499999687,496.17401499999687,496.17401499999687,496.17401499999687,496.17401499999687,496.17401499999687,496.17401499999687,496.8116085000074,496.1975390000007,496.83392350000213,1.5900000000000012,496.83392350000213,,497.58896550000645,,,,,,,,,[0.63807692],2.070000000000001,0.7564102564102564,12007,001,2024-06-14_17h02.22.255,MFTM_A_new1021,2022.2.4,None,
,,,,,,,,stim/Instruction_adaptive.png,conditions/adaptive.xlsx,test,0.6,0.6,0.6,-0.6,-0.6,right,R,,,,,0,1,1,1,0,78,78,60,,,,,,,,,,,,,,,,,,,,,,,,,,,,498.08985920000123,498.5912377000059,498.5912377000059,498.5912377000059,498.5912377000059,498.5912377000059,498.5912377000059,498.5912377000059,right,1,2.0157597999932477,500.14486510001007,500.14486510001007,500.14486510001007,500.14486510001007,500.14486510001007,500.14486510001007,500.14486510001007,500.14486510001007,500.15649400000984,500.15649400000984,500.15649400000984,500.15649400000984,500.15649400000984,500.64488659999915,500.64488659999915,500.64488659999915,500.64488659999915,500.64488659999915,500.64488659999915,500.64488659999915,500.64488659999915,500.64488659999915,501.2892387000029,500.6561098000093,501.3006330000062,1.5700000000000012,501.3006330000062,,502.05572160000156,,,,,,,,,[0.64177215],2.1000000000000014,0.759493670886076,12007,001,2024-06-14_17h02.22.255,MFTM_A_new1021,2022.2.4,None,
,,,,,,,,stim/Instruction_adaptive.png,conditions/adaptive.xlsx,test,0.6,0.6,0.6,-0.6,-0.6,right,R,,,,,0,1,1,1,0,79,79,76,,,,,,,,,,,,,,,,,,,,,,,,,,,,502.5561452999973,503.0587919999962,503.0587919999962,503.0587919999962,503.0587919999962,503.0587919999962,503.0587919999962,503.0587919999962,right,1,1.8926102999976138,504.5664825999993,504.5664825999993,504.5664825999993,504.5664825999993,504.5664825999993,504.5664825999993,504.5664825999993,504.5664825999993,504.58696169999894,504.58696169999894,504.58696169999894,504.58696169999894,504.58696169999894,505.06636750001053,505.06636750001053,505.06636750001053,505.06636750001053,505.06636750001053,505.06636750001053,505.06636750001053,505.06636750001053,505.06636750001053,505.71142659999896,505.08694029999606,505.733561800007,1.5300000000000011,505.733561800007,506.4790628000046,506.4790628000046,506.9774342000019,,,,,,,,[0.645875],2.1200000000000014,0.7625,12007,001,2024-06-14_17h02.22.255,MFTM_A_new1021,2022.2.4,None,
,,,,,,,,stim/Instruction_adaptive.png,conditions/adaptive.xlsx,test,-0.6,-0.6,-0.6,0.6,0.6,left,L,,,,,0,1,1,1,0,80,80,21,,,,,,,,,,,,,,,,,,,,,,,,,,,,506.9774342000019,507.4795532999997,507.4795532999997,507.4795532999997,507.4795532999997,507.4795532999997,507.4795532999997,507.4795532999997,left,1,1.983945699990727,508.9787127000018,508.9787127000018,508.9787127000018,508.9787127000018,508.9787127000018,508.9787127000018,508.9787127000018,508.9787127000018,508.98815540000214,508.98815540000214,508.98815540000214,508.98815540000214,508.98815540000214,509.4802081000089,509.4802081000089,509.4802081000089,509.4802081000089,509.4802081000089,509.4802081000089,509.4802081000089,509.4802081000089,509.4802081000089,510.13396370000555,509.48873170001025,510.1461970000091,1.5100000000000011,510.1461970000091,,510.89983290000237,,507.4795532999997,,,,,,,[0.65012346],2.1400000000000015,0.7654320987654321,12007,001,2024-06-14_17h02.22.255,MFTM_A_new1021,2022.2.4,None,
,,,,,,,,stim/Instruction_adaptive.png,conditions/adaptive.xlsx,test,0.6,0.6,0.6,-0.6,-0.6,right,R,,,,,0,1,1,1,0,81,81,32,,,,,,,,,,,,,,,,,,,,,,,,,,,,511.40083530000993,511.9021252000093,511.9021252000093,511.9021252000093,511.9021252000093,511.9021252000093,511.9021252000093,511.9021252000093,right,1,1.7382261000020662,513.3761792000005,513.3761792000005,513.3761792000005,513.3761792000005,513.3761792000005,513.3761792000005,513.3761792000005,513.3761792000005,513.3892217000102,513.3892217000102,513.3892217000102,513.3892217000102,513.3892217000102,513.8762290000013,513.8762290000013,513.8762290000013,513.8762290000013,513.8762290000013,513.8762290000013,513.8762290000013,513.8762290000013,513.8762290000013,514.5331155000022,513.889791499998,514.5425572000095,1.490000000000001,514.5425572000095,515.2889798999968,515.2889798999968,515.7894238000008,,,,,,,,[0.6545122],2.1600000000000015,0.7682926829268293,12007,001,2024-06-14_17h02.22.255,MFTM_A_new1021,2022.2.4,None,
,,,,,,,,stim/Instruction_adaptive.png,conditions/adaptive.xlsx,test,-0.6,-0.6,-0.6,0.6,0.6,left,L,,,,,0,1,1,1,0,82,82,91,,,,,,,,,,,,,,,,,,,,,,,,,,,,515.7894238000008,516.288558900007,516.288558900007,516.288558900007,516.288558900007,516.288558900007,516.288558900007,516.288558900007,left,1,0.9827748999960022,517.7551833000034,517.7551833000034,517.7551833000034,517.7551833000034,517.7551833000034,517.7551833000034,517.7551833000034,517.7551833000034,517.7551833000034,517.7551833000034,517.7551833000034,517.7551833000034,517.7551833000034,518.2561337000079,518.2561337000079,518.2561337000079,518.2561337000079,518.2561337000079,518.2561337000079,518.2561337000079,518.2561337000079,518.2561337000079,518.9113310999965,518.2561337000079,518.9246882000007,1.470000000000001,518.9246882000007,,519.6774233000033,,516.288558900007,,,,,,,[0.65903614],2.1800000000000015,0.7710843373493976,12007,001,2024-06-14_17h02.22.255,MFTM_A_new1021,2022.2.4,None,
,,,,,,,,stim/Instruction_adaptive.png,conditions/adaptive.xlsx,test,0.6,0.6,0.6,-0.6,-0.6,right,R,,,,,0,1,1,1,0,83,83,0,,,,,,,,,,,,,,,,,,,,,,,,,,,,520.178248199998,520.6774726000003,520.6774726000003,520.6774726000003,520.6774726000003,520.6774726000003,520.6774726000003,520.6774726000003,left,0,1.6573454000026686,522.1113769000076,522.1113769000076,522.1113769000076,522.1113769000076,522.1113769000076,522.1113769000076,522.1113769000076,522.1113769000076,522.1227269000083,522.1227269000083,522.1227269000083,522.1227269000083,522.1227269000083,522.6117518000101,522.6117518000101,522.6117518000101,522.6117518000101,522.6117518000101,522.6117518000101,522.6117518000101,522.6117518000101,522.6117518000101,523.2784352000017,522.6218462999968,523.2916507000045,1.450000000000001,523.2916507000045,,524.0442044000083,,,,,,,,,[0.66369048],2.1200000000000014,0.7619047619047619,12007,001,2024-06-14_17h02.22.255,MFTM_A_new1021,2022.2.4,None,
,,,,,,,,stim/Instruction_adaptive.png,conditions/adaptive.xlsx,test,-0.6,-0.6,-0.6,0.6,0.6,left,L,,,,,0,1,1,1,0,84,84,59,,,,,,,,,,,,,,,,,,,,,,,,,,,,524.5444697000057,525.0473475000035,525.0473475000035,525.0473475000035,525.0473475000035,525.0473475000035,525.0473475000035,525.0473475000035,left,1,1.783901999995578,526.5454948999977,526.5454948999977,526.5454948999977,526.5454948999977,526.5454948999977,526.5454948999977,526.5454948999977,526.5454948999977,526.5542190999986,526.5542190999986,526.5542190999986,526.5542190999986,526.5542190999986,527.0450005000021,527.0450005000021,527.0450005000021,527.0450005000021,527.0450005000021,527.0450005000021,527.0450005000021,527.0450005000021,527.0450005000021,527.7119373000023,527.0543534000026,527.7336109000025,1.5100000000000011,527.7336109000025,,528.4772877000069,,,,,,,,,[0.66752941],2.1400000000000015,0.7647058823529411,12007,001,2024-06-14_17h02.22.255,MFTM_A_new1021,2022.2.4,None,
,,,,,,,,stim/Instruction_adaptive.png,conditions/adaptive.xlsx,test,0.6,0.6,0.6,-0.6,-0.6,right,R,,,,,0,1,1,1,0,85,85,86,,,,,,,,,,,,,,,,,,,,,,,,,,,,528.9774869999965,529.477538200008,529.477538200008,529.477538200008,529.477538200008,529.477538200008,529.477538200008,529.477538200008,left,0,1.826381399994716,530.9559125000087,530.9559125000087,530.9559125000087,530.9559125000087,530.9559125000087,530.9559125000087,530.9559125000087,530.9559125000087,530.9668940999982,530.9668940999982,530.9668940999982,530.9668940999982,530.9668940999982,531.4556733000063,531.4556733000063,531.4556733000063,531.4556733000063,531.4556733000063,531.4556733000063,531.4556733000063,531.4556733000063,531.4556733000063,532.1229254000064,531.4672086000064,532.1362124000007,1.490000000000001,532.1362124000007,,532.8888543000066,,,,,,,,,[0.67151163],2.0800000000000014,0.7558139534883721,12007,001,2024-06-14_17h02.22.255,MFTM_A_new1021,2022.2.4,None,
,,,,,,,,stim/Instruction_adaptive.png,conditions/adaptive.xlsx,test,0.6,0.6,0.6,-0.6,-0.6,right,R,,,,,0,1,1,1,0,86,86,4,,,,,,,,,,,,,,,,,,,,,,,,,,,,533.3887182000035,533.8900681000086,533.8900681000086,533.8900681000086,533.8900681000086,533.8900681000086,533.8900681000086,533.8900681000086,left,0,2.1418143999908352,535.437545599998,535.437545599998,535.437545599998,535.437545599998,535.437545599998,535.437545599998,535.437545599998,535.437545599998,535.4447849999997,535.4447849999997,535.4447849999997,535.4447849999997,535.4447849999997,535.9335464000033,535.9335464000033,535.9335464000033,535.9335464000033,535.9335464000033,535.9335464000033,535.9335464000033,535.9335464000033,535.9335464000033,536.609684199997,535.9430142000056,536.623477400004,1.5600000000000012,536.623477400004,,537.3775146999978,,,,,,,,,[0.6745977],2.0200000000000014,0.7471264367816092,12007,001,2024-06-14_17h02.22.255,MFTM_A_new1021,2022.2.4,None,
,,,,,,,,stim/Instruction_adaptive.png,conditions/adaptive.xlsx,test,-0.6,-0.6,-0.6,0.6,0.6,left,L,,,,,0,1,1,1,0,87,87,99,,,,,,,,,,,,,,,,,,,,,,,,,,,,537.8782745000062,538.3781828000065,538.3781828000065,538.3781828000065,538.3781828000065,538.3781828000065,538.3781828000065,538.3781828000065,right,0,2.2773593999881996,539.9781866999983,539.9781866999983,539.9781866999983,539.9781866999983,539.9781866999983,539.9781866999983,539.9781866999983,539.9781866999983,539.9982536000025,539.9982536000025,539.9982536000025,539.9982536000025,539.9982536000025,540.4774418000015,540.4774418000015,540.4774418000015,540.4774418000015,540.4774418000015,540.4774418000015,540.4774418000015,540.4774418000015,540.4774418000015,541.1562810000032,540.4980956000072,541.1779161000013,1.6200000000000012,541.1779161000013,541.9225602000079,541.9225602000079,542.4222725,,,,,,,,[0.67693182],1.9600000000000013,0.7386363636363636,12007,001,2024-06-14_17h02.22.255,MFTM_A_new1021,2022.2.4,None,
,,,,,,,,stim/Instruction_adaptive.png,conditions/adaptive.xlsx,test,0.6,0.6,0.6,-0.6,-0.6,right,R,,,,,0,1,1,1,0,88,88,82,,,,,,,,,,,,,,,,,,,,,,,,,,,,542.4222725,542.9232646000019,542.9232646000019,542.9232646000019,542.9232646000019,542.9232646000019,542.9232646000019,542.9232646000019,right,1,2.2999813000060385,544.6108704000071,544.6108704000071,544.6108704000071,544.6108704000071,544.6108704000071,544.6108704000071,544.6108704000071,544.6108704000071,544.6108704000071,544.6108704000071,544.6108704000071,544.6108704000071,544.6108704000071,545.111659400005,545.111659400005,545.111659400005,545.111659400005,545.111659400005,545.111659400005,545.111659400005,545.111659400005,545.111659400005,545.7899296000105,545.111659400005,545.7899296000105,1.6900000000000013,545.7899296000105,,546.5447710000008,,542.9232646000019,,,,,,,[0.67842697],1.9800000000000013,0.7415730337078652,12007,001,2024-06-14_17h02.22.255,MFTM_A_new1021,2022.2.4,None,
,,,,,,,,stim/Instruction_adaptive.png,conditions/adaptive.xlsx,test,0.6,0.6,0.6,-0.6,-0.6,right,R,,,,,0,1,1,1,0,89,89,8,,,,,,,,,,,,,,,,,,,,,,,,,,,,547.0450393000065,547.5460412000102,547.5460412000102,547.5460412000102,547.5460412000102,547.5460412000102,547.5460412000102,547.5460412000102,right,1,1.7582210999971721,549.2002266000054,549.2002266000054,549.2002266000054,549.2002266000054,549.2002266000054,549.2002266000054,549.2002266000054,549.2002266000054,549.2114182000078,549.2114182000078,549.2114182000078,549.2114182000078,549.2114182000078,549.7001908000093,549.7001908000093,549.7001908000093,549.7001908000093,549.7001908000093,549.7001908000093,549.7001908000093,549.7001908000093,549.7001908000093,550.3782113000052,549.711662200003,550.4017220000096,1.6700000000000013,550.4017220000096,,551.155765500007,,,,,,,,,[0.68011111],2.0000000000000013,0.7444444444444445,12007,001,2024-06-14_17h02.22.255,MFTM_A_new1021,2022.2.4,None,
,,,,,,,,stim/Instruction_adaptive.png,conditions/adaptive.xlsx,test,-0.6,-0.6,-0.6,0.6,0.6,left,L,,,,,0,1,1,1,0,90,90,1,,,,,,,,,,,,,,,,,,,,,,,,,,,,551.6565440999984,552.1551571000018,552.1551571000018,552.1551571000018,552.1551571000018,552.1551571000018,552.1551571000018,552.1551571000018,left,1,1.8516077999956906,553.7789558000077,553.7789558000077,553.7789558000077,553.7789558000077,553.7789558000077,553.7789558000077,553.7789558000077,553.7789558000077,553.7900824999961,553.7900824999961,553.7900824999961,553.7900824999961,553.7900824999961,554.2763877999969,554.2763877999969,554.2763877999969,554.2763877999969,554.2763877999969,554.2763877999969,554.2763877999969,554.2763877999969,554.2763877999969,554.9552293000015,554.3001867999992,554.9785716000042,1.6400000000000012,554.9785716000042,,555.7332431999967,,,,,,,,,[0.68208791],2.0200000000000014,0.7472527472527473,12007,001,2024-06-14_17h02.22.255,MFTM_A_new1021,2022.2.4,None,
,,,,,,,,stim/Instruction_adaptive.png,conditions/adaptive.xlsx,test,-0.6,-0.6,-0.6,0.6,0.6,left,L,,,,,0,1,1,1,0,91,91,11,,,,,,,,,,,,,,,,,,,,,,,,,,,,556.2338545000093,556.7414218000049,556.7414218000049,556.7414218000049,556.7414218000049,556.7414218000049,556.7414218000049,556.7414218000049,left,1,1.9389701999898534,558.3322575000057,558.3322575000057,558.3322575000057,558.3322575000057,558.3322575000057,558.3322575000057,558.3322575000057,558.3322575000057,558.3559919999971,558.3559919999971,558.3559919999971,558.3559919999971,558.3559919999971,558.8319246000028,558.8319246000028,558.8319246000028,558.8319246000028,558.8319246000028,558.8319246000028,558.8319246000028,558.8319246000028,558.8319246000028,559.5112023999973,558.8558848999965,559.5447905000037,1.6200000000000012,559.5447905000037,560.2979859000043,560.2979859000043,,,,,,,,,[0.68423913],2.0400000000000014,0.75,12007,001,2024-06-14_17h02.22.255,MFTM_A_new1021,2022.2.4,None,
,,,,,,,,stim/Instruction_adaptive.png,conditions/adaptive.xlsx,test,0.6,0.6,0.6,-0.6,-0.6,right,R,,,,,0,1,1,1,0,92,92,54,,,,,,,,,,,,,,,,,,,,,,,,,,,,560.7983582000015,561.2981985000079,561.2981985000079,561.2981985000079,561.2981985000079,561.2981985000079,561.2981985000079,561.2981985000079,right,1,1.6048814999958267,562.8780291000003,562.8780291000003,562.8780291000003,562.8780291000003,562.8780291000003,562.8780291000003,562.8780291000003,562.8780291000003,562.8982332000014,562.8982332000014,562.8982332000014,562.8982332000014,562.8982332000014,563.37813740001,563.37813740001,563.37813740001,563.37813740001,563.37813740001,563.37813740001,563.37813740001,563.37813740001,563.37813740001,564.0652597000008,563.3980053999985,564.0919252000022,1.6000000000000012,564.0919252000022,,564.845350500007,,,,,,,,,[0.68655914],2.0600000000000014,0.7526881720430108,12007,001,2024-06-14_17h02.22.255,MFTM_A_new1021,2022.2.4,None,
,,,,,,,,stim/Instruction_adaptive.png,conditions/adaptive.xlsx,test,0.6,0.6,0.6,-0.6,-0.6,right,R,,,,,0,1,1,1,0,93,93,68,,,,,,,,,,,,,,,,,,,,,,,,,,,,565.3444320999988,565.8444529999979,565.8444529999979,565.8444529999979,565.8444529999979,565.8444529999979,565.8444529999979,565.8444529999979,right,1,1.2356333000061568,567.4124309000035,567.4124309000035,567.4124309000035,567.4124309000035,567.4124309000035,567.4124309000035,567.4124309000035,567.4124309000035,567.4215985000046,567.4215985000046,567.4215985000046,567.4215985000046,567.4215985000046,567.9115886000072,567.9115886000072,567.9115886000072,567.9115886000072,567.9115886000072,567.9115886000072,567.9115886000072,567.9115886000072,567.9115886000072,568.599635999999,567.9205643000023,568.6116020000045,1.5800000000000012,568.6116020000045,569.353548500003,569.353548500003,569.8534967000014,,,,,,,,[0.68904255],2.0800000000000014,0.7553191489361702,12007,001,2024-06-14_17h02.22.255,MFTM_A_new1021,2022.2.4,None,
,,,,,,,,stim/Instruction_adaptive.png,conditions/adaptive.xlsx,test,-0.6,-0.6,-0.6,0.6,0.6,left,L,,,,,0,1,1,1,0,94,94,51,,,,,,,,,,,,,,,,,,,,,,,,,,,,569.8534967000014,570.3664309000014,570.3664309000014,570.3664309000014,570.3664309000014,570.3664309000014,570.3664309000014,570.3664309000014,left,1,1.992810700001428,571.9110999999975,571.9110999999975,571.9110999999975,571.9110999999975,571.9110999999975,571.9110999999975,571.9110999999975,571.9110999999975,571.9223359000025,571.9223359000025,571.9223359000025,571.9223359000025,571.9223359000025,572.4097497000039,572.4097497000039,572.4097497000039,572.4097497000039,572.4097497000039,572.4097497000039,572.4097497000039,572.4097497000039,572.4097497000039,573.1003677999979,572.4228416999977,573.1228311000013,1.5600000000000012,573.1228311000013,573.8665788000071,573.8665788000071,574.3664238000056,570.3664309000014,,,,,,,[0.69168421],2.1000000000000014,0.7578947368421053,12007,001,2024-06-14_17h02.22.255,MFTM_A_new1021,2022.2.4,None,
