arrwidth1,arrwidth2,arrwidth3,arrwidth4,arrwidth5,keyb,type,orientation,instruction_image,block_filename,block_type,arrow11,arrow22,arrow33,arrow44,arrow55,keyb_3,orientation3,trials.thisRepN,trials.thisTrialN,trials.thisN,trials.thisIndex,trials_3.thisRepN,trials_3.thisTrialN,trials_3.thisN,trials_3.thisIndex,trials_2.thisRepN,trials_2.thisTrialN,trials_2.thisN,trials_2.thisIndex,welcome.started,welcome.stopped,key_resp.keys,key_resp.rt,key_resp.started,key_resp.stopped,instruction_example.started,instruction_example.stopped,key_resp_3.keys,key_resp_3.rt,key_resp_3.started,key_resp_3.stopped,instruction_task.started,instruction_task.stopped,key_resp_2.keys,key_resp_2.rt,key_resp_2.started,key_resp_2.stopped,text_2.started,text_2.stopped,A1.started,A1.stopped,A2.started,A2.stopped,A3.started,A3.stopped,A4.started,A4.stopped,A5.started,A5.stopped,key_resp_4.keys,key_resp_4.corr,key_resp_4.rt,key_resp_4.started,key_resp_4.stopped,fb.started,fb.stopped,instruction_block.started,instruction_block.stopped,key_resp_8.keys,key_resp_8.rt,key_resp_8.started,key_resp_8.stopped,text_8.started,text_8.stopped,key_resp_9.keys,key_resp_9.corr,key_resp_9.rt,text_5.started,text_5.stopped,A11_3.started,A11_3.stopped,A22_2.started,A22_2.stopped,A33_2.started,A33_2.stopped,A44_2.started,A44_2.stopped,A55_2.started,A55_2.stopped,M1_3.started,M1_3.stopped,M2_2.started,M2_2.stopped,M3_2.started,M3_2.stopped,M4_2.started,M4_2.stopped,M5_2.started,M5_2.stopped,M6_2.started,M6_2.stopped,M7_2.started,M7_2.stopped,M8_2.started,M8_2.stopped,key_resp_9.started,key_resp_9.stopped,fixation.started,fixation.stopped,ET,fb_3.started,fb_3.stopped,text_9.started,text_9.stopped,fb_4.started,fb_4.stopped,text_7.started,text_7.stopped,endtext.started,endtext.stopped,fixation_ITI,CCC,Acc,participant,session,date,expName,psychopyVersion,frameRate,
,,,,,,,,,,,,,,,,,,,,,,,,,,,,,,12.916632300009951,None,right,0.49955699997371994,12.916632300009951,None,,,,,,,,,,,,,,,,,,,,,,,,,,,,,,,,,,,,,,,,,,,,,,,,,,,,,,,,,,,,,,,,,,,,,,,,,,,,,,,,,,,,,,,,,12012,001,2024_Jun_18_1734,MFTM_A_new1021,2021.2.3,60.24956575430466,
,,,,,,,,,,,,,,,,,,,,,,,,,,,,,,,,,,,,13.434081999992486,None,right,3.576069100003224,13.434081999992486,None,,,,,,,,,,,,,,,,,,,,,,,,,,,,,,,,,,,,,,,,,,,,,,,,,,,,,,,,,,,,,,,,,,,,,,,,,,,,,,,,,,,12012,001,2024_Jun_18_1734,MFTM_A_new1021,2021.2.3,60.24956575430466,
,,,,,,,,,,,,,,,,,,,,,,,,,,,,,,,,,,,,,,,,,,17.039684999996098,None,right,7.145956199994544,17.039684999996098,None,,,,,,,,,,,,,,,,,,,,,,,,,,,,,,,,,,,,,,,,,,,,,,,,,,,,,,,,,,,,,,,,,,,,,,,,,,,,,12012,001,2024_Jun_18_1734,MFTM_A_new1021,2021.2.3,60.24956575430466,
0.6,0.6,0.6,-0.6,-0.6,right,3:2,R,,,,,,,,,,,0,0,0,0,,,,,,,,,,,,,,,,,,,,,,,,,,,24.234338300011586,None,24.234338300011586,None,24.234338300011586,None,24.234338300011586,None,24.234338300011586,None,24.234338300011586,None,right,1,3.5950964000076056,24.234338300011586,None,27.873152500018477,None,,,,,,,,,,,,,,,,,,,,,,,,,,,,,,,,,,,,,,,,,,,,,,,,,,,,,,,,,,12012,001,2024_Jun_18_1734,MFTM_A_new1021,2021.2.3,60.24956575430466,
-0.6,-0.6,-0.6,0.6,0.6,left,3:2,L,,,,,,,,,,,0,1,1,1,,,,,,,,,,,,,,,,,,,,,,,,,,,28.623678200005088,None,28.623678200005088,None,28.623678200005088,None,28.623678200005088,None,28.623678200005088,None,28.623678200005088,None,left,1,1.9023510999977589,28.623678200005088,None,30.543556100019487,None,,,,,,,,,,,,,,,,,,,,,,,,,,,,,,,,,,,,,,,,,,,,,,,,,,,,,,,,,,12012,001,2024_Jun_18_1734,MFTM_A_new1021,2021.2.3,60.24956575430466,
0.6,0.6,0.6,-0.6,-0.6,right,3:2,R,,,,,,,,,,,1,0,2,0,,,,,,,,,,,,,,,,,,,,,,,,,,,31.294409499998437,None,31.294409499998437,None,31.294409499998437,None,31.294409499998437,None,31.294409499998437,None,31.294409499998437,None,right,1,1.8230777999851853,31.294409499998437,None,33.14714069999172,None,,,,,,,,,,,,,,,,,,,,,,,,,,,,,,,,,,,,,,,,,,,,,,,,,,,,,,,,,,12012,001,2024_Jun_18_1734,MFTM_A_new1021,2021.2.3,60.24956575430466,
-0.6,-0.6,-0.6,0.6,0.6,left,3:2,L,,,,,,,,,,,1,1,3,1,,,,,,,,,,,,,,,,,,,,,,,,,,,33.89851339999586,None,33.89851339999586,None,33.89851339999586,None,33.89851339999586,None,33.89851339999586,None,33.89851339999586,None,left,1,1.4672403000004124,33.89851339999586,None,35.38413670001319,None,,,,,,,,,,,,,,,,,,,,,,,,,,,,,,,,,,,,,,,,,,,,,,,,,,,,,,,,,,12012,001,2024_Jun_18_1734,MFTM_A_new1021,2021.2.3,60.24956575430466,
,,,,,,,,stim/Instruction_mask.png,conditions/adaptive.xlsx,practice,0.6,0.6,0.6,-0.6,-0.6,right,R,,,,,0,0,0,0,0,0,0,42,,,,,,,,,,,,,,,,,,,,,,,,,,,,,,,,,,,,,,36.352089199994225,None,space,28.678171400009887,36.352089199994225,None,65.14535330000217,None,right,1,1.2434436000185087,65.57919750001747,None,65.57919750001747,68.58401409999351,65.57919750001747,68.58401409999351,65.57919750001747,68.58401409999351,65.57919750001747,68.58401409999351,65.57919750001747,68.58401409999351,68.56739320000634,69.06796060001943,68.56739320000634,69.06796060001943,68.56739320000634,69.06796060001943,68.56739320000634,69.06796060001943,68.56739320000634,69.06796060001943,68.56739320000634,69.06796060001943,68.56739320000634,69.06796060001943,68.56739320000634,69.06796060001943,65.57919750001747,None,69.06796060001943,69.06796060001943,3,69.08485079999082,None,69.83580200001597,None,,,,,,,,,,12012,001,2024_Jun_18_1734,MFTM_A_new1021,2021.2.3,60.24956575430466,
,,,,,,,,stim/Instruction_mask.png,conditions/adaptive.xlsx,practice,0.6,0.6,0.6,-0.6,-0.6,right,R,,,,,0,0,0,0,0,1,1,70,,,,,,,,,,,,,,,,,,,,,,,,,,,,,,,,,,,,,,,,,,,,70.33730519999517,None,right,1,2.4497243000078015,70.8373816999956,72.84138840000378,70.8373816999956,72.34030929999426,70.8373816999956,72.34030929999426,70.8373816999956,72.34030929999426,70.8373816999956,72.34030929999426,70.8373816999956,72.34030929999426,72.3237652000098,72.82414909999352,72.3237652000098,72.82414909999352,72.3237652000098,72.82414909999352,72.3237652000098,72.82414909999352,72.3237652000098,72.82414909999352,72.3237652000098,72.82414909999352,72.3237652000098,72.82414909999352,72.3237652000098,72.82414909999352,70.8373816999956,None,72.82414909999352,74.32652669999516,1.5,74.34327660000417,None,75.09368389999145,None,,,,,,,,,,12012,001,2024_Jun_18_1734,MFTM_A_new1021,2021.2.3,60.24956575430466,
,,,,,,,,stim/Instruction_mask.png,conditions/adaptive.xlsx,practice,-0.6,-0.6,-0.6,0.6,0.6,left,L,,,,,0,0,0,0,0,2,2,99,,,,,,,,,,,,,,,,,,,,,,,,,,,,,,,,,,,,,,,,,,,,75.59509320001234,None,left,1,2.119619600009173,76.09564060001867,77.39724489999935,76.09564060001867,76.89661429999978,76.09564060001867,76.89661429999978,76.09564060001867,76.89661429999978,76.09564060001867,76.89661429999978,76.09564060001867,76.89661429999978,76.88065410000854,77.3805595000158,76.88065410000854,77.3805595000158,76.88065410000854,77.3805595000158,76.88065410000854,77.3805595000158,76.88065410000854,77.3805595000158,76.88065410000854,77.3805595000158,76.88065410000854,77.3805595000158,76.88065410000854,77.3805595000158,76.09564060001867,None,77.3805595000158,79.58392190001905,0.8,79.6006641999993,None,80.35186900000554,None,,,,,,,,,,12012,001,2024_Jun_18_1734,MFTM_A_new1021,2021.2.3,60.24956575430466,
,,,,,,,,stim/Instruction_mask.png,conditions/adaptive.xlsx,practice,-0.6,-0.6,-0.6,0.6,0.6,left,L,,,,,0,0,0,0,0,3,3,65,,,,,,,,,,,,,,,,,,,,,,,,,,,,,,,,,,,,,,,,,,,,80.85269709999557,None,left,1,1.3817955999984406,81.35319460000028,82.10464380000485,81.35319460000028,81.60391490001348,81.35319460000028,81.60391490001348,81.35319460000028,81.60391490001348,81.35319460000028,81.60391490001348,81.35319460000028,81.60391490001348,81.58736850001151,82.08764129999327,81.58736850001151,82.08764129999327,81.58736850001151,82.08764129999327,81.58736850001151,82.08764129999327,81.58736850001151,82.08764129999327,81.58736850001151,82.08764129999327,81.58736850001151,82.08764129999327,81.58736850001151,82.08764129999327,81.35319460000028,None,82.08764129999327,84.84163400001125,3,84.8585709000181,None,85.61037660000147,None,,,,,,,,,,12012,001,2024_Jun_18_1734,MFTM_A_new1021,2021.2.3,60.24956575430466,
,,,,,,,,stim/Instruction_mask.png,conditions/adaptive.xlsx,practice,,,,,,,,,,,,0,0,0,0,,,,,,,,,,,,,,,,,,,,,,,,,,,,,,,,,,,,,,,,,,,,,,,,,,,,,,,,,,,,,,,,,,,,,,,,,,,,,,,,,,,,,,,,,,86.12694909999846,87.13030630000867,87.11273799999617,87.11273799999617,87.11273799999617,None,,,,12012,001,2024_Jun_18_1734,MFTM_A_new1021,2021.2.3,60.24956575430466,
,,,,,,,,stim/Instruction_adaptive.png,conditions/adaptive.xlsx,test,0.6,0.6,0.6,-0.6,-0.6,right,R,,,,,0,1,1,1,0,0,0,40,,,,,,,,,,,,,,,,,,,,,,,,,,,,,,,,,,,,,,90.23318400001153,None,space,15.518602900003316,90.23318400001153,None,105.78981429999112,None,right,1,1.780697499983944,106.29104630000074,None,106.29104630000074,109.29545309999958,106.29104630000074,109.29545309999958,106.29104630000074,109.29545309999958,106.29104630000074,109.29545309999958,106.29104630000074,109.29545309999958,109.27865520000341,109.78005090000806,109.27865520000341,109.78005090000806,109.27865520000341,109.78005090000806,109.27865520000341,109.78005090000806,109.27865520000341,109.78005090000806,109.27865520000341,109.78005090000806,109.27865520000341,109.78005090000806,109.27865520000341,109.78005090000806,106.29104630000074,None,109.78005090000806,109.78005090000806,3,109.79594179999549,None,110.54797790001612,None,,,,,,,0,6.000000000000005,1.0,12012,001,2024_Jun_18_1734,MFTM_A_new1021,2021.2.3,60.24956575430466,
,,,,,,,,stim/Instruction_adaptive.png,conditions/adaptive.xlsx,test,0.6,0.6,0.6,-0.6,-0.6,right,R,,,,,0,1,1,1,0,1,1,62,,,,,,,,,,,,,,,,,,,,,,,,,,,,,,,,,,,,,,,,,,,,111.04798560001655,None,right,1,1.531233699992299,111.54885419999482,112.29998589999741,111.54885419999482,111.80045480001718,111.54885419999482,111.80045480001718,111.54885419999482,111.80045480001718,111.54885419999482,111.80045480001718,111.54885419999482,111.80045480001718,111.78258900000947,112.28373270001612,111.78258900000947,112.28373270001612,111.78258900000947,112.28373270001612,111.78258900000947,112.28373270001612,111.78258900000947,112.28373270001612,111.78258900000947,112.28373270001612,111.78258900000947,112.28373270001612,111.78258900000947,112.28373270001612,111.54885419999482,None,112.28373270001612,113.16836710000644,0.25,113.18462360001286,None,113.93633399999817,None,,,,,,,[0.875],6.000000000000005,1.0,12012,001,2024_Jun_18_1734,MFTM_A_new1021,2021.2.3,60.24956575430466,
,,,,,,,,stim/Instruction_adaptive.png,conditions/adaptive.xlsx,test,0.6,0.6,0.6,-0.6,-0.6,right,R,,,,,0,1,1,1,0,2,2,42,,,,,,,,,,,,,,,,,,,,,,,,,,,,,,,,,,,,,,,,,,,,114.43691489999765,None,left,0,1.6065729999972973,114.93709990000934,115.68832889999612,114.93709990000934,115.18784170001163,114.93709990000934,115.18784170001163,114.93709990000934,115.18784170001163,114.93709990000934,115.18784170001163,114.93709990000934,115.18784170001163,115.17093829999794,115.67139780000434,115.17093829999794,115.67139780000434,115.17093829999794,115.67139780000434,115.17093829999794,115.67139780000434,115.17093829999794,115.67139780000434,115.17093829999794,115.67139780000434,115.17093829999794,115.67139780000434,115.17093829999794,115.67139780000434,114.93709990000934,None,115.67139780000434,117.00776090001455,0.25,117.02333029999863,None,117.7753367999976,None,,,,,,,[1.33333333],3.1800000000000024,0.6666666666666666,12012,001,2024_Jun_18_1734,MFTM_A_new1021,2021.2.3,60.24956575430466,
,,,,,,,,stim/Instruction_adaptive.png,conditions/adaptive.xlsx,test,-0.6,-0.6,-0.6,0.6,0.6,left,L,,,,,0,1,1,1,0,3,3,99,,,,,,,,,,,,,,,,,,,,,,,,,,,,,,,,,,,,,,,,,,,,118.275810799998,None,left,1,1.783875299995998,118.77625100000296,120.01152410000213,118.77625100000296,119.51089959999081,118.77625100000296,119.51089959999081,118.77625100000296,119.51089959999081,118.77625100000296,119.51089959999081,118.77625100000296,119.51089959999081,119.49389660000452,119.9953719000041,119.49389660000452,119.9953719000041,119.49389660000452,119.9953719000041,119.49389660000452,119.9953719000041,119.49389660000452,119.9953719000041,119.49389660000452,119.9953719000041,119.49389660000452,119.9953719000041,119.49389660000452,119.9953719000041,118.77625100000296,None,119.9953719000041,None,0.7300000000000004,121.44688239999232,None,122.19827590000932,None,,,,,,,[1.4425],4.030000000000003,0.75,12012,001,2024_Jun_18_1734,MFTM_A_new1021,2021.2.3,60.24956575430466,
,,,,,,,,stim/Instruction_adaptive.png,conditions/adaptive.xlsx,test,-0.6,-0.6,-0.6,0.6,0.6,left,L,,,,,0,1,1,1,0,4,4,37,,,,,,,,,,,,,,,,,,,,,,,,,,,,,,,,,,,,,,,,,,,,122.69897029999993,None,left,1,1.0724691999785136,123.19953230000101,124.10106670000823,123.19953230000101,123.60015600000042,123.19953230000101,123.60015600000042,123.19953230000101,123.60015600000042,123.19953230000101,123.60015600000042,123.19953230000101,123.60015600000042,123.5836319999944,124.08415110001806,123.5836319999944,124.08415110001806,123.5836319999944,124.08415110001806,123.5836319999944,124.08415110001806,123.5836319999944,124.08415110001806,123.5836319999944,124.08415110001806,123.5836319999944,124.08415110001806,123.5836319999944,124.08415110001806,123.19953230000101,None,124.08415110001806,125.67022430000361,0.40000000000000013,125.68676790001336,None,126.4382867999957,None,,,,,,,[1.574],4.550000000000003,0.8,12012,001,2024_Jun_18_1734,MFTM_A_new1021,2021.2.3,60.24956575430466,
,,,,,,,,stim/Instruction_adaptive.png,conditions/adaptive.xlsx,test,-0.6,-0.6,-0.6,0.6,0.6,left,L,,,,,0,1,1,1,0,5,5,43,,,,,,,,,,,,,,,,,,,,,,,,,,,,,,,,,,,,,,,,,,,,126.93879020001623,None,left,1,1.6168344000179786,127.43924140001764,128.2245777999924,127.43924140001764,127.72396249999292,127.43924140001764,127.72396249999292,127.43924140001764,127.72396249999292,127.43924140001764,127.72396249999292,127.43924140001764,127.72396249999292,127.70651489999727,128.2072465000092,127.70651489999727,128.2072465000092,127.70651489999727,128.2072465000092,127.70651489999727,128.2072465000092,127.70651489999727,128.2072465000092,127.70651489999727,128.2072465000092,127.70651489999727,128.2072465000092,127.70651489999727,128.2072465000092,127.43924140001764,None,128.2072465000092,129.89429930000915,0.28,129.90992679999908,None,130.6608716000046,None,,,,,,,[1.68166667],4.910000000000004,0.8333333333333334,12012,001,2024_Jun_18_1734,MFTM_A_new1021,2021.2.3,60.24956575430466,
,,,,,,,,stim/Instruction_adaptive.png,conditions/adaptive.xlsx,test,-0.6,-0.6,-0.6,0.6,0.6,left,L,,,,,0,1,1,1,0,6,6,19,,,,,,,,,,,,,,,,,,,,,,,,,,,,,,,,,,,,,,,,,,,,131.1622915000189,None,left,1,2.186731800000416,131.66260360000888,132.41358069999842,131.66260360000888,131.91361590000452,131.66260360000888,131.91361590000452,131.66260360000888,131.91361590000452,131.66260360000888,131.91361590000452,131.66260360000888,131.91361590000452,131.89620799999102,132.39745039999252,131.89620799999102,132.39745039999252,131.89620799999102,132.39745039999252,131.89620799999102,132.39745039999252,131.89620799999102,132.39745039999252,131.89620799999102,132.39745039999252,131.89620799999102,132.39745039999252,131.89620799999102,132.39745039999252,131.66260360000888,None,132.39745039999252,134.1659859000065,0.25,134.18268030000036,None,134.93409500000416,None,,,,,,,[1.76285714],5.180000000000004,0.8571428571428571,12012,001,2024_Jun_18_1734,MFTM_A_new1021,2021.2.3,60.24956575430466,
,,,,,,,,stim/Instruction_adaptive.png,conditions/adaptive.xlsx,test,0.6,0.6,0.6,-0.6,-0.6,right,R,,,,,0,1,1,1,0,7,7,18,,,,,,,,,,,,,,,,,,,,,,,,,,,,,,,,,,,,,,,,,,,,135.4351821000164,None,right,1,2.6168816999997944,135.9358501000097,136.68711279999116,135.9358501000097,136.18575770000461,135.9358501000097,136.18575770000461,135.9358501000097,136.18575770000461,135.9358501000097,136.18575770000461,135.9358501000097,136.18575770000461,136.1693837000057,136.6699687000073,136.1693837000057,136.6699687000073,136.1693837000057,136.6699687000073,136.1693837000057,136.6699687000073,136.1693837000057,136.6699687000073,136.1693837000057,136.6699687000073,136.1693837000057,136.6699687000073,136.1693837000057,136.6699687000073,135.9358501000097,None,136.6699687000073,138.57362800001283,0.25,138.5894960000005,None,139.34143950001453,None,,,,,,,[1.82375],5.380000000000004,0.875,12012,001,2024_Jun_18_1734,MFTM_A_new1021,2021.2.3,60.24956575430466,
,,,,,,,,stim/Instruction_adaptive.png,conditions/adaptive.xlsx,test,0.6,0.6,0.6,-0.6,-0.6,right,R,,,,,0,1,1,1,0,8,8,94,,,,,,,,,,,,,,,,,,,,,,,,,,,,,,,,,,,,,,,,,,,,139.8413106999942,None,left,0,2.7546736000222154,140.34236390001024,141.0943450999912,140.34236390001024,140.5935875000141,140.34236390001024,140.5935875000141,140.34236390001024,140.5935875000141,140.34236390001024,140.5935875000141,140.34236390001024,140.5935875000141,140.5759173000115,141.07755280000856,140.5759173000115,141.07755280000856,140.5759173000115,141.07755280000856,140.5759173000115,141.07755280000856,140.5759173000115,141.07755280000856,140.5759173000115,141.07755280000856,140.5759173000115,141.07755280000856,140.5759173000115,141.07755280000856,140.34236390001024,None,141.07755280000856,143.11316030001035,0.25,143.1298689999967,None,143.88100670001586,None,,,,,,,[1.87111111],4.620000000000004,0.7777777777777778,12012,001,2024_Jun_18_1734,MFTM_A_new1021,2021.2.3,60.24956575430466,
,,,,,,,,stim/Instruction_adaptive.png,conditions/adaptive.xlsx,test,0.6,0.6,0.6,-0.6,-0.6,right,R,,,,,0,1,1,1,0,9,9,34,,,,,,,,,,,,,,,,,,,,,,,,,,,,,,,,,,,,,,,,,,,,144.3815934000013,None,right,1,1.9663857000123244,144.88243359999615,145.66685710000456,144.88243359999615,145.1665670000075,144.88243359999615,145.1665670000075,144.88243359999615,145.1665670000075,144.88243359999615,145.1665670000075,144.88243359999615,145.1665670000075,145.13284800000838,145.63348039999255,145.13284800000838,145.63348039999255,145.13284800000838,145.63348039999255,145.13284800000838,145.63348039999255,145.13284800000838,145.63348039999255,145.13284800000838,145.63348039999255,145.13284800000838,145.63348039999255,145.13284800000838,145.63348039999255,144.88243359999615,None,145.63348039999255,147.5529402999964,0.27,147.56970330001786,None,148.32079729999532,None,,,,,,,[1.907],4.830000000000004,0.8,12012,001,2024_Jun_18_1734,MFTM_A_new1021,2021.2.3,60.24956575430466,
,,,,,,,,stim/Instruction_adaptive.png,conditions/adaptive.xlsx,test,0.6,0.6,0.6,-0.6,-0.6,right,R,,,,,0,1,1,1,0,10,10,50,,,,,,,,,,,,,,,,,,,,,,,,,,,,,,,,,,,,,,,,,,,,148.82256309999502,None,right,1,1.5821460000006482,149.3224206000159,150.07359410001663,149.3224206000159,149.57255340000847,149.3224206000159,149.57255340000847,149.3224206000159,149.57255340000847,149.3224206000159,149.57255340000847,149.3224206000159,149.57255340000847,149.55617870000424,150.0567466999928,149.55617870000424,150.0567466999928,149.55617870000424,150.0567466999928,149.55617870000424,150.0567466999928,149.55617870000424,150.0567466999928,149.55617870000424,150.0567466999928,149.55617870000424,150.0567466999928,149.55617870000424,150.0567466999928,149.3224206000159,None,150.0567466999928,None,0.25,152.00984060001792,None,152.76134699999238,None,,,,,,,[1.93818182],5.0000000000000036,0.8181818181818182,12012,001,2024_Jun_18_1734,MFTM_A_new1021,2021.2.3,60.24956575430466,
,,,,,,,,stim/Instruction_adaptive.png,conditions/adaptive.xlsx,test,0.6,0.6,0.6,-0.6,-0.6,right,R,,,,,0,1,1,1,0,11,11,32,,,,,,,,,,,,,,,,,,,,,,,,,,,,,,,,,,,,,,,,,,,,153.2614947000111,None,right,1,2.135456799995154,153.76249769999413,154.51350620001904,153.76249769999413,154.01279470001464,153.76249769999413,154.01279470001464,153.76249769999413,154.01279470001464,153.76249769999413,154.01279470001464,153.76249769999413,154.01279470001464,153.99613469999167,154.49690930001088,153.99613469999167,154.49690930001088,153.99613469999167,154.49690930001088,153.99613469999167,154.49690930001088,153.99613469999167,154.49690930001088,153.99613469999167,154.49690930001088,153.99613469999167,154.49690930001088,153.99613469999167,154.49690930001088,153.76249769999413,None,154.49690930001088,156.46697189999395,0.25,156.48320869999588,None,157.23462380000274,None,,,,,,,[1.96416667],5.150000000000004,0.8333333333333334,12012,001,2024_Jun_18_1734,MFTM_A_new1021,2021.2.3,60.24956575430466,
,,,,,,,,stim/Instruction_adaptive.png,conditions/adaptive.xlsx,test,0.6,0.6,0.6,-0.6,-0.6,right,R,,,,,0,1,1,1,0,12,12,36,,,,,,,,,,,,,,,,,,,,,,,,,,,,,,,,,,,,,,,,,,,,157.7349890000187,None,left,0,1.5249934000021312,158.2360575000057,158.98822309999377,158.2360575000057,158.4862733000191,158.2360575000057,158.4862733000191,158.2360575000057,158.4862733000191,158.2360575000057,158.4862733000191,158.2360575000057,158.4862733000191,158.46964230001322,158.9709492000111,158.46964230001322,158.9709492000111,158.46964230001322,158.9709492000111,158.46964230001322,158.9709492000111,158.46964230001322,158.9709492000111,158.46964230001322,158.9709492000111,158.46964230001322,158.9709492000111,158.46964230001322,158.9709492000111,158.2360575000057,None,158.9709492000111,160.95658689999254,0.25,160.97333910001907,None,161.7248508000048,None,,,,,,,[1.98615385],4.650000000000004,0.7692307692307693,12012,001,2024_Jun_18_1734,MFTM_A_new1021,2021.2.3,60.24956575430466,
,,,,,,,,stim/Instruction_adaptive.png,conditions/adaptive.xlsx,test,0.6,0.6,0.6,-0.6,-0.6,right,R,,,,,0,1,1,1,0,13,13,52,,,,,,,,,,,,,,,,,,,,,,,,,,,,,,,,,,,,,,,,,,,,162.2252279999957,None,left,0,2.2911677999945823,162.72600620001322,163.4937471000012,162.72600620001322,162.99285780001082,162.72600620001322,162.99285780001082,162.72600620001322,162.99285780001082,162.72600620001322,162.99285780001082,162.72600620001322,162.99285780001082,162.97619320001104,163.47713390001445,162.97619320001104,163.47713390001445,162.97619320001104,163.47713390001445,162.97619320001104,163.47713390001445,162.97619320001104,163.47713390001445,162.97619320001104,163.47713390001445,162.97619320001104,163.47713390001445,162.97619320001104,163.47713390001445,162.72600620001322,None,163.47713390001445,165.47999880000134,0.26,165.49694350000937,None,166.24813009999343,None,,,,,,,[2.00428571],4.200000000000003,0.7142857142857143,12012,001,2024_Jun_18_1734,MFTM_A_new1021,2021.2.3,60.24956575430466,
,,,,,,,,stim/Instruction_adaptive.png,conditions/adaptive.xlsx,test,0.6,0.6,0.6,-0.6,-0.6,right,R,,,,,0,1,1,1,0,14,14,16,,,,,,,,,,,,,,,,,,,,,,,,,,,,,,,,,,,,,,,,,,,,166.74864619999425,None,right,1,1.736158899992006,167.24947670000256,168.11739980001585,167.24947670000256,167.61662620000425,167.24947670000256,167.61662620000425,167.24947670000256,167.61662620000425,167.24947670000256,167.61662620000425,167.24947670000256,167.61662620000425,167.60072620000574,168.100675099995,167.60072620000574,168.100675099995,167.60072620000574,168.100675099995,167.60072620000574,168.100675099995,167.60072620000574,168.100675099995,167.60072620000574,168.100675099995,167.60072620000574,168.100675099995,167.60072620000574,168.100675099995,167.24947670000256,None,168.100675099995,None,0.3600000000000001,170.12031170001137,None,170.87324200000148,None,,,,,,,[2.01333333],4.3800000000000034,0.7333333333333333,12012,001,2024_Jun_18_1734,MFTM_A_new1021,2021.2.3,60.24956575430466,
,,,,,,,,stim/Instruction_adaptive.png,conditions/adaptive.xlsx,test,0.6,0.6,0.6,-0.6,-0.6,right,R,,,,,0,1,1,1,0,15,15,6,,,,,,,,,,,,,,,,,,,,,,,,,,,,,,,,,,,,,,,,,,,,171.37272129999474,None,left,0,2.630822100007208,171.8746259000036,172.7076755000162,171.8746259000036,172.2069296000118,171.8746259000036,172.2069296000118,171.8746259000036,172.2069296000118,171.8746259000036,172.2069296000118,171.8746259000036,172.2069296000118,172.17346190000535,172.67425509999157,172.17346190000535,172.67425509999157,172.17346190000535,172.67425509999157,172.17346190000535,172.67425509999157,172.17346190000535,172.67425509999157,172.17346190000535,172.67425509999157,172.17346190000535,172.67425509999157,172.17346190000535,172.67425509999157,171.8746259000036,None,172.67425509999157,174.71065439999802,0.32000000000000006,174.7272023000114,None,175.4785511000082,None,,,,,,,[2.02375],3.910000000000003,0.6875,12012,001,2024_Jun_18_1734,MFTM_A_new1021,2021.2.3,60.24956575430466,
,,,,,,,,stim/Instruction_adaptive.png,conditions/adaptive.xlsx,test,-0.6,-0.6,-0.6,0.6,0.6,left,L,,,,,0,1,1,1,0,16,16,73,,,,,,,,,,,,,,,,,,,,,,,,,,,,,,,,,,,,,,,,,,,,175.97913419999531,None,left,1,1.7215464999899268,176.48004749999382,177.43150030000834,176.48004749999382,176.9306290000095,176.48004749999382,176.9306290000095,176.48004749999382,176.9306290000095,176.48004749999382,176.9306290000095,176.48004749999382,176.9306290000095,176.89722430001711,177.39809610001976,176.89722430001711,177.39809610001976,176.89722430001711,177.39809610001976,176.89722430001711,177.39809610001976,176.89722430001711,177.39809610001976,176.89722430001711,177.39809610001976,176.89722430001711,177.39809610001976,176.89722430001711,177.39809610001976,176.48004749999382,None,177.39809610001976,179.4352060999954,0.44000000000000017,179.45085200000904,None,180.20224879999296,None,,,,,,,[2.02588235],4.100000000000003,0.7058823529411765,12012,001,2024_Jun_18_1734,MFTM_A_new1021,2021.2.3,60.24956575430466,
,,,,,,,,stim/Instruction_adaptive.png,conditions/adaptive.xlsx,test,-0.6,-0.6,-0.6,0.6,0.6,left,L,,,,,0,1,1,1,0,17,17,81,,,,,,,,,,,,,,,,,,,,,,,,,,,,,,,,,,,,,,,,,,,,180.70382570000947,None,right,0,1.9738152000063565,181.20378569999593,182.0885369000025,181.20378569999593,181.58767959999386,181.20378569999593,181.58767959999386,181.20378569999593,181.58767959999386,181.20378569999593,181.58767959999386,181.20378569999593,181.58767959999386,181.57107530001667,182.07330270000966,181.57107530001667,182.07330270000966,181.57107530001667,182.07330270000966,181.57107530001667,182.07330270000966,181.57107530001667,182.07330270000966,181.57107530001667,182.07330270000966,181.57107530001667,182.07330270000966,181.57107530001667,182.07330270000966,181.20378569999593,None,182.07330270000966,184.10939679999137,0.3800000000000001,184.1245475000178,None,184.8763414999994,None,,,,,,,[2.03111111],3.6300000000000026,0.6666666666666666,12012,001,2024_Jun_18_1734,MFTM_A_new1021,2021.2.3,60.24956575430466,
,,,,,,,,stim/Instruction_adaptive.png,conditions/adaptive.xlsx,test,0.6,0.6,0.6,-0.6,-0.6,right,R,,,,,0,1,1,1,0,18,18,22,,,,,,,,,,,,,,,,,,,,,,,,,,,,,,,,,,,,,,,,,,,,185.37681099999463,None,right,1,2.2357553000038024,185.87810150001314,186.912696400017,185.87810150001314,186.41173870000057,185.87810150001314,186.41173870000057,185.87810150001314,186.41173870000057,185.87810150001314,186.41173870000057,185.87810150001314,186.41173870000057,186.3950226000161,186.89584680000553,186.3950226000161,186.89584680000553,186.3950226000161,186.89584680000553,186.3950226000161,186.89584680000553,186.3950226000161,186.89584680000553,186.3950226000161,186.89584680000553,186.3950226000161,186.89584680000553,186.3950226000161,186.89584680000553,185.87810150001314,None,186.89584680000553,188.8667836000095,0.5300000000000002,188.8819080000103,None,189.63310480001383,None,,,,,,,[[1.97]],3.820000000000003,0.6842105263157895,12012,001,2024_Jun_18_1734,MFTM_A_new1021,2021.2.3,60.24956575430466,
,,,,,,,,stim/Instruction_adaptive.png,conditions/adaptive.xlsx,test,0.6,0.6,0.6,-0.6,-0.6,right,R,,,,,0,1,1,1,0,19,19,64,,,,,,,,,,,,,,,,,,,,,,,,,,,,,,,,,,,,,,,,,,,,190.1339724000136,None,right,1,1.4071691000135615,190.63473799999338,191.61943449999671,190.63473799999338,191.11863720000838,190.63473799999338,191.11863720000838,190.63473799999338,191.11863720000838,190.63473799999338,191.11863720000838,190.63473799999338,191.11863720000838,191.0853022999945,191.58615499999723,191.0853022999945,191.58615499999723,191.0853022999945,191.58615499999723,191.0853022999945,191.58615499999723,191.0853022999945,191.58615499999723,191.0853022999945,191.58615499999723,191.0853022999945,191.58615499999723,191.0853022999945,191.58615499999723,190.63473799999338,None,191.58615499999723,193.6224848999991,0.4700000000000002,193.63923440000508,None,194.3915871999925,None,,,,,,,[2.028],3.9700000000000033,0.7,12012,001,2024_Jun_18_1734,MFTM_A_new1021,2021.2.3,60.24956575430466,
,,,,,,,,stim/Instruction_adaptive.png,conditions/adaptive.xlsx,test,0.6,0.6,0.6,-0.6,-0.6,right,R,,,,,0,1,1,1,0,20,20,20,,,,,,,,,,,,,,,,,,,,,,,,,,,,,,,,,,,,,,,,,,,,194.891051100014,None,right,1,2.4420993000094313,195.39194100000896,196.32666650001192,195.39194100000896,195.82573080001748,195.39194100000896,195.82573080001748,195.39194100000896,195.82573080001748,195.39194100000896,195.82573080001748,195.39194100000896,195.82573080001748,195.79274219999206,196.29329669999424,195.79274219999206,196.29329669999424,195.79274219999206,196.29329669999424,195.79274219999206,196.29329669999424,195.79274219999206,196.29329669999424,195.79274219999206,196.29329669999424,195.79274219999206,196.29329669999424,195.79274219999206,196.29329669999424,195.39194100000896,None,196.29329669999424,198.32995899999514,0.42000000000000015,198.34665700001642,None,199.09843489999184,None,,,,,,,[2.03047619],4.100000000000003,0.7142857142857143,12012,001,2024_Jun_18_1734,MFTM_A_new1021,2021.2.3,60.24956575430466,
,,,,,,,,stim/Instruction_adaptive.png,conditions/adaptive.xlsx,test,0.6,0.6,0.6,-0.6,-0.6,right,R,,,,,0,1,1,1,0,21,21,54,,,,,,,,,,,,,,,,,,,,,,,,,,,,,,,,,,,,,,,,,,,,199.59896609999123,None,right,1,1.36730979999993,200.09901989999344,200.98368040000787,200.09901989999344,200.48289519999526,200.09901989999344,200.48289519999526,200.09901989999344,200.48289519999526,200.09901989999344,200.48289519999526,200.09901989999344,200.48289519999526,200.4662204000051,200.9669384000008,200.4662204000051,200.9669384000008,200.4662204000051,200.9669384000008,200.4662204000051,200.9669384000008,200.4662204000051,200.9669384000008,200.4662204000051,200.9669384000008,200.4662204000051,200.9669384000008,200.4662204000051,200.9669384000008,200.09901989999344,None,200.9669384000008,203.00332509999862,0.3800000000000001,203.01988559999154,None,203.7719377000176,None,,,,,,,[2.03454545],4.2100000000000035,0.7272727272727273,12012,001,2024_Jun_18_1734,MFTM_A_new1021,2021.2.3,60.24956575430466,
,,,,,,,,stim/Instruction_adaptive.png,conditions/adaptive.xlsx,test,0.6,0.6,0.6,-0.6,-0.6,right,R,,,,,0,1,1,1,0,22,22,38,,,,,,,,,,,,,,,,,,,,,,,,,,,,,,,,,,,,,,,,,,,,204.27209690000745,None,right,1,2.045994399988558,204.77277070001583,205.64062469999772,204.77277070001583,205.1400028000062,204.77277070001583,205.1400028000062,204.77277070001583,205.1400028000062,204.77277070001583,205.1400028000062,204.77277070001583,205.1400028000062,205.1066328000161,205.6081572000112,205.1066328000161,205.6081572000112,205.1066328000161,205.6081572000112,205.1066328000161,205.6081572000112,205.1066328000161,205.6081572000112,205.1066328000161,205.6081572000112,205.1066328000161,205.6081572000112,205.1066328000161,205.6081572000112,204.77277070001583,None,205.6081572000112,207.66039820000879,0.3600000000000001,207.67720050000935,None,208.42836819999502,None,,,,,,,[2.03913043],4.310000000000003,0.7391304347826086,12012,001,2024_Jun_18_1734,MFTM_A_new1021,2021.2.3,60.24956575430466,
,,,,,,,,stim/Instruction_adaptive.png,conditions/adaptive.xlsx,test,0.6,0.6,0.6,-0.6,-0.6,right,R,,,,,0,1,1,1,0,23,23,82,,,,,,,,,,,,,,,,,,,,,,,,,,,,,,,,,,,,,,,,,,,,208.92899240000406,None,left,0,1.7572579999978188,209.42959220000193,210.2661841000081,209.42959220000193,209.76348670001607,209.42959220000193,209.76348670001607,209.42959220000193,209.76348670001607,209.42959220000193,209.76348670001607,209.42959220000193,209.76348670001607,209.74671999999555,210.24771379999584,209.74671999999555,210.24771379999584,209.74671999999555,210.24771379999584,209.74671999999555,210.24771379999584,209.74671999999555,210.24771379999584,209.74671999999555,210.24771379999584,209.74671999999555,210.24771379999584,209.74671999999555,210.24771379999584,209.42959220000193,None,210.24771379999584,212.30048979999265,0.33000000000000007,212.31718509999337,None,213.06965839999611,None,,,,,,,[2.04458333],4.040000000000003,0.7083333333333334,12012,001,2024_Jun_18_1734,MFTM_A_new1021,2021.2.3,60.24956575430466,
,,,,,,,,stim/Instruction_adaptive.png,conditions/adaptive.xlsx,test,-0.6,-0.6,-0.6,0.6,0.6,left,L,,,,,0,1,1,1,0,24,24,29,,,,,,,,,,,,,,,,,,,,,,,,,,,,,,,,,,,,,,,,,,,,213.5691969000036,None,left,1,2.0606138999864925,214.06996749999234,214.97129109999514,214.06996749999234,214.47083470001235,214.06996749999234,214.47083470001235,214.06996749999234,214.47083470001235,214.06996749999234,214.47083470001235,214.06996749999234,214.47083470001235,214.45408319999115,214.95481930000824,214.45408319999115,214.95481930000824,214.45408319999115,214.95481930000824,214.45408319999115,214.95481930000824,214.45408319999115,214.95481930000824,214.45408319999115,214.95481930000824,214.45408319999115,214.95481930000824,214.45408319999115,214.95481930000824,214.06996749999234,None,214.95481930000824,217.00874300001306,0.40000000000000013,217.02399899999727,None,217.77565490000416,None,,,,,,,[2.0468],4.140000000000003,0.72,12012,001,2024_Jun_18_1734,MFTM_A_new1021,2021.2.3,60.24956575430466,
,,,,,,,,stim/Instruction_adaptive.png,conditions/adaptive.xlsx,test,0.6,0.6,0.6,-0.6,-0.6,right,R,,,,,0,1,1,1,0,25,25,84,,,,,,,,,,,,,,,,,,,,,,,,,,,,,,,,,,,,,,,,,,,,218.27640160001465,None,right,1,1.257289800007129,218.77727610000875,219.6615807999915,218.77727610000875,219.16124790001777,218.77727610000875,219.16124790001777,218.77727610000875,219.16124790001777,218.77727610000875,219.16124790001777,218.77727610000875,219.16124790001777,219.12780270000803,219.6287536000018,219.12780270000803,219.6287536000018,219.12780270000803,219.6287536000018,219.12780270000803,219.6287536000018,219.12780270000803,219.6287536000018,219.12780270000803,219.6287536000018,219.12780270000803,219.6287536000018,219.12780270000803,219.6287536000018,218.77727610000875,None,219.6287536000018,221.68136439999216,0.3700000000000001,221.69810999999754,None,222.44930350000504,None,,,,,,,[2.05],4.230000000000003,0.7307692307692307,12012,001,2024_Jun_18_1734,MFTM_A_new1021,2021.2.3,60.24956575430466,
,,,,,,,,stim/Instruction_adaptive.png,conditions/adaptive.xlsx,test,0.6,0.6,0.6,-0.6,-0.6,right,R,,,,,0,1,1,1,0,26,26,46,,,,,,,,,,,,,,,,,,,,,,,,,,,,,,,,,,,,,,,,,,,,222.9507886999927,None,right,1,1.5521105999941938,223.45084480001242,224.3020991999947,223.45084480001242,223.80144010001095,223.45084480001242,223.80144010001095,223.45084480001242,223.80144010001095,223.45084480001242,223.80144010001095,223.45084480001242,223.80144010001095,223.78519670001697,224.2853929999983,223.78519670001697,224.2853929999983,223.78519670001697,224.2853929999983,223.78519670001697,224.2853929999983,223.78519670001697,224.2853929999983,223.78519670001697,224.2853929999983,223.78519670001697,224.2853929999983,223.78519670001697,224.2853929999983,223.45084480001242,None,224.2853929999983,226.3385513999965,0.3500000000000001,226.35530690001906,None,227.10699830000522,None,,,,,,,[2.0537037],4.310000000000003,0.7407407407407407,12012,001,2024_Jun_18_1734,MFTM_A_new1021,2021.2.3,60.24956575430466,
,,,,,,,,stim/Instruction_adaptive.png,conditions/adaptive.xlsx,test,-0.6,-0.6,-0.6,0.6,0.6,left,L,,,,,0,1,1,1,0,27,27,69,,,,,,,,,,,,,,,,,,,,,,,,,,,,,,,,,,,,,,,,,,,,227.60782170001767,None,right,0,1.5916561000049114,228.10762819999945,228.94281199999386,228.10762819999945,228.44185999999172,228.10762819999945,228.44185999999172,228.10762819999945,228.44185999999172,228.10762819999945,228.44185999999172,228.10762819999945,228.44185999999172,228.4250643000123,228.92579790001037,228.4250643000123,228.92579790001037,228.4250643000123,228.92579790001037,228.4250643000123,228.92579790001037,228.4250643000123,228.92579790001037,228.4250643000123,228.92579790001037,228.4250643000123,228.92579790001037,228.4250643000123,228.92579790001037,228.10762819999945,None,228.92579790001037,None,0.33000000000000007,230.99559279999812,None,231.7479266000155,None,,,,,,,[2.05785714],4.080000000000004,0.7142857142857143,12012,001,2024_Jun_18_1734,MFTM_A_new1021,2021.2.3,60.24956575430466,
,,,,,,,,stim/Instruction_adaptive.png,conditions/adaptive.xlsx,test,0.6,0.6,0.6,-0.6,-0.6,right,R,,,,,0,1,1,1,0,28,28,2,,,,,,,,,,,,,,,,,,,,,,,,,,,,,,,,,,,,,,,,,,,,232.24819479999132,None,left,0,1.7429057999979705,232.74828090000665,233.64949290000368,232.74828090000665,233.14914520000457,232.74828090000665,233.14914520000457,232.74828090000665,233.14914520000457,232.74828090000665,233.14914520000457,232.74828090000665,233.14914520000457,233.11562719999347,233.61622729999362,233.11562719999347,233.61622729999362,233.11562719999347,233.61622729999362,233.11562719999347,233.61622729999362,233.11562719999347,233.61622729999362,233.11562719999347,233.61622729999362,233.11562719999347,233.61622729999362,233.11562719999347,233.61622729999362,232.74828090000665,None,233.61622729999362,235.6859844000137,0.3900000000000001,235.70299940000405,None,236.45409050001763,None,,,,,,,[2.05965517],3.820000000000003,0.6896551724137931,12012,001,2024_Jun_18_1734,MFTM_A_new1021,2021.2.3,60.24956575430466,
,,,,,,,,stim/Instruction_adaptive.png,conditions/adaptive.xlsx,test,-0.6,-0.6,-0.6,0.6,0.6,left,L,,,,,0,1,1,1,0,29,29,53,,,,,,,,,,,,,,,,,,,,,,,,,,,,,,,,,,,,,,,,,,,,236.95481620001374,None,left,1,1.7483154000074137,237.45528240001295,238.44046640000306,237.45528240001295,237.93944489999558,237.45528240001295,237.93944489999558,237.45528240001295,237.93944489999558,237.45528240001295,237.93944489999558,237.45528240001295,237.93944489999558,237.90631220000796,238.40725920000114,237.90631220000796,238.40725920000114,237.90631220000796,238.40725920000114,237.90631220000796,238.40725920000114,237.90631220000796,238.40725920000114,237.90631220000796,238.40725920000114,237.90631220000796,238.40725920000114,237.90631220000796,238.40725920000114,237.45528240001295,None,238.40725920000114,240.44312840001658,0.4700000000000002,240.45982220000587,None,241.21153369999956,None,,,,,,,[[2.03]],3.920000000000003,0.7,12012,001,2024_Jun_18_1734,MFTM_A_new1021,2021.2.3,60.24956575430466,
,,,,,,,,stim/Instruction_adaptive.png,conditions/adaptive.xlsx,test,0.6,0.6,0.6,-0.6,-0.6,right,R,,,,,0,1,1,1,0,30,30,92,,,,,,,,,,,,,,,,,,,,,,,,,,,,,,,,,,,,,,,,,,,,241.71162320001167,None,right,1,2.215055900014704,242.21233380000922,243.14749510001275,242.21233380000922,242.6463167000038,242.21233380000922,242.6463167000038,242.21233380000922,242.6463167000038,242.21233380000922,242.6463167000038,242.21233380000922,242.6463167000038,242.6297611000191,243.13034050000715,242.6297611000191,243.13034050000715,242.6297611000191,243.13034050000715,242.6297611000191,243.13034050000715,242.6297611000191,243.13034050000715,242.6297611000191,243.13034050000715,242.6297611000191,243.13034050000715,242.6297611000191,243.13034050000715,242.21233380000922,None,243.13034050000715,None,0.43000000000000016,245.20033330001752,None,245.95175490001566,None,,,,,,,[2.05903226],4.010000000000003,0.7096774193548387,12012,001,2024_Jun_18_1734,MFTM_A_new1021,2021.2.3,60.24956575430466,
,,,,,,,,stim/Instruction_adaptive.png,conditions/adaptive.xlsx,test,0.6,0.6,0.6,-0.6,-0.6,right,R,,,,,0,1,1,1,0,31,31,44,,,,,,,,,,,,,,,,,,,,,,,,,,,,,,,,,,,,,,,,,,,,246.45239520000177,None,right,1,3.2187655000016093,246.95306930001243,247.87132229999406,246.95306930001243,247.3713340999966,246.95306930001243,247.3713340999966,246.95306930001243,247.3713340999966,246.95306930001243,247.3713340999966,246.95306930001243,247.3713340999966,247.35348750001867,247.85483430000022,247.35348750001867,247.85483430000022,247.35348750001867,247.85483430000022,247.35348750001867,247.85483430000022,247.35348750001867,247.85483430000022,247.35348750001867,247.85483430000022,247.35348750001867,247.85483430000022,247.35348750001867,247.85483430000022,246.95306930001243,None,247.85483430000022,250.1916293000104,0.41000000000000014,250.20846809999784,None,250.95902870001737,None,,,,,,,[2.06],4.080000000000004,0.71875,12012,001,2024_Jun_18_1734,MFTM_A_new1021,2021.2.3,60.24956575430466,
,,,,,,,,stim/Instruction_adaptive.png,conditions/adaptive.xlsx,test,-0.6,-0.6,-0.6,0.6,0.6,left,L,,,,,0,1,1,1,0,32,32,49,,,,,,,,,,,,,,,,,,,,,,,,,,,,,,,,,,,,,,,,,,,,251.46000150000327,None,left,1,1.1462499999906868,251.9615341000026,252.86182710001594,251.9615341000026,252.36133919999702,251.9615341000026,252.36133919999702,251.9615341000026,252.36133919999702,251.9615341000026,252.36133919999702,251.9615341000026,252.36133919999702,252.32778730001883,252.8298308000085,252.32778730001883,252.8298308000085,252.32778730001883,252.8298308000085,252.32778730001883,252.8298308000085,252.32778730001883,252.8298308000085,252.32778730001883,252.8298308000085,252.32778730001883,252.8298308000085,252.32778730001883,252.8298308000085,251.9615341000026,None,252.8298308000085,254.89811249999912,0.3900000000000001,254.9150135999953,None,255.66610210001818,None,,,,,,,[2.06151515],4.150000000000003,0.7272727272727273,12012,001,2024_Jun_18_1734,MFTM_A_new1021,2021.2.3,60.24956575430466,
,,,,,,,,stim/Instruction_adaptive.png,conditions/adaptive.xlsx,test,-0.6,-0.6,-0.6,0.6,0.6,left,L,,,,,0,1,1,1,0,33,33,3,,,,,,,,,,,,,,,,,,,,,,,,,,,,,,,,,,,,,,,,,,,,256.1666836999939,None,left,1,1.3756169000116643,256.6679856000119,257.5524563000072,256.6679856000119,257.0516060999944,256.6679856000119,257.0516060999944,256.6679856000119,257.0516060999944,256.6679856000119,257.0516060999944,256.6679856000119,257.0516060999944,257.01823459999287,257.51956370001426,257.01823459999287,257.51956370001426,257.01823459999287,257.51956370001426,257.01823459999287,257.51956370001426,257.01823459999287,257.51956370001426,257.01823459999287,257.51956370001426,257.01823459999287,257.51956370001426,257.01823459999287,257.51956370001426,256.6679856000119,None,257.51956370001426,259.58932510000886,0.3700000000000001,259.6055319000152,None,260.35663500000373,None,,,,,,,[2.06352941],4.220000000000003,0.7352941176470589,12012,001,2024_Jun_18_1734,MFTM_A_new1021,2021.2.3,60.24956575430466,
,,,,,,,,stim/Instruction_adaptive.png,conditions/adaptive.xlsx,test,-0.6,-0.6,-0.6,0.6,0.6,left,L,,,,,0,1,1,1,0,34,34,47,,,,,,,,,,,,,,,,,,,,,,,,,,,,,,,,,,,,,,,,,,,,260.8573114000028,None,left,1,1.5579804999870248,261.3580115000077,262.2094991999911,261.3580115000077,261.70998990000226,261.3580115000077,261.70998990000226,261.3580115000077,261.70998990000226,261.3580115000077,261.70998990000226,261.3580115000077,261.70998990000226,261.6919780000171,262.19374039999093,261.6919780000171,262.19374039999093,261.6919780000171,262.19374039999093,261.6919780000171,262.19374039999093,261.6919780000171,262.19374039999093,261.6919780000171,262.19374039999093,261.6919780000171,262.19374039999093,261.6919780000171,262.19374039999093,261.3580115000077,None,262.19374039999093,264.2626866000064,0.3500000000000001,264.2794145999942,None,265.0308898999938,None,,,,,,,[2.066],4.280000000000003,0.7428571428571429,12012,001,2024_Jun_18_1734,MFTM_A_new1021,2021.2.3,60.24956575430466,
,,,,,,,,stim/Instruction_adaptive.png,conditions/adaptive.xlsx,test,-0.6,-0.6,-0.6,0.6,0.6,left,L,,,,,0,1,1,1,0,35,35,63,,,,,,,,,,,,,,,,,,,,,,,,,,,,,,,,,,,,,,,,,,,,265.5309891999932,None,right,0,1.9484552000067197,266.03183250001166,266.8829409000173,266.03183250001166,266.38241829999606,266.03183250001166,266.38241829999606,266.03183250001166,266.38241829999606,266.03183250001166,266.38241829999606,266.03183250001166,266.38241829999606,266.34894379999605,266.8499432000099,266.34894379999605,266.8499432000099,266.34894379999605,266.8499432000099,266.34894379999605,266.8499432000099,266.34894379999605,266.8499432000099,266.34894379999605,266.8499432000099,266.34894379999605,266.8499432000099,266.34894379999605,266.8499432000099,266.03183250001166,None,266.8499432000099,268.91955750001944,0.3400000000000001,268.9528539000021,None,269.7038606000133,None,,,,,,,[2.06861111],4.110000000000003,0.7222222222222222,12012,001,2024_Jun_18_1734,MFTM_A_new1021,2021.2.3,60.24956575430466,
,,,,,,,,stim/Instruction_adaptive.png,conditions/adaptive.xlsx,test,-0.6,-0.6,-0.6,0.6,0.6,left,L,,,,,0,1,1,1,0,36,36,79,,,,,,,,,,,,,,,,,,,,,,,,,,,,,,,,,,,,,,,,,,,,270.2052879999974,None,right,0,1.7480577000242192,270.7052981000161,271.5912052000058,270.7052981000161,271.089581200009,270.7052981000161,271.089581200009,270.7052981000161,271.089581200009,270.7052981000161,271.089581200009,270.7052981000161,271.089581200009,271.0725705999939,271.57366520000505,271.0725705999939,271.57366520000505,271.0725705999939,271.57366520000505,271.0725705999939,271.57366520000505,271.0725705999939,271.57366520000505,271.0725705999939,271.57366520000505,271.0725705999939,271.57366520000505,271.0725705999939,271.57366520000505,270.7052981000161,None,271.57366520000505,273.64368330000434,0.3800000000000001,273.6600818000152,None,274.4118631000165,None,,,,,,,[2.07],3.920000000000003,0.7027027027027027,12012,001,2024_Jun_18_1734,MFTM_A_new1021,2021.2.3,60.24956575430466,
,,,,,,,,stim/Instruction_adaptive.png,conditions/adaptive.xlsx,test,0.6,0.6,0.6,-0.6,-0.6,right,R,,,,,0,1,1,1,0,37,37,8,,,,,,,,,,,,,,,,,,,,,,,,,,,,,,,,,,,,,,,,,,,,274.91167430000496,None,left,0,1.5594475000107195,275.4128966999997,276.3472376000136,275.4128966999997,275.84650740001234,275.4128966999997,275.84650740001234,275.4128966999997,275.84650740001234,275.4128966999997,275.84650740001234,275.4128966999997,275.84650740001234,275.83001669999794,276.3303143999947,275.83001669999794,276.3303143999947,275.83001669999794,276.3303143999947,275.83001669999794,276.3303143999947,275.83001669999794,276.3303143999947,275.83001669999794,276.3303143999947,275.83001669999794,276.3303143999947,275.83001669999794,276.3303143999947,275.4128966999997,None,276.3303143999947,278.40032300000894,0.43000000000000016,278.41696040000534,None,279.1683558000077,None,,,,,,,[[2.07]],3.7100000000000026,0.6842105263157895,12012,001,2024_Jun_18_1734,MFTM_A_new1021,2021.2.3,60.24956575430466,
,,,,,,,,stim/Instruction_adaptive.png,conditions/adaptive.xlsx,test,-0.6,-0.6,-0.6,0.6,0.6,left,L,,,,,0,1,1,1,0,38,38,25,,,,,,,,,,,,,,,,,,,,,,,,,,,,,,,,,,,,,,,,,,,,279.66900399999577,None,right,0,3.267107699997723,280.16952070000116,281.17118950001895,280.16952070000116,280.67054300001473,280.16952070000116,280.67054300001473,280.16952070000116,280.67054300001473,280.16952070000116,280.67054300001473,280.16952070000116,280.67054300001473,280.653860099992,281.1546743999934,280.653860099992,281.1546743999934,280.653860099992,281.1546743999934,280.653860099992,281.1546743999934,280.653860099992,281.1546743999934,280.653860099992,281.1546743999934,280.653860099992,281.1546743999934,280.653860099992,281.1546743999934,280.16952070000116,None,281.1546743999934,283.45806060000905,0.5000000000000002,283.4745698000188,None,284.225737700006,None,,,,,,,[[2.]],3.4700000000000024,0.6666666666666666,12012,001,2024_Jun_18_1734,MFTM_A_new1021,2021.2.3,60.24956575430466,
,,,,,,,,stim/Instruction_adaptive.png,conditions/adaptive.xlsx,test,-0.6,-0.6,-0.6,0.6,0.6,left,L,,,,,0,1,1,1,0,39,39,71,,,,,,,,,,,,,,,,,,,,,,,,,,,,,,,,,,,,,,,,,,,,284.72666400001617,None,right,0,1.9371776999905705,285.227375699993,286.32965319999494,285.227375699993,285.82897400000365,285.227375699993,285.82897400000365,285.227375699993,285.82897400000365,285.227375699993,285.82897400000365,285.227375699993,285.82897400000365,285.79478699999163,286.29587329999777,285.79478699999163,286.29587329999777,285.79478699999163,286.29587329999777,285.79478699999163,286.29587329999777,285.79478699999163,286.29587329999777,285.79478699999163,286.29587329999777,285.79478699999163,286.29587329999777,285.79478699999163,286.29587329999777,285.227375699993,None,286.29587329999777,288.21604309999384,0.5900000000000003,288.2319676000043,None,288.9833656999981,None,,,,,,,[[1.91]],3.190000000000002,0.65,12012,001,2024_Jun_18_1734,MFTM_A_new1021,2021.2.3,60.24956575430466,
,,,,,,,,stim/Instruction_adaptive.png,conditions/adaptive.xlsx,test,0.6,0.6,0.6,-0.6,-0.6,right,R,,,,,0,1,1,1,0,40,40,68,,,,,,,,,,,,,,,,,,,,,,,,,,,,,,,,,,,,,,,,,,,,289.4838682000118,None,right,1,2.1961844000034034,289.9843735000177,291.2197598000057,289.9843735000177,290.71924900001613,289.9843735000177,290.71924900001613,289.9843735000177,290.71924900001613,289.9843735000177,290.71924900001613,289.9843735000177,290.71924900001613,290.68643309999607,291.1860811999941,290.68643309999607,291.1860811999941,290.68643309999607,291.1860811999941,290.68643309999607,291.1860811999941,290.68643309999607,291.1860811999941,290.68643309999607,291.1860811999941,290.68643309999607,291.1860811999941,290.68643309999607,291.1860811999941,289.9843735000177,None,291.1860811999941,292.9733602000051,0.7200000000000004,292.98902680000174,None,293.7402817000111,None,,,,,,,[[1.78]],3.2900000000000027,0.6585365853658537,12012,001,2024_Jun_18_1734,MFTM_A_new1021,2021.2.3,60.24956575430466,
,,,,,,,,stim/Instruction_adaptive.png,conditions/adaptive.xlsx,test,0.6,0.6,0.6,-0.6,-0.6,right,R,,,,,0,1,1,1,0,41,41,72,,,,,,,,,,,,,,,,,,,,,,,,,,,,,,,,,,,,,,,,,,,,294.24112789999344,None,left,0,2.542607399984263,294.74202510001487,295.91078790000756,294.74202510001487,295.4260113000055,294.74202510001487,295.4260113000055,294.74202510001487,295.4260113000055,294.74202510001487,295.4260113000055,294.74202510001487,295.4260113000055,295.39276449999306,295.8943134000001,295.39276449999306,295.8943134000001,295.39276449999306,295.8943134000001,295.39276449999306,295.8943134000001,295.39276449999306,295.8943134000001,295.39276449999306,295.8943134000001,295.39276449999306,295.8943134000001,295.39276449999306,295.8943134000001,294.74202510001487,None,295.8943134000001,297.73005230000126,0.6700000000000004,297.7462005999987,None,298.4973881000187,None,,,,,,,[[1.83]],3.000000000000002,0.6428571428571429,12012,001,2024_Jun_18_1734,MFTM_A_new1021,2021.2.3,60.24956575430466,
,,,,,,,,stim/Instruction_adaptive.png,conditions/adaptive.xlsx,test,-0.6,-0.6,-0.6,0.6,0.6,left,L,,,,,0,1,1,1,0,42,42,65,,,,,,,,,,,,,,,,,,,,,,,,,,,,,,,,,,,,,,,,,,,,298.99814579999656,None,left,1,1.4496090000029653,299.4996208999946,300.83425459999125,299.4996208999946,300.3337916000164,299.4996208999946,300.3337916000164,299.4996208999946,300.3337916000164,299.4996208999946,300.3337916000164,299.4996208999946,300.3337916000164,300.30008079999243,300.8009160000074,300.30008079999243,300.8009160000074,300.30008079999243,300.8009160000074,300.30008079999243,300.8009160000074,300.30008079999243,300.8009160000074,300.30008079999243,300.8009160000074,300.30008079999243,300.8009160000074,300.30008079999243,300.8009160000074,299.4996208999946,None,300.8009160000074,302.4878852000111,0.8200000000000005,302.5034486000077,None,303.2545420000097,None,,,,,,,[[1.68]],3.110000000000002,0.6511627906976745,12012,001,2024_Jun_18_1734,MFTM_A_new1021,2021.2.3,60.24956575430466,
,,,,,,,,stim/Instruction_adaptive.png,conditions/adaptive.xlsx,test,-0.6,-0.6,-0.6,0.6,0.6,left,L,,,,,0,1,1,1,0,43,43,55,,,,,,,,,,,,,,,,,,,,,,,,,,,,,,,,,,,,,,,,,,,,303.756031500001,None,left,1,1.277585400006501,304.2558551999973,305.52476749999914,304.2558551999973,305.02384900001925,304.2558551999973,305.02384900001925,304.2558551999973,305.02384900001925,304.2558551999973,305.02384900001925,304.2558551999973,305.02384900001925,305.007359500014,305.5077519000042,305.007359500014,305.5077519000042,305.007359500014,305.5077519000042,305.007359500014,305.5077519000042,305.007359500014,305.5077519000042,305.007359500014,305.5077519000042,305.007359500014,305.5077519000042,305.007359500014,305.5077519000042,304.2558551999973,None,305.4913838999928,307.243991299998,0.7600000000000005,307.26062960000127,None,308.0118121000123,None,,,,,,,[[1.74]],3.2100000000000026,0.6590909090909091,12012,001,2024_Jun_18_1734,MFTM_A_new1021,2021.2.3,60.24956575430466,
,,,,,,,,stim/Instruction_adaptive.png,conditions/adaptive.xlsx,test,-0.6,-0.6,-0.6,0.6,0.6,left,L,,,,,0,1,1,1,0,44,44,21,,,,,,,,,,,,,,,,,,,,,,,,,,,,,,,,,,,,,,,,,,,,308.51268310000887,None,left,1,1.4397794000105932,309.01328620000277,310.23199620001833,309.01328620000277,309.7308508999995,309.01328620000277,309.7308508999995,309.01328620000277,309.7308508999995,309.01328620000277,309.7308508999995,309.01328620000277,309.7308508999995,309.6975872000039,310.19835970000713,309.6975872000039,310.19835970000713,309.6975872000039,310.19835970000713,309.6975872000039,310.19835970000713,309.6975872000039,310.19835970000713,309.6975872000039,310.19835970000713,309.6975872000039,310.19835970000713,309.6975872000039,310.19835970000713,309.01328620000277,None,310.19835970000713,312.001859800017,0.7100000000000004,312.0178304000001,None,312.7688771999965,None,,,,,,,[[1.79]],3.2900000000000027,0.6666666666666666,12012,001,2024_Jun_18_1734,MFTM_A_new1021,2021.2.3,60.24956575430466,
,,,,,,,,stim/Instruction_adaptive.png,conditions/adaptive.xlsx,test,-0.6,-0.6,-0.6,0.6,0.6,left,L,,,,,0,1,1,1,0,45,45,95,,,,,,,,,,,,,,,,,,,,,,,,,,,,,,,,,,,,,,,,,,,,313.26957480001147,None,right,0,2.6832275000051595,313.770345500001,314.95674290001625,313.770345500001,314.4547181999951,313.770345500001,314.4547181999951,313.770345500001,314.4547181999951,313.770345500001,314.4547181999951,313.770345500001,314.4547181999951,314.4219311999914,314.92237730001216,314.4219311999914,314.92237730001216,314.4219311999914,314.92237730001216,314.4219311999914,314.92237730001216,314.4219311999914,314.92237730001216,314.4219311999914,314.92237730001216,314.4219311999914,314.92237730001216,314.4219311999914,314.92237730001216,313.770345500001,None,314.92237730001216,316.75846080001793,0.6700000000000004,316.77485439999145,None,317.5261001000181,None,,,,,,,[[1.83]],3.0500000000000025,0.6521739130434783,12012,001,2024_Jun_18_1734,MFTM_A_new1021,2021.2.3,60.24956575430466,
,,,,,,,,stim/Instruction_adaptive.png,conditions/adaptive.xlsx,test,-0.6,-0.6,-0.6,0.6,0.6,left,L,,,,,0,1,1,1,0,46,46,59,,,,,,,,,,,,,,,,,,,,,,,,,,,,,,,,,,,,,,,,,,,,318.0268452000164,None,left,1,2.6612235000065994,318.5284271000128,319.8294748000044,318.5284271000128,319.33000549999997,318.5284271000128,319.33000549999997,318.5284271000128,319.33000549999997,318.5284271000128,319.33000549999997,318.5284271000128,319.33000549999997,319.2952763999929,319.7960558999912,319.2952763999929,319.7960558999912,319.2952763999929,319.7960558999912,319.2952763999929,319.7960558999912,319.2952763999929,319.7960558999912,319.2952763999929,319.7960558999912,319.2952763999929,319.7960558999912,319.2952763999929,319.7960558999912,318.5284271000128,None,319.7960558999912,321.5152946000162,0.7900000000000005,321.53245920001063,None,322.28382730000885,None,,,,,,,[[1.71]],3.1400000000000023,0.6595744680851063,12012,001,2024_Jun_18_1734,MFTM_A_new1021,2021.2.3,60.24956575430466,
,,,,,,,,stim/Instruction_adaptive.png,conditions/adaptive.xlsx,test,-0.6,-0.6,-0.6,0.6,0.6,left,L,,,,,0,1,1,1,0,47,47,31,,,,,,,,,,,,,,,,,,,,,,,,,,,,,,,,,,,,,,,,,,,,322.7841679000121,None,left,1,2.952821999992011,323.28454729999066,324.53674179999507,323.28454729999066,324.0362519999908,323.28454729999066,324.0362519999908,323.28454729999066,324.0362519999908,323.28454729999066,324.0362519999908,323.28454729999066,324.0362519999908,324.01939920001314,324.5207916999934,324.01939920001314,324.5207916999934,324.01939920001314,324.5207916999934,324.01939920001314,324.5207916999934,324.01939920001314,324.5207916999934,324.01939920001314,324.5207916999934,324.01939920001314,324.5207916999934,324.01939920001314,324.5207916999934,323.28454729999066,None,324.5207916999934,326.2726626000076,0.7500000000000004,326.2894365999964,None,327.041123300005,None,,,,,,,[[1.75]],3.2200000000000024,0.6666666666666666,12012,001,2024_Jun_18_1734,MFTM_A_new1021,2021.2.3,60.24956575430466,
,,,,,,,,stim/Instruction_adaptive.png,conditions/adaptive.xlsx,test,0.6,0.6,0.6,-0.6,-0.6,right,R,,,,,0,1,1,1,0,48,48,66,,,,,,,,,,,,,,,,,,,,,,,,,,,,,,,,,,,,,,,,,,,,327.54228739999235,None,right,1,2.0275257999892347,328.04202140000416,329.26083899999503,328.04202140000416,328.7596771999961,328.04202140000416,328.7596771999961,328.04202140000416,328.7596771999961,328.04202140000416,328.7596771999961,328.04202140000416,328.7596771999961,328.7263905,329.22736910000094,328.7263905,329.22736910000094,328.7263905,329.22736910000094,328.7263905,329.22736910000094,328.7263905,329.22736910000094,328.7263905,329.22736910000094,328.7263905,329.22736910000094,328.7263905,329.22736910000094,328.04202140000416,None,329.22736910000094,331.0313501000055,0.7100000000000004,331.0463462000189,None,331.7984543000057,None,,,,,,,[[1.79]],3.3000000000000025,0.673469387755102,12012,001,2024_Jun_18_1734,MFTM_A_new1021,2021.2.3,60.24956575430466,
,,,,,,,,stim/Instruction_adaptive.png,conditions/adaptive.xlsx,test,-0.6,-0.6,-0.6,0.6,0.6,left,L,,,,,0,1,1,1,0,49,49,35,,,,,,,,,,,,,,,,,,,,,,,,,,,,,,,,,,,,,,,,,,,,332.2981582999928,None,left,1,1.5670463999849744,332.79920440001297,333.9843514999957,332.79920440001297,333.48427810001886,332.79920440001297,333.48427810001886,332.79920440001297,333.48427810001886,332.79920440001297,333.48427810001886,332.79920440001297,333.48427810001886,333.4507744000002,333.9510147999972,333.4507744000002,333.9510147999972,333.4507744000002,333.9510147999972,333.4507744000002,333.9510147999972,333.4507744000002,333.9510147999972,333.4507744000002,333.9510147999972,333.4507744000002,333.9510147999972,333.4507744000002,333.9510147999972,332.79920440001297,None,333.9510147999972,335.78867900001933,0.6700000000000004,335.8035812000162,None,336.55500660001417,None,,,,,,,[[1.83]],3.3600000000000025,0.68,12012,001,2024_Jun_18_1734,MFTM_A_new1021,2021.2.3,60.24956575430466,
,,,,,,,,stim/Instruction_adaptive.png,conditions/adaptive.xlsx,test,-0.6,-0.6,-0.6,0.6,0.6,left,L,,,,,0,1,1,1,0,50,50,51,,,,,,,,,,,,,,,,,,,,,,,,,,,,,,,,,,,,,,,,,,,,337.0555002000183,None,left,1,1.057747000013478,337.55648790000123,338.70778689999133,337.55648790000123,338.2072044000088,337.55648790000123,338.2072044000088,337.55648790000123,338.2072044000088,337.55648790000123,338.2072044000088,337.55648790000123,338.2072044000088,338.17418140001246,338.6747127000126,338.17418140001246,338.6747127000126,338.17418140001246,338.6747127000126,338.17418140001246,338.6747127000126,338.17418140001246,338.6747127000126,338.17418140001246,338.6747127000126,338.17418140001246,338.6747127000126,338.17418140001246,338.6747127000126,337.55648790000123,None,338.6747127000126,340.5439081999939,0.6400000000000003,340.5609705999959,None,341.311719099991,None,,,,,,,[[1.86]],3.4200000000000026,0.6862745098039216,12012,001,2024_Jun_18_1734,MFTM_A_new1021,2021.2.3,60.24956575430466,
,,,,,,,,stim/Instruction_adaptive.png,conditions/adaptive.xlsx,test,-0.6,-0.6,-0.6,0.6,0.6,left,L,,,,,0,1,1,1,0,51,51,9,,,,,,,,,,,,,,,,,,,,,,,,,,,,,,,,,,,,,,,,,,,,341.81287320001866,None,left,1,1.0688291999977082,342.31348410001374,343.43188580000424,342.31348410001374,342.93188940000255,342.31348410001374,342.93188940000255,342.31348410001374,342.93188940000255,342.31348410001374,342.93188940000255,342.31348410001374,342.93188940000255,342.89756860001944,343.39900890001445,342.89756860001944,343.39900890001445,342.89756860001944,343.39900890001445,342.89756860001944,343.39900890001445,342.89756860001944,343.39900890001445,342.89756860001944,343.39900890001445,342.89756860001944,343.39900890001445,342.89756860001944,343.39900890001445,342.31348410001374,None,343.39900890001445,345.30151150000165,0.6100000000000003,345.3179242000042,None,346.0690054000006,None,,,,,,,[[1.89]],3.4800000000000026,0.6923076923076923,12012,001,2024_Jun_18_1734,MFTM_A_new1021,2021.2.3,60.24956575430466,
,,,,,,,,stim/Instruction_adaptive.png,conditions/adaptive.xlsx,test,0.6,0.6,0.6,-0.6,-0.6,right,R,,,,,0,1,1,1,0,52,52,48,,,,,,,,,,,,,,,,,,,,,,,,,,,,,,,,,,,,,,,,,,,,346.5698926000041,None,right,1,1.4158394999976736,347.0705453999981,348.17233669999405,347.0705453999981,347.67139000000316,347.0705453999981,347.67139000000316,347.0705453999981,347.67139000000316,347.0705453999981,347.67139000000316,347.0705453999981,347.67139000000316,347.6385016000131,348.13881820000825,347.6385016000131,348.13881820000825,347.6385016000131,348.13881820000825,347.6385016000131,348.13881820000825,347.6385016000131,348.13881820000825,347.6385016000131,348.13881820000825,347.6385016000131,348.13881820000825,347.6385016000131,348.13881820000825,347.0705453999981,None,348.13881820000825,350.05849640001543,0.5900000000000003,350.0749020999938,None,350.82549340001424,None,,,,,,,[[1.91]],3.530000000000003,0.6981132075471698,12012,001,2024_Jun_18_1734,MFTM_A_new1021,2021.2.3,60.24956575430466,
,,,,,,,,stim/Instruction_adaptive.png,conditions/adaptive.xlsx,test,-0.6,-0.6,-0.6,0.6,0.6,left,L,,,,,0,1,1,1,0,53,53,5,,,,,,,,,,,,,,,,,,,,,,,,,,,,,,,,,,,,,,,,,,,,351.3270926999976,None,left,1,1.7073176999983843,351.8270005999948,352.91270529999747,351.8270005999948,352.4121260000102,351.8270005999948,352.4121260000102,351.8270005999948,352.4121260000102,351.8270005999948,352.4121260000102,351.8270005999948,352.4121260000102,352.3787205000117,352.8792239000031,352.3787205000117,352.8792239000031,352.3787205000117,352.8792239000031,352.3787205000117,352.8792239000031,352.3787205000117,352.8792239000031,352.3787205000117,352.8792239000031,352.3787205000117,352.8792239000031,352.3787205000117,352.8792239000031,351.8270005999948,None,352.8792239000031,354.81533780001337,0.5700000000000003,354.832026899996,None,355.58369110000785,None,,,,,,,[[1.93]],3.5900000000000025,0.7037037037037037,12012,001,2024_Jun_18_1734,MFTM_A_new1021,2021.2.3,60.24956575430466,
,,,,,,,,stim/Instruction_adaptive.png,conditions/adaptive.xlsx,test,-0.6,-0.6,-0.6,0.6,0.6,left,L,,,,,0,1,1,1,0,54,54,39,,,,,,,,,,,,,,,,,,,,,,,,,,,,,,,,,,,,,,,,,,,,356.08430640000734,None,left,1,1.2616313000035007,356.58494620001875,357.6363815999939,356.58494620001875,357.1361389000085,356.58494620001875,357.1361389000085,356.58494620001875,357.1361389000085,356.58494620001875,357.1361389000085,356.58494620001875,357.1361389000085,357.11928770001396,357.6205114000186,357.11928770001396,357.6205114000186,357.11928770001396,357.6205114000186,357.11928770001396,357.6205114000186,357.11928770001396,357.6205114000186,357.11928770001396,357.6205114000186,357.11928770001396,357.6205114000186,357.11928770001396,357.6205114000186,356.58494620001875,None,357.6205114000186,359.57295480000903,0.5500000000000003,359.5895366000186,None,360.3421060999972,None,,,,,,,[[1.95]],3.6300000000000026,0.7090909090909091,12012,001,2024_Jun_18_1734,MFTM_A_new1021,2021.2.3,60.24956575430466,
,,,,,,,,stim/Instruction_adaptive.png,conditions/adaptive.xlsx,test,-0.6,-0.6,-0.6,0.6,0.6,left,L,,,,,0,1,1,1,0,55,55,75,,,,,,,,,,,,,,,,,,,,,,,,,,,,,,,,,,,,,,,,,,,,360.85929799999576,None,left,1,1.096324199985247,361.34234940001625,362.3770887000137,361.34234940001625,361.87648619999527,361.34234940001625,361.87648619999527,361.34234940001625,361.87648619999527,361.34234940001625,361.87648619999527,361.34234940001625,361.87648619999527,361.85976680001477,362.36021990000154,361.85976680001477,362.36021990000154,361.85976680001477,362.36021990000154,361.85976680001477,362.36021990000154,361.85976680001477,362.36021990000154,361.85976680001477,362.36021990000154,361.85976680001477,362.36021990000154,361.85976680001477,362.36021990000154,361.34234940001625,None,362.36021990000154,364.3300283999997,0.5300000000000002,364.34671260000323,None,365.09961229999317,None,,,,,,,[[1.97]],3.680000000000003,0.7142857142857143,12012,001,2024_Jun_18_1734,MFTM_A_new1021,2021.2.3,60.24956575430466,
,,,,,,,,stim/Instruction_adaptive.png,conditions/adaptive.xlsx,test,-0.6,-0.6,-0.6,0.6,0.6,left,L,,,,,0,1,1,1,0,56,56,87,,,,,,,,,,,,,,,,,,,,,,,,,,,,,,,,,,,,,,,,,,,,365.5990762000147,None,right,0,1.3155202000052668,366.0992617000011,367.11824060001527,366.0992617000011,366.6172620000143,366.0992617000011,366.6172620000143,366.0992617000011,366.6172620000143,366.0992617000011,366.6172620000143,366.0992617000011,366.6172620000143,366.60010909999255,367.1014370000048,366.60010909999255,367.1014370000048,366.60010909999255,367.1014370000048,366.60010909999255,367.1014370000048,366.60010909999255,367.1014370000048,366.60010909999255,367.1014370000048,366.60010909999255,367.1014370000048,366.60010909999255,367.1014370000048,366.0992617000011,None,367.08461660001194,369.08741700000246,0.5100000000000002,369.10390879999613,None,369.8549885000102,None,,,,,,,[[1.99]],3.5500000000000025,0.7017543859649122,12012,001,2024_Jun_18_1734,MFTM_A_new1021,2021.2.3,60.24956575430466,
,,,,,,,,stim/Instruction_adaptive.png,conditions/adaptive.xlsx,test,-0.6,-0.6,-0.6,0.6,0.6,left,L,,,,,0,1,1,1,0,57,57,61,,,,,,,,,,,,,,,,,,,,,,,,,,,,,,,,,,,,,,,,,,,,370.35722850001184,None,left,1,2.1902597000007518,370.85663570000906,371.92471230000956,370.85663570000906,371.4241030999983,370.85663570000906,371.4241030999983,370.85663570000906,371.4241030999983,370.85663570000906,371.4241030999983,370.85663570000906,371.4241030999983,371.407631900016,371.9080665000074,371.407631900016,371.9080665000074,371.407631900016,371.9080665000074,371.407631900016,371.9080665000074,371.407631900016,371.9080665000074,371.407631900016,371.9080665000074,371.407631900016,371.9080665000074,371.407631900016,371.9080665000074,370.85663570000906,None,371.9080665000074,None,0.5600000000000003,373.8609209000133,None,374.61298330000136,None,,,,,,,[[1.94]],3.5900000000000025,0.7068965517241379,12012,001,2024_Jun_18_1734,MFTM_A_new1021,2021.2.3,60.24956575430466,
,,,,,,,,stim/Instruction_adaptive.png,conditions/adaptive.xlsx,test,0.6,0.6,0.6,-0.6,-0.6,right,R,,,,,0,1,1,1,0,58,58,28,,,,,,,,,,,,,,,,,,,,,,,,,,,,,,,,,,,,,,,,,,,,375.11397710000165,None,right,1,1.5295154000050388,375.61361180001404,376.66512419999344,375.61361180001404,376.1646798000147,375.61361180001404,376.1646798000147,375.61361180001404,376.1646798000147,375.61361180001404,376.1646798000147,375.61361180001404,376.1646798000147,376.14777350000804,376.6486625999969,376.14777350000804,376.6486625999969,376.14777350000804,376.6486625999969,376.14777350000804,376.6486625999969,376.14777350000804,376.6486625999969,376.14777350000804,376.6486625999969,376.14777350000804,376.6486625999969,376.14777350000804,376.6486625999969,375.61361180001404,None,376.6486625999969,378.6014744999993,0.5500000000000003,378.61823960000766,None,379.3695406000188,None,,,,,,,[[1.95]],3.640000000000003,0.711864406779661,12012,001,2024_Jun_18_1734,MFTM_A_new1021,2021.2.3,60.24956575430466,
,,,,,,,,stim/Instruction_adaptive.png,conditions/adaptive.xlsx,test,0.6,0.6,0.6,-0.6,-0.6,right,R,,,,,0,1,1,1,0,59,59,56,,,,,,,,,,,,,,,,,,,,,,,,,,,,,,,,,,,,,,,,,,,,379.86999999999534,None,right,1,1.588200099999085,380.3707665000111,381.40573090000544,380.3707665000111,380.9060471999983,380.3707665000111,380.9060471999983,380.3707665000111,380.9060471999983,380.3707665000111,380.9060471999983,380.3707665000111,380.9060471999983,380.88968829999794,381.3890289000119,380.88968829999794,381.3890289000119,380.88968829999794,381.3890289000119,380.88968829999794,381.3890289000119,380.88968829999794,381.3890289000119,380.88968829999794,381.3890289000119,380.88968829999794,381.3890289000119,380.88968829999794,381.3890289000119,380.3707665000111,None,381.3890289000119,383.359088600002,0.5300000000000002,383.37535819999175,None,384.1268753000186,None,,,,,,,[[1.97]],3.680000000000003,0.7166666666666667,12012,001,2024_Jun_18_1734,MFTM_A_new1021,2021.2.3,60.24956575430466,
,,,,,,,,stim/Instruction_adaptive.png,conditions/adaptive.xlsx,test,0.6,0.6,0.6,-0.6,-0.6,right,R,,,,,0,1,1,1,0,60,60,26,,,,,,,,,,,,,,,,,,,,,,,,,,,,,,,,,,,,,,,,,,,,384.6280079999997,None,left,0,1.9350786999857519,385.12805699999444,386.1462290000054,385.12805699999444,385.6453512000153,385.12805699999444,385.6453512000153,385.12805699999444,385.6453512000153,385.12805699999444,385.6453512000153,385.12805699999444,385.6453512000153,385.6125388999935,386.11310210000374,385.6125388999935,386.11310210000374,385.6125388999935,386.11310210000374,385.6125388999935,386.11310210000374,385.6125388999935,386.11310210000374,385.6125388999935,386.11310210000374,385.6125388999935,386.11310210000374,385.6125388999935,386.11310210000374,385.12805699999444,None,386.11310210000374,388.11632269999245,0.5100000000000002,388.13255239999853,None,388.8837726000056,None,,,,,,,[[1.99]],3.5600000000000027,0.7049180327868853,12012,001,2024_Jun_18_1734,MFTM_A_new1021,2021.2.3,60.24956575430466,
,,,,,,,,stim/Instruction_adaptive.png,conditions/adaptive.xlsx,test,0.6,0.6,0.6,-0.6,-0.6,right,R,,,,,0,1,1,1,0,61,61,86,,,,,,,,,,,,,,,,,,,,,,,,,,,,,,,,,,,,,,,,,,,,389.3847154999967,None,None,0,0,389.8849363999907,390.9536192000087,389.8849363999907,390.45277870001155,389.8849363999907,390.45277870001155,389.8849363999907,390.45277870001155,389.8849363999907,390.45277870001155,389.8849363999907,390.45277870001155,390.43633300001966,390.93777019999106,390.43633300001966,390.93777019999106,390.43633300001966,390.93777019999106,390.43633300001966,390.93777019999106,390.43633300001966,390.93777019999106,390.43633300001966,390.93777019999106,390.43633300001966,390.93777019999106,390.43633300001966,390.93777019999106,389.8849363999907,None,390.92021390001173,393.37377040000865,0.5600000000000003,393.40765480001573,None,394.1582350000099,None,,,,,,,[[2.44]],3.4300000000000024,0.6935483870967742,12012,001,2024_Jun_18_1734,MFTM_A_new1021,2021.2.3,60.24956575430466,
,,,,,,,,stim/Instruction_adaptive.png,conditions/adaptive.xlsx,test,0.6,0.6,0.6,-0.6,-0.6,right,R,,,,,0,1,1,1,0,62,62,0,,,,,,,,,,,,,,,,,,,,,,,,,,,,,,,,,,,,,,,,,,,,394.64306600001873,None,right,1,1.2803714000037871,395.14321500001824,396.26245390000986,395.14321500001824,395.7608137000061,395.14321500001824,395.7608137000061,395.14321500001824,395.7608137000061,395.14321500001824,395.7608137000061,395.14321500001824,395.7608137000061,395.7271265000163,396.22868390000076,395.7271265000163,396.22868390000076,395.7271265000163,396.22868390000076,395.7271265000163,396.22868390000076,395.7271265000163,396.22868390000076,395.7271265000163,396.22868390000076,395.7271265000163,396.22868390000076,395.7271265000163,396.22868390000076,395.14321500001824,None,396.22868390000076,398.1308503000182,0.6100000000000003,398.147618899995,None,398.8986654000182,None,,,,,,,[[1.89]],3.4800000000000026,0.6984126984126984,12012,001,2024_Jun_18_1734,MFTM_A_new1021,2021.2.3,60.24956575430466,
,,,,,,,,stim/Instruction_adaptive.png,conditions/adaptive.xlsx,test,-0.6,-0.6,-0.6,0.6,0.6,left,L,,,,,0,1,1,1,0,63,63,85,,,,,,,,,,,,,,,,,,,,,,,,,,,,,,,,,,,,,,,,,,,,399.39962050001486,None,right,0,1.9700980000197887,399.9014397000137,401.00268959999084,399.9014397000137,400.5015368000022,399.9014397000137,400.5015368000022,399.9014397000137,400.5015368000022,399.9014397000137,400.5015368000022,399.9014397000137,400.5015368000022,400.4679537000193,400.96853360001114,400.4679537000193,400.96853360001114,400.4679537000193,400.96853360001114,400.4679537000193,400.96853360001114,400.4679537000193,400.96853360001114,400.4679537000193,400.96853360001114,400.4679537000193,400.96853360001114,400.4679537000193,400.96853360001114,399.9014397000137,None,400.96853360001114,402.8880742000183,0.5900000000000003,402.90474180001183,None,403.6559276000189,None,,,,,,,[[1.91]],3.3500000000000023,0.6875,12012,001,2024_Jun_18_1734,MFTM_A_new1021,2021.2.3,60.24956575430466,
,,,,,,,,stim/Instruction_adaptive.png,conditions/adaptive.xlsx,test,-0.6,-0.6,-0.6,0.6,0.6,left,L,,,,,0,1,1,1,0,64,64,1,,,,,,,,,,,,,,,,,,,,,,,,,,,,,,,,,,,,,,,,,,,,404.15653910001856,None,right,0,2.174250799987931,404.65798099999665,405.8092439000029,404.65798099999665,405.30829970000195,404.65798099999665,405.30829970000195,404.65798099999665,405.30829970000195,404.65798099999665,405.30829970000195,404.65798099999665,405.30829970000195,405.29199190001236,405.7926140000054,405.29199190001236,405.7926140000054,405.29199190001236,405.7926140000054,405.29199190001236,405.7926140000054,405.29199190001236,405.7926140000054,405.29199190001236,405.7926140000054,405.29199190001236,405.7926140000054,405.29199190001236,405.7926140000054,404.65798099999665,None,405.7926140000054,407.64522289999877,0.6500000000000004,407.661806100019,None,408.4134110000159,None,,,,,,,[[1.85]],3.2100000000000026,0.676923076923077,12012,001,2024_Jun_18_1734,MFTM_A_new1021,2021.2.3,60.24956575430466,
,,,,,,,,stim/Instruction_adaptive.png,conditions/adaptive.xlsx,test,0.6,0.6,0.6,-0.6,-0.6,right,R,,,,,0,1,1,1,0,65,65,14,,,,,,,,,,,,,,,,,,,,,,,,,,,,,,,,,,,,,,,,,,,,408.9140783000039,None,left,0,1.745230000000447,409.4146327000053,410.63327829999616,409.4146327000053,410.1325729000091,409.4146327000053,410.1325729000091,409.4146327000053,410.1325729000091,409.4146327000053,410.1325729000091,409.4146327000053,410.1325729000091,410.0993396000122,410.59957479999866,410.0993396000122,410.59957479999866,410.0993396000122,410.59957479999866,410.0993396000122,410.59957479999866,410.0993396000122,410.59957479999866,410.0993396000122,410.59957479999866,410.0993396000122,410.59957479999866,410.0993396000122,410.59957479999866,409.4146327000053,None,410.59957479999866,412.4027793999994,0.7100000000000004,412.41908839999815,None,413.1710888000089,None,,,,,,,[[1.79]],3.0500000000000025,0.6666666666666666,12012,001,2024_Jun_18_1734,MFTM_A_new1021,2021.2.3,60.24956575430466,
,,,,,,,,stim/Instruction_adaptive.png,conditions/adaptive.xlsx,test,-0.6,-0.6,-0.6,0.6,0.6,left,L,,,,,0,1,1,1,0,66,66,77,,,,,,,,,,,,,,,,,,,,,,,,,,,,,,,,,,,,,,,,,,,,413.6720013000013,None,left,1,1.5401953000109643,414.1721148999932,415.47381990001304,414.1721148999932,414.9730428000039,414.1721148999932,414.9730428000039,414.1721148999932,414.9730428000039,414.1721148999932,414.9730428000039,414.1721148999932,414.9730428000039,414.93998990001273,415.4411379999947,414.93998990001273,415.4411379999947,414.93998990001273,415.4411379999947,414.93998990001273,415.4411379999947,414.93998990001273,415.4411379999947,414.93998990001273,415.4411379999947,414.93998990001273,415.4411379999947,414.93998990001273,415.4411379999947,414.1721148999932,None,415.4411379999947,417.1596817999962,0.7900000000000005,417.17645640001865,None,417.9273352000164,None,,,,,,,[[1.71]],3.110000000000002,0.6716417910447762,12012,001,2024_Jun_18_1734,MFTM_A_new1021,2021.2.3,60.24956575430466,
,,,,,,,,stim/Instruction_adaptive.png,conditions/adaptive.xlsx,test,-0.6,-0.6,-0.6,0.6,0.6,left,L,,,,,0,1,1,1,0,67,67,17,,,,,,,,,,,,,,,,,,,,,,,,,,,,,,,,,,,,,,,,,,,,418.42879579999135,None,left,1,1.9430219999921974,418.9290219999966,420.19770720001543,418.9290219999966,419.6971049999993,418.9290219999966,419.6971049999993,418.9290219999966,419.6971049999993,418.9290219999966,419.6971049999993,418.9290219999966,419.6971049999993,419.66335449999315,420.16406569999526,419.66335449999315,420.16406569999526,419.66335449999315,420.16406569999526,419.66335449999315,420.16406569999526,419.66335449999315,420.16406569999526,419.66335449999315,420.16406569999526,419.66335449999315,420.16406569999526,419.66335449999315,420.16406569999526,418.9290219999966,None,420.16406569999526,421.91759110000567,0.7600000000000005,421.9334778000193,None,422.6850948999927,None,,,,,,,[[1.74]],3.1600000000000024,0.6764705882352942,12012,001,2024_Jun_18_1734,MFTM_A_new1021,2021.2.3,60.24956575430466,
,,,,,,,,stim/Instruction_adaptive.png,conditions/adaptive.xlsx,test,-0.6,-0.6,-0.6,0.6,0.6,left,L,,,,,0,1,1,1,0,68,68,83,,,,,,,,,,,,,,,,,,,,,,,,,,,,,,,,,,,,,,,,,,,,423.1861179000116,None,None,0,0,423.68606629999704,424.93809159999364,423.68606629999704,424.43834690001677,423.68606629999704,424.43834690001677,423.68606629999704,424.43834690001677,423.68606629999704,424.43834690001677,423.68606629999704,424.43834690001677,424.4038756999944,424.90562710000086,424.4038756999944,424.90562710000086,424.4038756999944,424.90562710000086,424.4038756999944,424.90562710000086,424.4038756999944,424.90562710000086,424.4038756999944,424.90562710000086,424.4038756999944,424.90562710000086,424.4038756999944,424.90562710000086,423.68606629999704,None,424.90562710000086,427.17546240001684,0.7400000000000004,427.191158200003,None,427.94261410000036,None,,,,,,,[[2.26]],3.0100000000000025,0.6666666666666666,12012,001,2024_Jun_18_1734,MFTM_A_new1021,2021.2.3,60.24956575430466,
,,,,,,,,stim/Instruction_adaptive.png,conditions/adaptive.xlsx,test,-0.6,-0.6,-0.6,0.6,0.6,left,L,,,,,0,1,1,1,0,69,69,27,,,,,,,,,,,,,,,,,,,,,,,,,,,,,,,,,,,,,,,,,,,,428.4434423999919,None,left,1,1.311236600013217,428.9452350999927,430.2793323000078,428.9452350999927,429.7787612999964,428.9452350999927,429.7787612999964,428.9452350999927,429.7787612999964,428.9452350999927,429.7787612999964,428.9452350999927,429.7787612999964,429.7454787000024,430.24609880000935,429.7454787000024,430.24609880000935,429.7454787000024,430.24609880000935,429.7454787000024,430.24609880000935,429.7454787000024,430.24609880000935,429.7454787000024,430.24609880000935,429.7454787000024,430.24609880000935,429.7454787000024,430.24609880000935,428.9452350999927,None,430.24609880000935,431.9319453999924,0.8200000000000005,431.9485285000119,None,432.69988510000985,None,,,,,,,[[1.68]],3.0600000000000023,0.6714285714285714,12012,001,2024_Jun_18_1734,MFTM_A_new1021,2021.2.3,60.24956575430466,
,,,,,,,,stim/Instruction_adaptive.png,conditions/adaptive.xlsx,test,-0.6,-0.6,-0.6,0.6,0.6,left,L,,,,,0,1,1,1,0,70,70,57,,,,,,,,,,,,,,,,,,,,,,,,,,,,,,,,,,,,,,,,,,,,433.20037150001735,None,right,0,1.6352291000075638,433.7013920000172,435.00316379999276,433.7013920000172,434.5025365000183,433.7013920000172,434.5025365000183,433.7013920000172,434.5025365000183,433.7013920000172,434.5025365000183,433.7013920000172,434.5025365000183,434.4691153000167,434.9701180999982,434.4691153000167,434.9701180999982,434.4691153000167,434.9701180999982,434.4691153000167,434.9701180999982,434.4691153000167,434.9701180999982,434.4691153000167,434.9701180999982,434.4691153000167,434.9701180999982,434.4691153000167,434.9701180999982,433.7013920000172,None,434.9701180999982,436.6892228999932,0.7900000000000005,436.7058462999994,None,437.4569029000122,None,,,,,,,[[1.71]],2.910000000000002,0.6619718309859155,12012,001,2024_Jun_18_1734,MFTM_A_new1021,2021.2.3,60.24956575430466,
,,,,,,,,stim/Instruction_adaptive.png,conditions/adaptive.xlsx,test,0.6,0.6,0.6,-0.6,-0.6,right,R,,,,,0,1,1,1,0,71,71,4,,,,,,,,,,,,,,,,,,,,,,,,,,,,,,,,,,,,,,,,,,,,437.95833409999614,None,right,1,2.08662769998773,438.45827020000434,439.8438548000122,438.45827020000434,439.3431634000153,438.45827020000434,439.3431634000153,438.45827020000434,439.3431634000153,438.45827020000434,439.3431634000153,438.45827020000434,439.3431634000153,439.326911000011,439.82731610001065,439.326911000011,439.82731610001065,439.326911000011,439.82731610001065,439.326911000011,439.82731610001065,439.326911000011,439.82731610001065,439.326911000011,439.82731610001065,439.326911000011,439.82731610001065,439.326911000011,439.82731610001065,438.45827020000434,None,439.82731610001065,None,0.8800000000000006,441.4628823999956,None,442.2143810999987,None,,,,,,,[[1.62]],2.960000000000002,0.6666666666666666,12012,001,2024_Jun_18_1734,MFTM_A_new1021,2021.2.3,60.24956575430466,
,,,,,,,,stim/Instruction_adaptive.png,conditions/adaptive.xlsx,test,0.6,0.6,0.6,-0.6,-0.6,right,R,,,,,0,1,1,1,0,72,72,76,,,,,,,,,,,,,,,,,,,,,,,,,,,,,,,,,,,,,,,,,,,,442.71504979999736,None,right,1,2.1293189999996684,443.2155982000113,444.56811600000947,443.2155982000113,444.06729300000006,443.2155982000113,444.06729300000006,443.2155982000113,444.06729300000006,443.2155982000113,444.06729300000006,443.2155982000113,444.06729300000006,444.0505514999968,444.55195029999595,444.0505514999968,444.55195029999595,444.0505514999968,444.55195029999595,444.0505514999968,444.55195029999595,444.0505514999968,444.55195029999595,444.0505514999968,444.55195029999595,444.0505514999968,444.55195029999595,444.0505514999968,444.55195029999595,443.2155982000113,None,444.55195029999595,446.20337249999284,0.8500000000000005,446.2200361000141,None,446.9715742999979,None,,,,,,,[[1.65]],3.0100000000000025,0.6712328767123288,12012,001,2024_Jun_18_1734,MFTM_A_new1021,2021.2.3,60.24956575430466,
,,,,,,,,stim/Instruction_adaptive.png,conditions/adaptive.xlsx,test,0.6,0.6,0.6,-0.6,-0.6,right,R,,,,,0,1,1,1,0,73,73,30,,,,,,,,,,,,,,,,,,,,,,,,,,,,,,,,,,,,,,,,,,,,447.47185659999377,None,right,1,2.2436038999876473,447.9735007999989,449.30806710000616,447.9735007999989,448.8074013000005,447.9735007999989,448.8074013000005,447.9735007999989,448.8074013000005,447.9735007999989,448.8074013000005,447.9735007999989,448.8074013000005,448.77470280000125,449.2747832000023,448.77470280000125,449.2747832000023,448.77470280000125,449.2747832000023,448.77470280000125,449.2747832000023,448.77470280000125,449.2747832000023,448.77470280000125,449.2747832000023,448.77470280000125,449.2747832000023,448.77470280000125,449.2747832000023,447.9735007999989,None,449.2747832000023,450.96053939999547,0.8200000000000005,450.97720870000194,None,451.7283479000034,None,,,,,,,[[1.68]],3.0600000000000023,0.6756756756756757,12012,001,2024_Jun_18_1734,MFTM_A_new1021,2021.2.3,60.24956575430466,
,,,,,,,,stim/Instruction_adaptive.png,conditions/adaptive.xlsx,test,0.6,0.6,0.6,-0.6,-0.6,right,R,,,,,0,1,1,1,0,74,74,24,,,,,,,,,,,,,,,,,,,,,,,,,,,,,,,,,,,,,,,,,,,,452.2291355000052,None,left,0,1.5995602999755647,452.7300832000037,454.0326164000144,452.7300832000037,453.53129070001887,452.7300832000037,453.53129070001887,452.7300832000037,453.53129070001887,452.7300832000037,453.53129070001887,452.7300832000037,453.53129070001887,453.4981872999924,453.9984600000025,453.4981872999924,453.9984600000025,453.4981872999924,453.9984600000025,453.4981872999924,453.9984600000025,453.4981872999924,453.9984600000025,453.4981872999924,453.9984600000025,453.4981872999924,453.9984600000025,453.4981872999924,453.9984600000025,452.7300832000037,None,453.9984600000025,455.7175743000116,0.7900000000000005,455.734331500018,None,456.4873964000144,None,,,,,,,[[1.71]],2.920000000000002,0.6666666666666666,12012,001,2024_Jun_18_1734,MFTM_A_new1021,2021.2.3,60.24956575430466,
,,,,,,,,stim/Instruction_adaptive.png,conditions/adaptive.xlsx,test,-0.6,-0.6,-0.6,0.6,0.6,left,L,,,,,0,1,1,1,0,75,75,89,,,,,,,,,,,,,,,,,,,,,,,,,,,,,,,,,,,,,,,,,,,,456.9867407999991,None,left,1,1.9547729000041727,457.48719320000964,458.8723804000183,457.48719320000964,458.37181860001874,457.48719320000964,458.37181860001874,457.48719320000964,458.37181860001874,457.48719320000964,458.37181860001874,457.48719320000964,458.37181860001874,458.33941030001733,458.8392540999921,458.33941030001733,458.8392540999921,458.33941030001733,458.8392540999921,458.33941030001733,458.8392540999921,458.33941030001733,458.8392540999921,458.33941030001733,458.8392540999921,458.33941030001733,458.8392540999921,458.33941030001733,458.8392540999921,457.48719320000964,None,458.8392540999921,460.475184800016,0.8700000000000006,460.49154419999104,None,461.2430954000156,None,,,,,,,[[1.63]],2.9700000000000024,0.6710526315789473,12012,001,2024_Jun_18_1734,MFTM_A_new1021,2021.2.3,60.24956575430466,
,,,,,,,,stim/Instruction_adaptive.png,conditions/adaptive.xlsx,test,0.6,0.6,0.6,-0.6,-0.6,right,R,,,,,0,1,1,1,0,76,76,70,,,,,,,,,,,,,,,,,,,,,,,,,,,,,,,,,,,,,,,,,,,,461.7438795999915,None,right,1,1.2851146000029985,462.2450572999951,463.5964795000036,462.2450572999951,463.09590040001785,462.2450572999951,463.09590040001785,462.2450572999951,463.09590040001785,462.2450572999951,463.09590040001785,462.2450572999951,463.09590040001785,463.06346000000485,463.5634444000025,463.06346000000485,463.5634444000025,463.06346000000485,463.5634444000025,463.06346000000485,463.5634444000025,463.06346000000485,463.5634444000025,463.06346000000485,463.5634444000025,463.06346000000485,463.5634444000025,463.06346000000485,463.5634444000025,462.2450572999951,None,463.5634444000025,465.2321915999928,0.8400000000000005,465.2489728000073,None,466.00013930001296,None,,,,,,,[[1.66]],3.0200000000000022,0.6753246753246753,12012,001,2024_Jun_18_1734,MFTM_A_new1021,2021.2.3,60.24956575430466,
,,,,,,,,stim/Instruction_adaptive.png,conditions/adaptive.xlsx,test,0.6,0.6,0.6,-0.6,-0.6,right,R,,,,,0,1,1,1,0,77,77,60,,,,,,,,,,,,,,,,,,,,,,,,,,,,,,,,,,,,,,,,,,,,466.50135199999204,None,right,1,1.2482463000051212,467.00141560001066,468.32013750000624,467.00141560001066,467.819247300009,467.00141560001066,467.819247300009,467.00141560001066,467.819247300009,467.00141560001066,467.819247300009,467.00141560001066,467.819247300009,467.78606869999203,468.2867963000026,467.78606869999203,468.2867963000026,467.78606869999203,468.2867963000026,467.78606869999203,468.2867963000026,467.78606869999203,468.2867963000026,467.78606869999203,468.2867963000026,467.78606869999203,468.2867963000026,467.78606869999203,468.2867963000026,467.00141560001066,None,468.2867963000026,469.9893959000183,0.8100000000000005,470.00680360000115,None,470.75692390001495,None,,,,,,,[[1.69]],3.0600000000000023,0.6794871794871795,12012,001,2024_Jun_18_1734,MFTM_A_new1021,2021.2.3,60.24956575430466,
,,,,,,,,stim/Instruction_adaptive.png,conditions/adaptive.xlsx,test,0.6,0.6,0.6,-0.6,-0.6,right,R,,,,,0,1,1,1,0,78,78,98,,,,,,,,,,,,,,,,,,,,,,,,,,,,,,,,,,,,,,,,,,,,471.25816759999725,None,right,1,1.7077873999951407,471.75862989999587,473.06154100000276,471.75862989999587,472.5612716000178,471.75862989999587,472.5612716000178,471.75862989999587,472.5612716000178,471.75862989999587,472.5612716000178,471.75862989999587,472.5612716000178,472.52694310000516,473.02732990001095,472.52694310000516,473.02732990001095,472.52694310000516,473.02732990001095,472.52694310000516,473.02732990001095,472.52694310000516,473.02732990001095,472.52694310000516,473.02732990001095,472.52694310000516,473.02732990001095,472.52694310000516,473.02732990001095,471.75862989999587,None,473.02732990001095,474.74643050000304,0.7900000000000005,474.7631294000021,None,475.51424039999256,None,,,,,,,[[1.71]],3.1000000000000023,0.6835443037974683,12012,001,2024_Jun_18_1734,MFTM_A_new1021,2021.2.3,60.24956575430466,
,,,,,,,,stim/Instruction_adaptive.png,conditions/adaptive.xlsx,test,-0.6,-0.6,-0.6,0.6,0.6,left,L,,,,,0,1,1,1,0,79,79,45,,,,,,,,,,,,,,,,,,,,,,,,,,,,,,,,,,,,,,,,,,,,476.01556460000575,None,left,1,0.9898508999904152,476.5157920999918,477.80115730001125,476.5157920999918,477.3003244000138,476.5157920999918,477.3003244000138,476.5157920999918,477.3003244000138,476.5157920999918,477.3003244000138,476.5157920999918,477.3003244000138,477.2669753000082,477.7678133000154,477.2669753000082,477.7678133000154,477.2669753000082,477.7678133000154,477.2669753000082,477.7678133000154,477.2669753000082,477.7678133000154,477.2669753000082,477.7678133000154,477.2669753000082,477.7678133000154,477.2669753000082,477.7678133000154,476.5157920999918,None,477.7678133000154,479.50382830001763,0.7700000000000005,479.5215281000128,None,480.272335799993,None,,,,,,,[[1.73]],3.1400000000000023,0.6875,12012,001,2024_Jun_18_1734,MFTM_A_new1021,2021.2.3,60.24956575430466,
,,,,,,,,stim/Instruction_adaptive.png,conditions/adaptive.xlsx,test,-0.6,-0.6,-0.6,0.6,0.6,left,L,,,,,0,1,1,1,0,80,80,11,,,,,,,,,,,,,,,,,,,,,,,,,,,,,,,,,,,,,,,,,,,,480.77223380000214,None,left,1,1.0331410999933723,481.27289900000324,482.52468309999676,481.27289900000324,482.02405390000786,481.27289900000324,482.02405390000786,481.27289900000324,482.02405390000786,481.27289900000324,482.02405390000786,481.27289900000324,482.02405390000786,482.00749570000335,482.50852000000305,482.00749570000335,482.50852000000305,482.00749570000335,482.50852000000305,482.00749570000335,482.50852000000305,482.00749570000335,482.50852000000305,482.00749570000335,482.50852000000305,482.00749570000335,482.50852000000305,482.00749570000335,482.50852000000305,481.27289900000324,None,482.50852000000305,484.2608123999962,0.7500000000000004,484.2775127000059,None,485.0287229999958,None,,,,,,,[[1.75]],3.1800000000000024,0.691358024691358,12012,001,2024_Jun_18_1734,MFTM_A_new1021,2021.2.3,60.24956575430466,
,,,,,,,,stim/Instruction_adaptive.png,conditions/adaptive.xlsx,test,-0.6,-0.6,-0.6,0.6,0.6,left,L,,,,,0,1,1,1,0,81,81,97,,,,,,,,,,,,,,,,,,,,,,,,,,,,,,,,,,,,,,,,,,,,485.52934070001356,None,left,1,1.5001941999944393,486.0300775000069,487.26630350001506,486.0300775000069,486.7645601000113,486.0300775000069,486.7645601000113,486.0300775000069,486.7645601000113,486.0300775000069,486.7645601000113,486.0300775000069,486.7645601000113,486.74777069999254,487.2487642999913,486.74777069999254,487.2487642999913,486.74777069999254,487.2487642999913,486.74777069999254,487.2487642999913,486.74777069999254,487.2487642999913,486.74777069999254,487.2487642999913,486.74777069999254,487.2487642999913,486.74777069999254,487.2487642999913,486.0300775000069,None,487.2487642999913,489.0181234999909,0.7300000000000004,489.03465499999584,None,489.7863068000006,None,,,,,,,[[1.77]],3.2200000000000024,0.6951219512195121,12012,001,2024_Jun_18_1734,MFTM_A_new1021,2021.2.3,60.24956575430466,
,,,,,,,,stim/Instruction_adaptive.png,conditions/adaptive.xlsx,test,-0.6,-0.6,-0.6,0.6,0.6,left,L,,,,,0,1,1,1,0,82,82,7,,,,,,,,,,,,,,,,,,,,,,,,,,,,,,,,,,,,,,,,,,,,490.2866444000101,None,left,1,0.8786148999934085,490.7877551999991,492.0058834000083,490.7877551999991,491.50535910000326,490.7877551999991,491.50535910000326,490.7877551999991,491.50535910000326,490.7877551999991,491.50535910000326,490.7877551999991,491.50535910000326,491.47181780001847,491.9726068000018,491.47181780001847,491.9726068000018,491.47181780001847,491.9726068000018,491.47181780001847,491.9726068000018,491.47181780001847,491.9726068000018,491.47181780001847,491.9726068000018,491.47181780001847,491.9726068000018,491.47181780001847,491.9726068000018,490.7877551999991,None,491.9726068000018,493.7750794000167,0.7100000000000004,493.79225560001214,None,494.54372750001494,None,,,,,,,[[1.79]],3.2500000000000027,0.6987951807228916,12012,001,2024_Jun_18_1734,MFTM_A_new1021,2021.2.3,60.24956575430466,
,,,,,,,,stim/Instruction_adaptive.png,conditions/adaptive.xlsx,test,-0.6,-0.6,-0.6,0.6,0.6,left,L,,,,,0,1,1,1,0,83,83,93,,,,,,,,,,,,,,,,,,,,,,,,,,,,,,,,,,,,,,,,,,,,495.0441276000056,None,left,1,2.648864599992521,495.54540659999475,496.7463015000103,495.54540659999475,496.2454459000146,495.54540659999475,496.2454459000146,495.54540659999475,496.2454459000146,495.54540659999475,496.2454459000146,495.54540659999475,496.2454459000146,496.2122135999962,496.71291460000793,496.2122135999962,496.71291460000793,496.2122135999962,496.71291460000793,496.2122135999962,496.71291460000793,496.2122135999962,496.71291460000793,496.2122135999962,496.71291460000793,496.2122135999962,496.71291460000793,496.2122135999962,496.71291460000793,495.54540659999475,None,496.71291460000793,498.53275179999764,0.6900000000000004,498.5489658000006,None,499.30014720000327,None,,,,,,,[[1.81]],3.2800000000000025,0.7023809523809523,12012,001,2024_Jun_18_1734,MFTM_A_new1021,2021.2.3,60.24956575430466,
,,,,,,,,stim/Instruction_adaptive.png,conditions/adaptive.xlsx,test,-0.6,-0.6,-0.6,0.6,0.6,left,L,,,,,0,1,1,1,0,84,84,33,,,,,,,,,,,,,,,,,,,,,,,,,,,,,,,,,,,,,,,,,,,,499.8015174000175,None,left,1,2.4533399999781977,500.3017916000099,501.4867415000044,500.3017916000099,500.98652979999315,500.3017916000099,500.98652979999315,500.3017916000099,500.98652979999315,500.3017916000099,500.98652979999315,500.3017916000099,500.98652979999315,500.96985019999556,501.4699637000158,500.96985019999556,501.4699637000158,500.96985019999556,501.4699637000158,500.96985019999556,501.4699637000158,500.96985019999556,501.4699637000158,500.96985019999556,501.4699637000158,500.96985019999556,501.4699637000158,500.96985019999556,501.4699637000158,500.3017916000099,None,501.4699637000158,503.289525900007,0.6800000000000004,503.30613260000246,None,504.057493100001,None,,,,,,,[[1.82]],3.3100000000000023,0.7058823529411765,12012,001,2024_Jun_18_1734,MFTM_A_new1021,2021.2.3,60.24956575430466,
,,,,,,,,stim/Instruction_adaptive.png,conditions/adaptive.xlsx,test,-0.6,-0.6,-0.6,0.6,0.6,left,L,,,,,0,1,1,1,0,85,85,67,,,,,,,,,,,,,,,,,,,,,,,,,,,,,,,,,,,,,,,,,,,,504.56010560001596,None,left,1,1.0954678999842145,505.05902360001346,506.2272758000181,505.05902360001346,505.72661519999383,505.05902360001346,505.72661519999383,505.05902360001346,505.72661519999383,505.05902360001346,505.72661519999383,505.05902360001346,505.72661519999383,505.7097874000028,506.2109630999912,505.7097874000028,506.2109630999912,505.7097874000028,506.2109630999912,505.7097874000028,506.2109630999912,505.7097874000028,506.2109630999912,505.7097874000028,506.2109630999912,505.7097874000028,506.2109630999912,505.7097874000028,506.2109630999912,505.05902360001346,None,506.2109630999912,None,0.6600000000000004,508.06324660000973,None,508.81456739999703,None,,,,,,,[[1.84]],3.3400000000000025,0.7093023255813954,12012,001,2024_Jun_18_1734,MFTM_A_new1021,2021.2.3,60.24956575430466,
,,,,,,,,stim/Instruction_adaptive.png,conditions/adaptive.xlsx,test,-0.6,-0.6,-0.6,0.6,0.6,left,L,,,,,0,1,1,1,0,86,86,23,,,,,,,,,,,,,,,,,,,,,,,,,,,,,,,,,,,,,,,,,,,,509.31519320001826,None,right,0,2.354437100002542,509.816084399994,510.96764330001315,509.816084399994,510.4672782999987,509.816084399994,510.4672782999987,509.816084399994,510.4672782999987,509.816084399994,510.4672782999987,509.816084399994,510.4672782999987,510.45045820000814,510.9509001999977,510.45045820000814,510.9509001999977,510.45045820000814,510.9509001999977,510.45045820000814,510.9509001999977,510.45045820000814,510.9509001999977,510.45045820000814,510.9509001999977,510.45045820000814,510.9509001999977,510.45045820000814,510.9509001999977,509.816084399994,None,510.9509001999977,512.8050737000012,0.6500000000000004,512.8202291000052,None,513.5724614000064,None,,,,,,,[[1.85]],3.2600000000000025,0.7011494252873564,12012,001,2024_Jun_18_1734,MFTM_A_new1021,2021.2.3,60.24956575430466,
,,,,,,,,stim/Instruction_adaptive.png,conditions/adaptive.xlsx,test,0.6,0.6,0.6,-0.6,-0.6,right,R,,,,,0,1,1,1,0,87,87,78,,,,,,,,,,,,,,,,,,,,,,,,,,,,,,,,,,,,,,,,,,,,514.0724731000082,None,right,1,1.1738732999947388,514.5731914000062,515.7751234000025,514.5731914000062,515.2743500999932,514.5731914000062,515.2743500999932,514.5731914000062,515.2743500999932,514.5731914000062,515.2743500999932,514.5731914000062,515.2743500999932,515.2407602000167,515.7415987999993,515.2407602000167,515.7415987999993,515.2407602000167,515.7415987999993,515.2407602000167,515.7415987999993,515.2407602000167,515.7415987999993,515.2407602000167,515.7415987999993,515.2407602000167,515.7415987999993,515.2407602000167,515.7415987999993,514.5731914000062,None,515.7415987999993,517.5614702000166,0.6900000000000004,517.5776982000098,None,518.3290228999977,None,,,,,,,[[1.81]],3.2900000000000027,0.7045454545454546,12012,001,2024_Jun_18_1734,MFTM_A_new1021,2021.2.3,60.24956575430466,
,,,,,,,,stim/Instruction_adaptive.png,conditions/adaptive.xlsx,test,0.6,0.6,0.6,-0.6,-0.6,right,R,,,,,0,1,1,1,0,88,88,74,,,,,,,,,,,,,,,,,,,,,,,,,,,,,,,,,,,,,,,,,,,,518.8306308000174,None,right,1,1.623699999996461,519.3313135000062,520.5156516999996,519.3313135000062,520.0153097000148,519.3313135000062,520.0153097000148,519.3313135000062,520.0153097000148,519.3313135000062,520.0153097000148,519.3313135000062,520.0153097000148,519.9812891000183,520.4821416000195,519.9812891000183,520.4821416000195,519.9812891000183,520.4821416000195,519.9812891000183,520.4821416000195,519.9812891000183,520.4821416000195,519.9812891000183,520.4821416000195,519.9812891000183,520.4821416000195,519.9812891000183,520.4821416000195,519.3313135000062,None,520.4821416000195,522.3194526000007,0.6700000000000004,522.3348638000025,None,523.0866135999968,None,,,,,,,[[1.83]],3.3200000000000025,0.7078651685393258,12012,001,2024_Jun_18_1734,MFTM_A_new1021,2021.2.3,60.24956575430466,
,,,,,,,,stim/Instruction_adaptive.png,conditions/adaptive.xlsx,test,0.6,0.6,0.6,-0.6,-0.6,right,R,,,,,0,1,1,1,0,89,89,88,,,,,,,,,,,,,,,,,,,,,,,,,,,,,,,,,,,,,,,,,,,,523.5866165000189,None,left,0,2.699344499997096,524.0875940000114,525.2558981000038,524.0875940000114,524.7552500000165,524.0875940000114,524.7552500000165,524.0875940000114,524.7552500000165,524.0875940000114,524.7552500000165,524.0875940000114,524.7552500000165,524.7386485000025,525.239206600003,524.7386485000025,525.239206600003,524.7386485000025,525.239206600003,524.7386485000025,525.239206600003,524.7386485000025,525.239206600003,524.7386485000025,525.239206600003,524.7386485000025,525.239206600003,524.7386485000025,525.239206600003,524.0875940000114,None,525.239206600003,None,0.6600000000000004,527.0914725000039,None,527.8431818000099,None,,,,,,,[[1.84]],3.230000000000002,0.7,12012,001,2024_Jun_18_1734,MFTM_A_new1021,2021.2.3,60.24956575430466,
,,,,,,,,stim/Instruction_adaptive.png,conditions/adaptive.xlsx,test,-0.6,-0.6,-0.6,0.6,0.6,left,L,,,,,0,1,1,1,0,90,90,41,,,,,,,,,,,,,,,,,,,,,,,,,,,,,,,,,,,,,,,,,,,,528.3440426000161,None,None,0,0,528.8446491000068,530.0469069000101,528.8446491000068,529.5457602000097,528.8446491000068,529.5457602000097,528.8446491000068,529.5457602000097,528.8446491000068,529.5457602000097,528.8446491000068,529.5457602000097,529.5291553999996,530.0299115999951,529.5291553999996,530.0299115999951,529.5291553999996,530.0299115999951,529.5291553999996,530.0299115999951,529.5291553999996,530.0299115999951,529.5291553999996,530.0299115999951,529.5291553999996,530.0299115999951,529.5291553999996,530.0299115999951,528.8446491000068,None,530.0299115999951,532.3333964000049,0.7000000000000004,532.3500473000167,None,533.1011492999969,None,,,,,,,[[2.3]],3.1400000000000023,0.6923076923076923,12012,001,2024_Jun_18_1734,MFTM_A_new1021,2021.2.3,60.24956575430466,
,,,,,,,,stim/Instruction_adaptive.png,conditions/adaptive.xlsx,test,0.6,0.6,0.6,-0.6,-0.6,right,R,,,,,0,1,1,1,0,91,91,96,,,,,,,,,,,,,,,,,,,,,,,,,,,,,,,,,,,,,,,,,,,,533.6018814000126,None,right,1,1.1808844999759458,534.1027121999941,535.3547446000157,534.1027121999941,534.8541354000045,534.1027121999941,534.8541354000045,534.1027121999941,534.8541354000045,534.1027121999941,534.8541354000045,534.1027121999941,534.8541354000045,534.8371898000187,535.337998700008,534.8371898000187,535.337998700008,534.8371898000187,535.337998700008,534.8371898000187,535.337998700008,534.8371898000187,535.337998700008,534.8371898000187,535.337998700008,534.8371898000187,535.337998700008,534.8371898000187,535.337998700008,534.1027121999941,None,535.337998700008,537.0905672000081,0.7500000000000004,537.1071589000057,None,537.8589857000043,None,,,,,,,[[1.75]],3.1700000000000026,0.6956521739130435,12012,001,2024_Jun_18_1734,MFTM_A_new1021,2021.2.3,60.24956575430466,
,,,,,,,,stim/Instruction_adaptive.png,conditions/adaptive.xlsx,test,-0.6,-0.6,-0.6,0.6,0.6,left,L,,,,,0,1,1,1,0,92,92,15,,,,,,,,,,,,,,,,,,,,,,,,,,,,,,,,,,,,,,,,,,,,538.3606098000018,None,left,1,1.1915424999897368,538.8599966000183,540.094961499999,538.8599966000183,539.5952549999929,538.8599966000183,539.5952549999929,538.8599966000183,539.5952549999929,538.8599966000183,539.5952549999929,538.8599966000183,539.5952549999929,539.5776055000024,540.078219899995,539.5776055000024,540.078219899995,539.5776055000024,540.078219899995,539.5776055000024,540.078219899995,539.5776055000024,540.078219899995,539.5776055000024,540.078219899995,539.5776055000024,540.078219899995,539.5776055000024,540.078219899995,538.8599966000183,None,540.0616370000062,541.8309676999925,0.7300000000000004,541.8642832000041,None,542.6154766000109,None,,,,,,,[[1.77]],3.2000000000000024,0.6989247311827957,12012,001,2024_Jun_18_1734,MFTM_A_new1021,2021.2.3,60.24956575430466,
,,,,,,,,stim/Instruction_adaptive.png,conditions/adaptive.xlsx,test,0.6,0.6,0.6,-0.6,-0.6,right,R,,,,,0,1,1,1,0,93,93,12,,,,,,,,,,,,,,,,,,,,,,,,,,,,,,,,,,,,,,,,,,,,543.1172097999952,None,right,1,2.5463159999926575,543.6172741999908,544.8526944000041,543.6172741999908,544.351476300013,543.6172741999908,544.351476300013,543.6172741999908,544.351476300013,543.6172741999908,544.351476300013,543.6172741999908,544.351476300013,544.3180527999939,544.8188026999997,544.3180527999939,544.8188026999997,544.3180527999939,544.8188026999997,544.3180527999939,544.8188026999997,544.3180527999939,544.8188026999997,544.3180527999939,544.8188026999997,544.3180527999939,544.8188026999997,544.3180527999939,544.8188026999997,543.6172741999908,None,544.8188026999997,546.6047744000098,0.7200000000000004,546.6214667000168,None,547.3729001000174,None,,,,,,,[[1.78]],3.230000000000002,0.7021276595744681,12012,001,2024_Jun_18_1734,MFTM_A_new1021,2021.2.3,60.24956575430466,
