arrwidth1,arrwidth2,arrwidth3,arrwidth4,arrwidth5,keyb,type,orientation,instruction_image,block_filename,block_type,arrow11,arrow22,arrow33,arrow44,arrow55,keyb_3,orientation3,trials.thisRepN,trials.thisTrialN,trials.thisN,trials.thisIndex,trials_3.thisRepN,trials_3.thisTrialN,trials_3.thisN,trials_3.thisIndex,trials_2.thisRepN,trials_2.thisTrialN,trials_2.thisN,trials_2.thisIndex,welcome.started,welcome.stopped,key_resp.keys,key_resp.rt,key_resp.started,key_resp.stopped,instruction_example.started,instruction_example.stopped,key_resp_3.keys,key_resp_3.rt,key_resp_3.started,key_resp_3.stopped,instruction_task.started,instruction_task.stopped,key_resp_2.keys,key_resp_2.rt,key_resp_2.started,key_resp_2.stopped,text_2.started,text_2.stopped,A1.started,A1.stopped,A2.started,A2.stopped,A3.started,A3.stopped,A4.started,A4.stopped,A5.started,A5.stopped,key_resp_4.keys,key_resp_4.corr,key_resp_4.rt,key_resp_4.started,key_resp_4.stopped,fb.started,fb.stopped,instruction_block.started,instruction_block.stopped,key_resp_8.keys,key_resp_8.rt,key_resp_8.started,key_resp_8.stopped,text_8.started,text_8.stopped,key_resp_9.keys,key_resp_9.corr,key_resp_9.rt,text_5.started,text_5.stopped,A11_3.started,A11_3.stopped,A22_2.started,A22_2.stopped,A33_2.started,A33_2.stopped,A44_2.started,A44_2.stopped,A55_2.started,A55_2.stopped,M1_3.started,M1_3.stopped,M2_2.started,M2_2.stopped,M3_2.started,M3_2.stopped,M4_2.started,M4_2.stopped,M5_2.started,M5_2.stopped,M6_2.started,M6_2.stopped,M7_2.started,M7_2.stopped,M8_2.started,M8_2.stopped,key_resp_9.started,key_resp_9.stopped,fixation.started,fixation.stopped,ET,fb_3.started,fb_3.stopped,text_9.started,text_9.stopped,fb_4.started,fb_4.stopped,text_7.started,text_7.stopped,endtext.started,endtext.stopped,fixation_ITI,CCC,Acc,participant,session,date,expName,psychopyVersion,frameRate,
,,,,,,,,,,,,,,,,,,,,,,,,,,,,,,10.975640999997267,None,right,1.6355558999930508,10.975640999997267,None,,,,,,,,,,,,,,,,,,,,,,,,,,,,,,,,,,,,,,,,,,,,,,,,,,,,,,,,,,,,,,,,,,,,,,,,,,,,,,,,,,,,,,,,,12011,001,2024_Jun_17_0830,MFTM_A_new1021,2021.2.3,59.68107626101303,
,,,,,,,,,,,,,,,,,,,,,,,,,,,,,,,,,,,,12.6277693999873,None,right,6.6096227999951225,12.6277693999873,None,,,,,,,,,,,,,,,,,,,,,,,,,,,,,,,,,,,,,,,,,,,,,,,,,,,,,,,,,,,,,,,,,,,,,,,,,,,,,,,,,,,12011,001,2024_Jun_17_0830,MFTM_A_new1021,2021.2.3,59.68107626101303,
,,,,,,,,,,,,,,,,,,,,,,,,,,,,,,,,,,,,,,,,,,19.254274700011592,None,right,13.093889599986142,19.254274700011592,None,,,,,,,,,,,,,,,,,,,,,,,,,,,,,,,,,,,,,,,,,,,,,,,,,,,,,,,,,,,,,,,,,,,,,,,,,,,,,12011,001,2024_Jun_17_0830,MFTM_A_new1021,2021.2.3,59.68107626101303,
-0.6,-0.6,-0.6,0.6,0.6,left,3:2,L,,,,,,,,,,,0,0,0,1,,,,,,,,,,,,,,,,,,,,,,,,,,,32.390932800015435,None,32.390932800015435,None,32.390932800015435,None,32.390932800015435,None,32.390932800015435,None,32.390932800015435,None,left,1,2.264592799998354,32.390932800015435,None,34.69423670001561,None,,,,,,,,,,,,,,,,,,,,,,,,,,,,,,,,,,,,,,,,,,,,,,,,,,,,,,,,,,12011,001,2024_Jun_17_0830,MFTM_A_new1021,2021.2.3,59.68107626101303,
0.6,0.6,0.6,-0.6,-0.6,right,3:2,R,,,,,,,,,,,0,1,1,0,,,,,,,,,,,,,,,,,,,,,,,,,,,35.44608130000415,None,35.44608130000415,None,35.44608130000415,None,35.44608130000415,None,35.44608130000415,None,35.44608130000415,None,right,1,1.0976735000149347,35.44608130000415,None,36.563864299998386,None,,,,,,,,,,,,,,,,,,,,,,,,,,,,,,,,,,,,,,,,,,,,,,,,,,,,,,,,,,12011,001,2024_Jun_17_0830,MFTM_A_new1021,2021.2.3,59.68107626101303,
0.6,0.6,0.6,-0.6,-0.6,right,3:2,R,,,,,,,,,,,1,0,2,0,,,,,,,,,,,,,,,,,,,,,,,,,,,37.315266699995846,None,37.315266699995846,None,37.315266699995846,None,37.315266699995846,None,37.315266699995846,None,37.315266699995846,None,right,1,1.1013111000065692,37.315266699995846,None,38.43332859998918,None,,,,,,,,,,,,,,,,,,,,,,,,,,,,,,,,,,,,,,,,,,,,,,,,,,,,,,,,,,12011,001,2024_Jun_17_0830,MFTM_A_new1021,2021.2.3,59.68107626101303,
-0.6,-0.6,-0.6,0.6,0.6,left,3:2,L,,,,,,,,,,,1,1,3,1,,,,,,,,,,,,,,,,,,,,,,,,,,,39.18498150000232,None,39.18498150000232,None,39.18498150000232,None,39.18498150000232,None,39.18498150000232,None,39.18498150000232,None,left,1,1.1507697000051849,39.18498150000232,None,40.35285669998848,None,,,,,,,,,,,,,,,,,,,,,,,,,,,,,,,,,,,,,,,,,,,,,,,,,,,,,,,,,,12011,001,2024_Jun_17_0830,MFTM_A_new1021,2021.2.3,59.68107626101303,
,,,,,,,,stim/Instruction_mask.png,conditions/adaptive.xlsx,practice,-0.6,-0.6,-0.6,0.6,0.6,left,L,,,,,0,0,0,0,0,0,0,81,,,,,,,,,,,,,,,,,,,,,,,,,,,,,,,,,,,,,,41.33847459999379,None,left,15.142012800002703,41.33847459999379,None,56.59480540000368,None,left,1,1.5720993999857455,57.02791080001043,None,57.02791080001043,60.03284510000958,57.02791080001043,60.03284510000958,57.02791080001043,60.03284510000958,57.02791080001043,60.03284510000958,57.02791080001043,60.03284510000958,60.01613740000175,60.51644340000348,60.01613740000175,60.51644340000348,60.01613740000175,60.51644340000348,60.01613740000175,60.51644340000348,60.01613740000175,60.51644340000348,60.01613740000175,60.51644340000348,60.01613740000175,60.51644340000348,60.01613740000175,60.51644340000348,57.02791080001043,None,60.51644340000348,60.51644340000348,3,60.53312589999405,None,61.28443649999099,None,,,,,,,,,,12011,001,2024_Jun_17_0830,MFTM_A_new1021,2021.2.3,59.68107626101303,
,,,,,,,,stim/Instruction_mask.png,conditions/adaptive.xlsx,practice,-0.6,-0.6,-0.6,0.6,0.6,left,L,,,,,0,0,0,0,0,1,1,85,,,,,,,,,,,,,,,,,,,,,,,,,,,,,,,,,,,,,,,,,,,,61.78609020001022,None,left,1,1.834703400003491,62.285938599990914,64.28903260000516,62.285938599990914,63.788469899998745,62.285938599990914,63.788469899998745,62.285938599990914,63.788469899998745,62.285938599990914,63.788469899998745,62.285938599990914,63.788469899998745,63.771660500002326,64.27254159998847,63.771660500002326,64.27254159998847,63.771660500002326,64.27254159998847,63.771660500002326,64.27254159998847,63.771660500002326,64.27254159998847,63.771660500002326,64.27254159998847,63.771660500002326,64.27254159998847,63.771660500002326,64.27254159998847,62.285938599990914,None,64.27254159998847,65.77466500000446,1.5,65.79124560000491,None,66.54246719999355,None,,,,,,,,,,12011,001,2024_Jun_17_0830,MFTM_A_new1021,2021.2.3,59.68107626101303,
,,,,,,,,stim/Instruction_mask.png,conditions/adaptive.xlsx,practice,-0.6,-0.6,-0.6,0.6,0.6,left,L,,,,,0,0,0,0,0,2,2,3,,,,,,,,,,,,,,,,,,,,,,,,,,,,,,,,,,,,,,,,,,,,67.04319319999195,None,right,0,1.1604419999930542,67.5440624000039,68.84738580000703,67.5440624000039,68.3460449000122,67.5440624000039,68.3460449000122,67.5440624000039,68.3460449000122,67.5440624000039,68.3460449000122,67.5440624000039,68.3460449000122,68.32925139999134,68.82916709998972,68.32925139999134,68.82916709998972,68.32925139999134,68.82916709998972,68.32925139999134,68.82916709998972,68.32925139999134,68.82916709998972,68.32925139999134,68.82916709998972,68.32925139999134,68.82916709998972,68.32925139999134,68.82916709998972,67.5440624000039,None,68.82916709998972,71.03390730000683,0.8,71.06670319999103,None,71.8192260999931,None,,,,,,,,,,12011,001,2024_Jun_17_0830,MFTM_A_new1021,2021.2.3,59.68107626101303,
,,,,,,,,stim/Instruction_mask.png,conditions/adaptive.xlsx,practice,-0.6,-0.6,-0.6,0.6,0.6,left,L,,,,,0,0,0,0,0,3,3,25,,,,,,,,,,,,,,,,,,,,,,,,,,,,,,,,,,,,,,,,,,,,72.31888450001134,None,right,0,1.6057914999837521,72.81857910001418,73.56966370000737,72.81857910001418,73.06901120001567,72.81857910001418,73.06901120001567,72.81857910001418,73.06901120001567,72.81857910001418,73.06901120001567,72.81857910001418,73.06901120001567,73.0522784999921,73.55285189999267,73.0522784999921,73.55285189999267,73.0522784999921,73.55285189999267,73.0522784999921,73.55285189999267,73.0522784999921,73.55285189999267,73.0522784999921,73.55285189999267,73.0522784999921,73.55285189999267,73.0522784999921,73.55285189999267,72.81857910001418,None,73.55285189999267,76.30715959999361,3,76.32365219999338,None,77.07507869999972,None,,,,,,,,,,12011,001,2024_Jun_17_0830,MFTM_A_new1021,2021.2.3,59.68107626101303,
,,,,,,,,stim/Instruction_mask.png,conditions/adaptive.xlsx,practice,,,,,,,,,,,,0,0,0,0,,,,,,,,,,,,,,,,,,,,,,,,,,,,,,,,,,,,,,,,,,,,,,,,,,,,,,,,,,,,,,,,,,,,,,,,,,,,,,,,,,,,,,,,,,77.60956020001322,78.60986699999194,78.59419040000648,78.59419040000648,78.59419040000648,None,,,,12011,001,2024_Jun_17_0830,MFTM_A_new1021,2021.2.3,59.68107626101303,
,,,,,,,,stim/Instruction_adaptive.png,conditions/adaptive.xlsx,test,0.6,0.6,0.6,-0.6,-0.6,right,R,,,,,0,1,1,1,0,0,0,24,,,,,,,,,,,,,,,,,,,,,,,,,,,,,,,,,,,,,,81.71512939999229,None,right,14.134216100006597,81.71512939999229,None,95.88633690000279,None,left,0,2.6615250000031665,96.38776499999221,None,96.38776499999221,99.39196269999957,96.38776499999221,99.39196269999957,96.38776499999221,99.39196269999957,96.38776499999221,99.39196269999957,96.38776499999221,99.39196269999957,99.37528159999056,99.87591659999453,99.37528159999056,99.87591659999453,99.37528159999056,99.87591659999453,99.37528159999056,99.87591659999453,99.37528159999056,99.87591659999453,99.37528159999056,99.87591659999453,99.37528159999056,99.87591659999453,99.37528159999056,99.87591659999453,96.38776499999221,None,99.87591659999453,99.87591659999453,3,99.89269400000921,None,100.64417660000618,None,,,,,,,0,0.5,0.0,12011,001,2024_Jun_17_0830,MFTM_A_new1021,2021.2.3,59.68107626101303,
,,,,,,,,stim/Instruction_adaptive.png,conditions/adaptive.xlsx,test,-0.6,-0.6,-0.6,0.6,0.6,left,L,,,,,0,1,1,1,0,1,1,65,,,,,,,,,,,,,,,,,,,,,,,,,,,,,,,,,,,,,,,,,,,,101.14466920000268,None,left,1,2.964165999990655,101.64539079999668,None,101.64539079999668,104.64994239999214,101.64539079999668,104.64994239999214,101.64539079999668,104.64994239999214,101.64539079999668,104.64994239999214,101.64539079999668,104.64994239999214,104.63318800000707,105.1338562000019,104.63318800000707,105.1338562000019,104.63318800000707,105.1338562000019,104.63318800000707,105.1338562000019,104.63318800000707,105.1338562000019,104.63318800000707,105.1338562000019,104.63318800000707,105.1338562000019,104.63318800000707,105.1338562000019,101.64539079999668,None,105.1338562000019,105.1338562000019,3.0000000000000027,105.1504385000153,None,105.90175389999058,None,,,,,,,0,0.5,0.5,12011,001,2024_Jun_17_0830,MFTM_A_new1021,2021.2.3,59.68107626101303,
,,,,,,,,stim/Instruction_adaptive.png,conditions/adaptive.xlsx,test,-0.6,-0.6,-0.6,0.6,0.6,left,L,,,,,0,1,1,1,0,2,2,49,,,,,,,,,,,,,,,,,,,,,,,,,,,,,,,,,,,,,,,,,,,,106.40246320000733,None,left,1,1.3622779000143055,106.90340489998925,None,106.90340489998925,109.90778480001609,106.90340489998925,109.90778480001609,106.90340489998925,109.90778480001609,106.90340489998925,109.90778480001609,106.90340489998925,109.90778480001609,109.89171210001223,110.39195340001606,109.89171210001223,110.39195340001606,109.89171210001223,110.39195340001606,109.89171210001223,110.39195340001606,109.89171210001223,110.39195340001606,109.89171210001223,110.39195340001606,109.89171210001223,110.39195340001606,109.89171210001223,110.39195340001606,106.90340489998925,None,110.39195340001606,110.39195340001606,3.0000000000000027,110.40856529999292,None,111.16035019999254,None,,,,,,,0,0.5,0.6666666666666666,12011,001,2024_Jun_17_0830,MFTM_A_new1021,2021.2.3,59.68107626101303,
,,,,,,,,stim/Instruction_adaptive.png,conditions/adaptive.xlsx,test,0.6,0.6,0.6,-0.6,-0.6,right,R,,,,,0,1,1,1,0,3,3,54,,,,,,,,,,,,,,,,,,,,,,,,,,,,,,,,,,,,,,,,,,,,111.66140740000992,None,right,1,2.816664799989667,112.16115480000735,None,112.16115480000735,115.16584579998744,112.16115480000735,115.16584579998744,112.16115480000735,115.16584579998744,112.16115480000735,115.16584579998744,112.16115480000735,115.16584579998744,115.14932050000061,115.64966080000158,115.14932050000061,115.64966080000158,115.14932050000061,115.64966080000158,115.14932050000061,115.64966080000158,115.14932050000061,115.64966080000158,115.14932050000061,115.64966080000158,115.14932050000061,115.64966080000158,115.14932050000061,115.64966080000158,112.16115480000735,None,115.64966080000158,115.64966080000158,3.0000000000000027,115.66648000001442,None,116.41766420000931,None,,,,,,,0,1.1300000000000006,0.75,12011,001,2024_Jun_17_0830,MFTM_A_new1021,2021.2.3,59.68107626101303,
,,,,,,,,stim/Instruction_adaptive.png,conditions/adaptive.xlsx,test,-0.6,-0.6,-0.6,0.6,0.6,left,L,,,,,0,1,1,1,0,4,4,61,,,,,,,,,,,,,,,,,,,,,,,,,,,,,,,,,,,,,,,,,,,,116.9188126999943,None,left,1,1.9429461999970954,117.41904539999086,None,117.41904539999086,120.42418140001246,117.41904539999086,120.42418140001246,117.41904539999086,120.42418140001246,117.41904539999086,120.42418140001246,117.41904539999086,120.42418140001246,120.40735029999632,120.90781539998716,120.40735029999632,120.90781539998716,120.40735029999632,120.90781539998716,120.40735029999632,120.90781539998716,120.40735029999632,120.90781539998716,120.40735029999632,120.90781539998716,120.40735029999632,120.90781539998716,120.40735029999632,120.90781539998716,117.41904539999086,None,120.90781539998716,120.90781539998716,3.0000000000000027,120.92450409999583,None,121.6755916000111,None,,,,,,,0,1.540000000000001,0.8,12011,001,2024_Jun_17_0830,MFTM_A_new1021,2021.2.3,59.68107626101303,
,,,,,,,,stim/Instruction_adaptive.png,conditions/adaptive.xlsx,test,-0.6,-0.6,-0.6,0.6,0.6,left,L,,,,,0,1,1,1,0,5,5,69,,,,,,,,,,,,,,,,,,,,,,,,,,,,,,,,,,,,,,,,,,,,122.17699919998995,None,left,1,1.4517053999879863,122.67835450000712,None,122.67835450000712,124.94719830001122,122.67835450000712,124.94719830001122,122.67835450000712,124.94719830001122,122.67835450000712,124.94719830001122,122.67835450000712,124.94719830001122,124.91367219999665,125.41547380000702,124.91367219999665,125.41547380000702,124.91367219999665,125.41547380000702,124.91367219999665,125.41547380000702,124.91367219999665,125.41547380000702,124.91367219999665,125.41547380000702,124.91367219999665,125.41547380000702,124.91367219999665,125.41547380000702,122.67835450000712,None,125.41547380000702,125.41547380000702,2.2600000000000016,125.44781380001223,None,126.20021909999195,None,,,,,,,0,1.8100000000000012,0.8333333333333334,12011,001,2024_Jun_17_0830,MFTM_A_new1021,2021.2.3,59.68107626101303,
,,,,,,,,stim/Instruction_adaptive.png,conditions/adaptive.xlsx,test,-0.6,-0.6,-0.6,0.6,0.6,left,L,,,,,0,1,1,1,0,6,6,63,,,,,,,,,,,,,,,,,,,,,,,,,,,,,,,,,,,,,,,,,,,,126.69996990001528,None,left,1,1.1455775999929756,127.20090190001065,None,127.20090190001065,129.08685819999664,127.20090190001065,129.08685819999664,127.20090190001065,129.08685819999664,127.20090190001065,129.08685819999664,127.20090190001065,129.08685819999664,129.0700969999889,129.57081689999904,129.0700969999889,129.57081689999904,129.0700969999889,129.57081689999904,129.0700969999889,129.57081689999904,129.0700969999889,129.57081689999904,129.0700969999889,129.57081689999904,129.0700969999889,129.57081689999904,129.0700969999889,129.57081689999904,127.20090190001065,None,129.57081689999904,129.57081689999904,1.8800000000000014,129.5875451999891,None,130.33863869999186,None,,,,,,,0,2.0200000000000014,0.8571428571428571,12011,001,2024_Jun_17_0830,MFTM_A_new1021,2021.2.3,59.68107626101303,
,,,,,,,,stim/Instruction_adaptive.png,conditions/adaptive.xlsx,test,0.6,0.6,0.6,-0.6,-0.6,right,R,,,,,0,1,1,1,0,7,7,36,,,,,,,,,,,,,,,,,,,,,,,,,,,,,,,,,,,,,,,,,,,,130.83951690001413,None,right,1,1.5261648000159767,131.34002420000616,None,131.34002420000616,132.96011119999457,131.34002420000616,132.96011119999457,131.34002420000616,132.96011119999457,131.34002420000616,132.96011119999457,131.34002420000616,132.96011119999457,132.94264980001026,133.44342840000172,132.94264980001026,133.44342840000172,132.94264980001026,133.44342840000172,132.94264980001026,133.44342840000172,132.94264980001026,133.44342840000172,132.94264980001026,133.44342840000172,132.94264980001026,133.44342840000172,132.94264980001026,133.44342840000172,131.34002420000616,None,133.44342840000172,133.44342840000172,1.6200000000000012,133.46059120001155,None,134.21120359998895,None,,,,,,,0,2.2000000000000015,0.875,12011,001,2024_Jun_17_0830,MFTM_A_new1021,2021.2.3,59.68107626101303,
,,,,,,,,stim/Instruction_adaptive.png,conditions/adaptive.xlsx,test,-0.6,-0.6,-0.6,0.6,0.6,left,L,,,,,0,1,1,1,0,8,8,39,,,,,,,,,,,,,,,,,,,,,,,,,,,,,,,,,,,,,,,,,,,,134.7119178000139,None,left,1,1.197224500006996,135.21300849999534,137.1494939000113,135.21300849999534,136.64888079999946,135.21300849999534,136.64888079999946,135.21300849999534,136.64888079999946,135.21300849999534,136.64888079999946,135.21300849999534,136.64888079999946,136.63151000000653,137.132231399999,136.63151000000653,137.132231399999,136.63151000000653,137.132231399999,136.63151000000653,137.132231399999,136.63151000000653,137.132231399999,136.63151000000653,137.132231399999,136.63151000000653,137.132231399999,136.63151000000653,137.132231399999,135.21300849999534,None,137.132231399999,137.16578000001027,1.430000000000001,137.18285260000266,None,137.93362510000588,None,,,,,,,[0.03444444],2.3500000000000014,0.8888888888888888,12011,001,2024_Jun_17_0830,MFTM_A_new1021,2021.2.3,59.68107626101303,
,,,,,,,,stim/Instruction_adaptive.png,conditions/adaptive.xlsx,test,0.6,0.6,0.6,-0.6,-0.6,right,R,,,,,0,1,1,1,0,9,9,82,,,,,,,,,,,,,,,,,,,,,,,,,,,,,,,,,,,,,,,,,,,,138.43417970000883,None,right,1,1.187258899997687,138.9349225999904,140.73759450000944,138.9349225999904,140.2369239999971,138.9349225999904,140.2369239999971,138.9349225999904,140.2369239999971,138.9349225999904,140.2369239999971,138.9349225999904,140.2369239999971,140.2035736000107,140.70417320000706,140.2035736000107,140.70417320000706,140.2035736000107,140.70417320000706,140.2035736000107,140.70417320000706,140.2035736000107,140.70417320000706,140.2035736000107,140.70417320000706,140.2035736000107,140.70417320000706,140.2035736000107,140.70417320000706,138.9349225999904,None,140.70417320000706,140.85438179998891,1.290000000000001,140.88900870000361,None,141.63905420000083,None,,,,,,,[0.152],2.490000000000002,0.9,12011,001,2024_Jun_17_0830,MFTM_A_new1021,2021.2.3,59.68107626101303,
,,,,,,,,stim/Instruction_adaptive.png,conditions/adaptive.xlsx,test,-0.6,-0.6,-0.6,0.6,0.6,left,L,,,,,0,1,1,1,0,10,10,45,,,,,,,,,,,,,,,,,,,,,,,,,,,,,,,,,,,,,,,,,,,,142.13962360000005,None,left,1,1.1136678000038955,142.64053579999018,144.3096315000148,142.64053579999018,143.82545530001516,142.64053579999018,143.82545530001516,142.64053579999018,143.82545530001516,142.64053579999018,143.82545530001516,142.64053579999018,143.82545530001516,143.7921452000155,144.2930328999937,143.7921452000155,144.2930328999937,143.7921452000155,144.2930328999937,143.7921452000155,144.2930328999937,143.7921452000155,144.2930328999937,143.7921452000155,144.2930328999937,143.7921452000155,144.2930328999937,143.7921452000155,144.2930328999937,142.64053579999018,None,144.2930328999937,144.56002559998888,1.1700000000000008,144.5767530000012,None,145.32792780001182,None,,,,,,,[0.25909091],2.610000000000002,0.9090909090909091,12011,001,2024_Jun_17_0830,MFTM_A_new1021,2021.2.3,59.68107626101303,
,,,,,,,,stim/Instruction_adaptive.png,conditions/adaptive.xlsx,test,0.6,0.6,0.6,-0.6,-0.6,right,R,,,,,0,1,1,1,0,11,11,64,,,,,,,,,,,,,,,,,,,,,,,,,,,,,,,,,,,,,,,,,,,,145.83030719999806,None,right,1,1.8881950000068173,146.33017550001387,147.91518189999624,146.33017550001387,147.4144399999932,146.33017550001387,147.4144399999932,146.33017550001387,147.4144399999932,146.33017550001387,147.4144399999932,146.33017550001387,147.4144399999932,147.39768160000676,147.8986273999908,147.39768160000676,147.8986273999908,147.39768160000676,147.8986273999908,147.39768160000676,147.8986273999908,147.39768160000676,147.8986273999908,147.39768160000676,147.8986273999908,147.39768160000676,147.8986273999908,147.39768160000676,147.8986273999908,146.33017550001387,None,147.8986273999908,None,1.0800000000000007,148.26560549999704,None,149.0183773000026,None,,,,,,,[0.35583333],2.720000000000002,0.9166666666666666,12011,001,2024_Jun_17_0830,MFTM_A_new1021,2021.2.3,59.68107626101303,
,,,,,,,,stim/Instruction_adaptive.png,conditions/adaptive.xlsx,test,-0.6,-0.6,-0.6,0.6,0.6,left,L,,,,,0,1,1,1,0,12,12,21,,,,,,,,,,,,,,,,,,,,,,,,,,,,,,,,,,,,,,,,,,,,149.51864709999063,None,left,1,1.2251791000016965,150.01833079999778,151.5205164999934,150.01833079999778,151.01975460001267,150.01833079999778,151.01975460001267,150.01833079999778,151.01975460001267,150.01833079999778,151.01975460001267,150.01833079999778,151.01975460001267,151.00290829999722,151.50458480001544,151.00290829999722,151.50458480001544,151.00290829999722,151.50458480001544,151.00290829999722,151.50458480001544,151.00290829999722,151.50458480001544,151.00290829999722,151.50458480001544,151.00290829999722,151.50458480001544,151.00290829999722,151.50458480001544,150.01833079999778,None,151.50458480001544,151.95456710000872,1.0000000000000007,151.97129650000716,None,152.72240550001152,None,,,,,,,[0.44384615],2.820000000000002,0.9230769230769231,12011,001,2024_Jun_17_0830,MFTM_A_new1021,2021.2.3,59.68107626101303,
,,,,,,,,stim/Instruction_adaptive.png,conditions/adaptive.xlsx,test,-0.6,-0.6,-0.6,0.6,0.6,left,L,,,,,0,1,1,1,0,13,13,35,,,,,,,,,,,,,,,,,,,,,,,,,,,,,,,,,,,,,,,,,,,,153.22309809998842,None,left,1,1.0627233999839518,153.72375780000584,155.1592998999986,153.72375780000584,154.65859539998928,153.72375780000584,154.65859539998928,153.72375780000584,154.65859539998928,153.72375780000584,154.65859539998928,153.72375780000584,154.65859539998928,154.64175469998736,155.14271049998933,154.64175469998736,155.14271049998933,154.64175469998736,155.14271049998933,154.64175469998736,155.14271049998933,154.64175469998736,155.14271049998933,154.64175469998736,155.14271049998933,154.64175469998736,155.14271049998933,154.64175469998736,155.14271049998933,153.72375780000584,None,155.14271049998933,None,0.9300000000000006,155.6775833000138,None,156.42892860001302,None,,,,,,,[0.52428571],2.910000000000002,0.9285714285714286,12011,001,2024_Jun_17_0830,MFTM_A_new1021,2021.2.3,59.68107626101303,
,,,,,,,,stim/Instruction_adaptive.png,conditions/adaptive.xlsx,test,0.6,0.6,0.6,-0.6,-0.6,right,R,,,,,0,1,1,1,0,14,14,74,,,,,,,,,,,,,,,,,,,,,,,,,,,,,,,,,,,,,,,,,,,,156.92941849998897,None,left,0,1.5900135999836493,157.4293236999947,158.8158618999878,157.4293236999947,158.31497770000715,157.4293236999947,158.31497770000715,157.4293236999947,158.31497770000715,157.4293236999947,158.31497770000715,157.4293236999947,158.31497770000715,158.29735800001072,158.7983932000061,158.29735800001072,158.7983932000061,158.29735800001072,158.7983932000061,158.29735800001072,158.7983932000061,158.29735800001072,158.7983932000061,158.29735800001072,158.7983932000061,158.29735800001072,158.7983932000061,158.29735800001072,158.7983932000061,157.4293236999947,None,158.7983932000061,159.39891859999625,0.8800000000000006,159.41567069999292,None,160.16679190000286,None,,,,,,,[0.59733333],2.660000000000002,0.8666666666666667,12011,001,2024_Jun_17_0830,MFTM_A_new1021,2021.2.3,59.68107626101303,
,,,,,,,,stim/Instruction_adaptive.png,conditions/adaptive.xlsx,test,0.6,0.6,0.6,-0.6,-0.6,right,R,,,,,0,1,1,1,0,15,15,42,,,,,,,,,,,,,,,,,,,,,,,,,,,,,,,,,,,,,,,,,,,,160.6673967000097,None,right,1,1.1137409000075422,161.16921100000036,162.72173849999672,161.16921100000036,162.22139479999896,161.16921100000036,162.22139479999896,161.16921100000036,162.22139479999896,161.16921100000036,162.22139479999896,161.16921100000036,162.22139479999896,162.18748019999475,162.68736280000303,162.18748019999475,162.68736280000303,162.18748019999475,162.68736280000303,162.18748019999475,162.68736280000303,162.18748019999475,162.68736280000303,162.18748019999475,162.68736280000303,162.18748019999475,162.68736280000303,162.18748019999475,162.68736280000303,161.16921100000036,None,162.68736280000303,163.33854319999227,1.0400000000000007,163.3717156999919,None,164.12377979999292,None,,,,,,,[0.65125],2.7500000000000018,0.875,12011,001,2024_Jun_17_0830,MFTM_A_new1021,2021.2.3,59.68107626101303,
,,,,,,,,stim/Instruction_adaptive.png,conditions/adaptive.xlsx,test,0.6,0.6,0.6,-0.6,-0.6,right,R,,,,,0,1,1,1,0,16,16,44,,,,,,,,,,,,,,,,,,,,,,,,,,,,,,,,,,,,,,,,,,,,164.62372030000552,None,left,0,1.6463838999916334,165.12464739999268,166.60989100000006,165.12464739999268,166.10963150000316,165.12464739999268,166.10963150000316,165.12464739999268,166.10963150000316,165.12464739999268,166.10963150000316,165.12464739999268,166.10963150000316,166.09252370000468,166.5930614999961,166.09252370000468,166.5930614999961,166.09252370000468,166.5930614999961,166.09252370000468,166.5930614999961,166.09252370000468,166.5930614999961,166.09252370000468,166.5930614999961,166.09252370000468,166.5930614999961,166.09252370000468,166.5930614999961,165.12464739999268,None,166.5930614999961,167.29444820000208,0.9800000000000006,167.31093410000904,None,168.06332360001397,None,,,,,,,[0.70235294],2.5000000000000018,0.8235294117647058,12011,001,2024_Jun_17_0830,MFTM_A_new1021,2021.2.3,59.68107626101303,
,,,,,,,,stim/Instruction_adaptive.png,conditions/adaptive.xlsx,test,-0.6,-0.6,-0.6,0.6,0.6,left,L,,,,,0,1,1,1,0,17,17,75,,,,,,,,,,,,,,,,,,,,,,,,,,,,,,,,,,,,,,,,,,,,168.56290069999523,None,left,1,1.0582815000088885,169.06467699998757,170.73359069999424,169.06467699998757,170.23203179999837,169.06467699998757,170.23203179999837,169.06467699998757,170.23203179999837,169.06467699998757,170.23203179999837,169.06467699998757,170.23203179999837,170.19862310000462,170.69955829999526,170.19862310000462,170.69955829999526,170.19862310000462,170.69955829999526,170.19862310000462,170.69955829999526,170.19862310000462,170.69955829999526,170.19862310000462,170.69955829999526,170.19862310000462,170.69955829999526,170.19862310000462,170.69955829999526,169.06467699998757,None,170.69955829999526,171.4507095000008,1.1600000000000008,171.46737870000652,None,172.21814340000856,None,,,,,,,[0.73777778],2.5900000000000016,0.8333333333333334,12011,001,2024_Jun_17_0830,MFTM_A_new1021,2021.2.3,59.68107626101303,
,,,,,,,,stim/Instruction_adaptive.png,conditions/adaptive.xlsx,test,0.6,0.6,0.6,-0.6,-0.6,right,R,,,,,0,1,1,1,0,18,18,34,,,,,,,,,,,,,,,,,,,,,,,,,,,,,,,,,,,,,,,,,,,,172.71976050001103,None,right,1,1.4153730999969412,173.21979030000512,174.82247590000043,173.21979030000512,174.32174700000905,173.21979030000512,174.32174700000905,173.21979030000512,174.32174700000905,173.21979030000512,174.32174700000905,173.21979030000512,174.32174700000905,174.28808810000191,174.7890585999994,174.28808810000191,174.7890585999994,174.28808810000191,174.7890585999994,174.28808810000191,174.7890585999994,174.28808810000191,174.7890585999994,174.28808810000191,174.7890585999994,174.28808810000191,174.7890585999994,174.28808810000191,174.7890585999994,173.21979030000512,None,174.7890585999994,175.57449329999508,1.0900000000000007,175.5904853999964,None,176.34224269998958,None,,,,,,,[0.77315789],2.6700000000000017,0.8421052631578947,12011,001,2024_Jun_17_0830,MFTM_A_new1021,2021.2.3,59.68107626101303,
,,,,,,,,stim/Instruction_adaptive.png,conditions/adaptive.xlsx,test,0.6,0.6,0.6,-0.6,-0.6,right,R,,,,,0,1,1,1,0,19,19,62,,,,,,,,,,,,,,,,,,,,,,,,,,,,,,,,,,,,,,,,,,,,176.84211349999532,None,right,1,1.364764700003434,177.34285129999625,178.87849249999272,177.34285129999625,178.3778134000022,177.34285129999625,178.3778134000022,177.34285129999625,178.3778134000022,177.34285129999625,178.3778134000022,177.34285129999625,178.3778134000022,178.3611785999965,178.86207910001394,178.3611785999965,178.86207910001394,178.3611785999965,178.86207910001394,178.3611785999965,178.86207910001394,178.3611785999965,178.86207910001394,178.3611785999965,178.86207910001394,178.3611785999965,178.86207910001394,178.3611785999965,178.86207910001394,177.34285129999625,None,178.86207910001394,179.67980169999646,1.0300000000000007,179.69639570001164,None,180.4480876000016,None,,,,,,,[0.808],2.7500000000000018,0.85,12011,001,2024_Jun_17_0830,MFTM_A_new1021,2021.2.3,59.68107626101303,
,,,,,,,,stim/Instruction_adaptive.png,conditions/adaptive.xlsx,test,0.6,0.6,0.6,-0.6,-0.6,right,R,,,,,0,1,1,1,0,20,20,38,,,,,,,,,,,,,,,,,,,,,,,,,,,,,,,,,,,,,,,,,,,,180.94889030000195,None,right,1,1.5217644000076689,181.4497449999908,182.9347068000061,181.4497449999908,182.43384849998984,181.4497449999908,182.43384849998984,181.4497449999908,182.43384849998984,181.4497449999908,182.43384849998984,181.4497449999908,182.43384849998984,182.41714589999174,182.91817200000514,182.41714589999174,182.91817200000514,182.41714589999174,182.91817200000514,182.41714589999174,182.91817200000514,182.41714589999174,182.91817200000514,182.41714589999174,182.91817200000514,182.41714589999174,182.91817200000514,182.41714589999174,182.91817200000514,181.4497449999908,None,182.91817200000514,183.76918540001498,0.9800000000000006,183.78591450001113,None,184.53696329999366,None,,,,,,,[0.84190476],2.820000000000002,0.8571428571428571,12011,001,2024_Jun_17_0830,MFTM_A_new1021,2021.2.3,59.68107626101303,
,,,,,,,,stim/Instruction_adaptive.png,conditions/adaptive.xlsx,test,0.6,0.6,0.6,-0.6,-0.6,right,R,,,,,0,1,1,1,0,21,21,80,,,,,,,,,,,,,,,,,,,,,,,,,,,,,,,,,,,,,,,,,,,,185.0386404999881,None,left,0,1.8651662000047509,185.53852269999334,186.9741941000102,185.53852269999334,186.4733819999965,185.53852269999334,186.4733819999965,185.53852269999334,186.4733819999965,185.53852269999334,186.4733819999965,185.53852269999334,186.4733819999965,186.456869000016,186.95801840000786,186.456869000016,186.95801840000786,186.456869000016,186.95801840000786,186.456869000016,186.95801840000786,186.456869000016,186.95801840000786,186.456869000016,186.95801840000786,186.456869000016,186.95801840000786,186.456869000016,186.95801840000786,185.53852269999334,None,186.95801840000786,187.8425489999936,0.9300000000000006,187.85862169999746,None,188.6100037000142,None,,,,,,,[0.875],2.620000000000002,0.8181818181818182,12011,001,2024_Jun_17_0830,MFTM_A_new1021,2021.2.3,59.68107626101303,
,,,,,,,,stim/Instruction_adaptive.png,conditions/adaptive.xlsx,test,0.6,0.6,0.6,-0.6,-0.6,right,R,,,,,0,1,1,1,0,22,22,0,,,,,,,,,,,,,,,,,,,,,,,,,,,,,,,,,,,,,,,,,,,,189.11056380000082,None,right,1,1.4094741999870166,189.61135729998932,191.18025120001403,189.61135729998932,190.6963054999942,189.61135729998932,190.6963054999942,189.61135729998932,190.6963054999942,189.61135729998932,190.6963054999942,189.61135729998932,190.6963054999942,190.6628861000063,191.16367370000808,190.6628861000063,191.16367370000808,190.6628861000063,191.16367370000808,190.6628861000063,191.16367370000808,190.6628861000063,191.16367370000808,190.6628861000063,191.16367370000808,190.6628861000063,191.16367370000808,190.6628861000063,191.16367370000808,189.61135729998932,None,191.16367370000808,192.06589480000548,1.0700000000000007,192.081686599995,None,192.83394829998724,None,,,,,,,[0.89913043],2.690000000000002,0.8260869565217391,12011,001,2024_Jun_17_0830,MFTM_A_new1021,2021.2.3,59.68107626101303,
,,,,,,,,stim/Instruction_adaptive.png,conditions/adaptive.xlsx,test,-0.6,-0.6,-0.6,0.6,0.6,left,L,,,,,0,1,1,1,0,23,23,25,,,,,,,,,,,,,,,,,,,,,,,,,,,,,,,,,,,,,,,,,,,,193.33340110001154,None,left,1,1.4891825999948196,193.8347039000073,195.36976890001097,193.8347039000073,194.86916219998966,193.8347039000073,194.86916219998966,193.8347039000073,194.86916219998966,193.8347039000073,194.86916219998966,193.8347039000073,194.86916219998966,194.8359832999995,195.33642850001343,194.8359832999995,195.33642850001343,194.8359832999995,195.33642850001343,194.8359832999995,195.33642850001343,194.8359832999995,195.33642850001343,194.8359832999995,195.33642850001343,194.8359832999995,195.33642850001343,194.8359832999995,195.33642850001343,193.8347039000073,None,195.33642850001343,196.2722916000057,1.0200000000000007,196.28789120001602,None,197.03930510001373,None,,,,,,,[0.92333333],2.760000000000002,0.8333333333333334,12011,001,2024_Jun_17_0830,MFTM_A_new1021,2021.2.3,59.68107626101303,
,,,,,,,,stim/Instruction_adaptive.png,conditions/adaptive.xlsx,test,0.6,0.6,0.6,-0.6,-0.6,right,R,,,,,0,1,1,1,0,24,24,10,,,,,,,,,,,,,,,,,,,,,,,,,,,,,,,,,,,,,,,,,,,,197.539964399999,None,left,0,1.8515099000069313,198.04085839999607,199.5262866000121,198.04085839999607,199.02539490000345,198.04085839999607,199.02539490000345,198.04085839999607,199.02539490000345,198.04085839999607,199.02539490000345,198.04085839999607,199.02539490000345,198.99234409999917,199.49304790000315,198.99234409999917,199.49304790000315,198.99234409999917,199.49304790000315,198.99234409999917,199.49304790000315,198.99234409999917,199.49304790000315,198.99234409999917,199.49304790000315,198.99234409999917,199.49304790000315,198.99234409999917,199.49304790000315,198.04085839999607,None,199.49304790000315,200.44448890001513,0.9700000000000006,200.4610176999995,None,201.21199730000808,None,,,,,,,[0.9476],2.570000000000002,0.8,12011,001,2024_Jun_17_0830,MFTM_A_new1021,2021.2.3,59.68107626101303,
,,,,,,,,stim/Instruction_adaptive.png,conditions/adaptive.xlsx,test,-0.6,-0.6,-0.6,0.6,0.6,left,L,,,,,0,1,1,1,0,25,25,95,,,,,,,,,,,,,,,,,,,,,,,,,,,,,,,,,,,,,,,,,,,,201.7129219000053,None,right,0,1.4783429999952205,202.21379270000034,203.8329950000043,202.21379270000034,203.3320653999981,202.21379270000034,203.3320653999981,202.21379270000034,203.3320653999981,202.21379270000034,203.3320653999981,202.21379270000034,203.3320653999981,203.31538960000034,203.81644369999412,203.31538960000034,203.81644369999412,203.31538960000034,203.81644369999412,203.31538960000034,203.81644369999412,203.31538960000034,203.81644369999412,203.31538960000034,203.81644369999412,203.31538960000034,203.81644369999412,203.31538960000034,203.81644369999412,202.21379270000034,None,203.7995077999949,204.76857380001456,1.1100000000000008,204.80087780000758,None,205.5527018000139,None,,,,,,,[0.96461538],2.3800000000000017,0.7692307692307693,12011,001,2024_Jun_17_0830,MFTM_A_new1021,2021.2.3,59.68107626101303,
,,,,,,,,stim/Instruction_adaptive.png,conditions/adaptive.xlsx,test,-0.6,-0.6,-0.6,0.6,0.6,left,L,,,,,0,1,1,1,0,26,26,27,,,,,,,,,,,,,,,,,,,,,,,,,,,,,,,,,,,,,,,,,,,,206.0536165999947,None,left,1,1.155247499991674,206.55351500000688,208.3229251000157,206.55351500000688,207.8225623999897,206.55351500000688,207.8225623999897,206.55351500000688,207.8225623999897,206.55351500000688,207.8225623999897,206.55351500000688,207.8225623999897,207.78923019999638,208.28955680000945,207.78923019999638,208.28955680000945,207.78923019999638,208.28955680000945,207.78923019999638,208.28955680000945,207.78923019999638,208.28955680000945,207.78923019999638,208.28955680000945,207.78923019999638,208.28955680000945,207.78923019999638,208.28955680000945,206.55351500000688,None,208.28955680000945,209.27667479999945,1.260000000000001,209.30900390000897,None,210.0592120999936,None,,,,,,,[0.97481481],2.450000000000002,0.7777777777777778,12011,001,2024_Jun_17_0830,MFTM_A_new1021,2021.2.3,59.68107626101303,
,,,,,,,,stim/Instruction_adaptive.png,conditions/adaptive.xlsx,test,0.6,0.6,0.6,-0.6,-0.6,right,R,,,,,0,1,1,1,0,27,27,12,,,,,,,,,,,,,,,,,,,,,,,,,,,,,,,,,,,,,,,,,,,,210.56005279999226,None,right,1,1.5361374999920372,211.06022730001132,212.76417979999678,211.06022730001132,212.26234549999936,211.06022730001132,212.26234549999936,211.06022730001132,212.26234549999936,211.06022730001132,212.26234549999936,211.06022730001132,212.26234549999936,212.24553780001588,212.74625640001614,212.24553780001588,212.74625640001614,212.24553780001588,212.74625640001614,212.24553780001588,212.74625640001614,212.24553780001588,212.74625640001614,212.24553780001588,212.74625640001614,212.24553780001588,212.74625640001614,212.24553780001588,212.74625640001614,211.06022730001132,None,212.74625640001614,None,1.2000000000000008,213.74757279999903,None,214.4990659999894,None,,,,,,,[0.98642857],2.5100000000000016,0.7857142857142857,12011,001,2024_Jun_17_0830,MFTM_A_new1021,2021.2.3,59.68107626101303,
,,,,,,,,stim/Instruction_adaptive.png,conditions/adaptive.xlsx,test,-0.6,-0.6,-0.6,0.6,0.6,left,L,,,,,0,1,1,1,0,28,28,5,,,,,,,,,,,,,,,,,,,,,,,,,,,,,,,,,,,,,,,,,,,,214.99968969999463,None,left,1,1.3832183000049554,215.50164579998818,217.1529062000045,215.50164579998818,216.6520378999994,215.50164579998818,216.6520378999994,215.50164579998818,216.6520378999994,215.50164579998818,216.6520378999994,215.50164579998818,216.6520378999994,216.63632439999492,217.13654830001178,216.63632439999492,217.13654830001178,216.63632439999492,217.13654830001178,216.63632439999492,217.13654830001178,216.63632439999492,217.13654830001178,216.63632439999492,217.13654830001178,216.63632439999492,217.13654830001178,216.63632439999492,217.13654830001178,215.50164579998818,None,217.13654830001178,218.13909640000202,1.1500000000000008,218.15422480000416,None,218.90618769999128,None,,,,,,,[0.99896552],2.570000000000002,0.7931034482758621,12011,001,2024_Jun_17_0830,MFTM_A_new1021,2021.2.3,59.68107626101303,
,,,,,,,,stim/Instruction_adaptive.png,conditions/adaptive.xlsx,test,0.6,0.6,0.6,-0.6,-0.6,right,R,,,,,0,1,1,1,0,29,29,90,,,,,,,,,,,,,,,,,,,,,,,,,,,,,,,,,,,,,,,,,,,,219.40625530001125,None,left,0,1.5137564000033308,219.90712330001406,221.52647630000138,219.90712330001406,221.025286899996,219.90712330001406,221.025286899996,219.90712330001406,221.025286899996,219.90712330001406,221.025286899996,219.90712330001406,221.025286899996,221.00873699999647,221.5094867000007,221.00873699999647,221.5094867000007,221.00873699999647,221.5094867000007,221.00873699999647,221.5094867000007,221.00873699999647,221.5094867000007,221.00873699999647,221.5094867000007,221.00873699999647,221.5094867000007,221.00873699999647,221.5094867000007,219.90712330001406,None,221.4928806000098,222.51261800000793,1.1100000000000008,222.52751419998822,None,223.27898890001234,None,,,,,,,[1.012],2.4000000000000017,0.7666666666666667,12011,001,2024_Jun_17_0830,MFTM_A_new1021,2021.2.3,59.68107626101303,
,,,,,,,,stim/Instruction_adaptive.png,conditions/adaptive.xlsx,test,0.6,0.6,0.6,-0.6,-0.6,right,R,,,,,0,1,1,1,0,30,30,20,,,,,,,,,,,,,,,,,,,,,,,,,,,,,,,,,,,,,,,,,,,,223.77956860000268,None,right,1,1.5800625999982003,224.2803746999998,226.03278249999858,224.2803746999998,225.53215680000721,224.2803746999998,225.53215680000721,224.2803746999998,225.53215680000721,224.2803746999998,225.53215680000721,224.2803746999998,225.53215680000721,225.51546210001106,226.01615959999617,225.51546210001106,226.01615959999617,225.51546210001106,226.01615959999617,225.51546210001106,226.01615959999617,225.51546210001106,226.01615959999617,225.51546210001106,226.01615959999617,225.51546210001106,226.01615959999617,225.51546210001106,226.01615959999617,224.2803746999998,None,226.01615959999617,None,1.2500000000000009,227.0512185000116,None,227.80290350000723,None,,,,,,,[1.01967742],2.4600000000000017,0.7741935483870968,12011,001,2024_Jun_17_0830,MFTM_A_new1021,2021.2.3,59.68107626101303,
,,,,,,,,stim/Instruction_adaptive.png,conditions/adaptive.xlsx,test,0.6,0.6,0.6,-0.6,-0.6,right,R,,,,,0,1,1,1,0,31,31,94,,,,,,,,,,,,,,,,,,,,,,,,,,,,,,,,,,,,,,,,,,,,228.30327780000516,None,right,1,1.5613614000030793,228.80363310000394,230.50686829999904,228.80363310000394,230.00558289999026,228.80363310000394,230.00558289999026,228.80363310000394,230.00558289999026,228.80363310000394,230.00558289999026,228.80363310000394,230.00558289999026,229.98913050000556,230.48967430001358,229.98913050000556,230.48967430001358,229.98913050000556,230.48967430001358,229.98913050000556,230.48967430001358,229.98913050000556,230.48967430001358,229.98913050000556,230.48967430001358,229.98913050000556,230.48967430001358,229.98913050000556,230.48967430001358,228.80363310000394,None,230.48967430001358,231.52442410000367,1.2000000000000008,231.54123619999154,None,232.29489180000382,None,,,,,,,[1.0284375],2.520000000000002,0.78125,12011,001,2024_Jun_17_0830,MFTM_A_new1021,2021.2.3,59.68107626101303,
,,,,,,,,stim/Instruction_adaptive.png,conditions/adaptive.xlsx,test,-0.6,-0.6,-0.6,0.6,0.6,left,L,,,,,0,1,1,1,0,32,32,81,,,,,,,,,,,,,,,,,,,,,,,,,,,,,,,,,,,,,,,,,,,,232.79302559999633,None,right,0,1.582452300004661,233.29458180000074,234.94630640000105,233.29458180000074,234.4456530000025,233.29458180000074,234.4456530000025,233.29458180000074,234.4456530000025,233.29458180000074,234.4456530000025,233.29458180000074,234.4456530000025,234.42902340000728,234.92991090001306,234.42902340000728,234.92991090001306,234.42902340000728,234.92991090001306,234.42902340000728,234.92991090001306,234.42902340000728,234.92991090001306,234.42902340000728,234.92991090001306,234.42902340000728,234.92991090001306,234.42902340000728,234.92991090001306,233.29458180000074,None,234.92991090001306,235.98125330000767,1.1500000000000008,235.99833480000962,None,236.74916730000405,None,,,,,,,[1.03818182],2.3500000000000014,0.7575757575757576,12011,001,2024_Jun_17_0830,MFTM_A_new1021,2021.2.3,59.68107626101303,
,,,,,,,,stim/Instruction_adaptive.png,conditions/adaptive.xlsx,test,0.6,0.6,0.6,-0.6,-0.6,right,R,,,,,0,1,1,1,0,33,33,86,,,,,,,,,,,,,,,,,,,,,,,,,,,,,,,,,,,,,,,,,,,,237.24995019999915,None,right,1,1.5424378000025172,237.75060989998747,239.55508550000377,237.75060989998747,239.05267470001127,237.75060989998747,239.05267470001127,237.75060989998747,239.05267470001127,237.75060989998747,239.05267470001127,237.75060989998747,239.05267470001127,239.01922419999028,239.52093580001383,239.01922419999028,239.52093580001383,239.01922419999028,239.52093580001383,239.01922419999028,239.52093580001383,239.01922419999028,239.52093580001383,239.01922419999028,239.52093580001383,239.01922419999028,239.52093580001383,239.01922419999028,239.52093580001383,237.75060989998747,None,239.52093580001383,240.57151619999786,1.290000000000001,240.58820309999282,None,241.34018619998824,None,,,,,,,[1.04323529],2.410000000000002,0.7647058823529411,12011,001,2024_Jun_17_0830,MFTM_A_new1021,2021.2.3,59.68107626101303,
,,,,,,,,stim/Instruction_adaptive.png,conditions/adaptive.xlsx,test,0.6,0.6,0.6,-0.6,-0.6,right,R,,,,,0,1,1,1,0,34,34,2,,,,,,,,,,,,,,,,,,,,,,,,,,,,,,,,,,,,,,,,,,,,241.84180679998826,None,left,0,1.6721558999852277,242.34094870000263,244.09419229999185,242.34094870000263,243.5926768000063,242.34094870000263,243.5926768000063,242.34094870000263,243.5926768000063,242.34094870000263,243.5926768000063,242.34094870000263,243.5926768000063,243.5595073000004,244.0602222000016,243.5595073000004,244.0602222000016,243.5595073000004,244.0602222000016,243.5595073000004,244.0602222000016,243.5595073000004,244.0602222000016,243.5595073000004,244.0602222000016,243.5595073000004,244.0602222000016,243.5595073000004,244.0602222000016,242.34094870000263,None,244.0602222000016,245.1118722000101,1.2400000000000009,245.14512209998793,None,245.89631270000245,None,,,,,,,[1.04942857],2.2500000000000018,0.7428571428571429,12011,001,2024_Jun_17_0830,MFTM_A_new1021,2021.2.3,59.68107626101303,
,,,,,,,,stim/Instruction_adaptive.png,conditions/adaptive.xlsx,test,0.6,0.6,0.6,-0.6,-0.6,right,R,,,,,0,1,1,1,0,35,35,78,,,,,,,,,,,,,,,,,,,,,,,,,,,,,,,,,,,,,,,,,,,,246.39696489999187,None,right,1,1.547770999983186,246.89773860000423,248.7840520000027,246.89773860000423,248.28304360000766,246.89773860000423,248.28304360000766,246.89773860000423,248.28304360000766,246.89773860000423,248.28304360000766,246.89773860000423,248.28304360000766,248.2666237000085,248.76753169999574,248.2666237000085,248.76753169999574,248.2666237000085,248.76753169999574,248.2666237000085,248.76753169999574,248.2666237000085,248.76753169999574,248.2666237000085,248.76753169999574,248.2666237000085,248.76753169999574,248.2666237000085,248.76753169999574,246.89773860000423,None,248.76753169999574,249.81863319998956,1.380000000000001,249.8352935000148,None,250.58680349998758,None,,,,,,,[1.05138889],2.3000000000000016,0.75,12011,001,2024_Jun_17_0830,MFTM_A_new1021,2021.2.3,59.68107626101303,
,,,,,,,,stim/Instruction_adaptive.png,conditions/adaptive.xlsx,test,-0.6,-0.6,-0.6,0.6,0.6,left,L,,,,,0,1,1,1,0,36,36,55,,,,,,,,,,,,,,,,,,,,,,,,,,,,,,,,,,,,,,,,,,,,251.08737280001515,None,left,1,1.3921124000044074,251.58935260001454,253.44102319999365,251.58935260001454,252.94000969998888,251.58935260001454,252.94000969998888,251.58935260001454,252.94000969998888,251.58935260001454,252.94000969998888,251.58935260001454,252.94000969998888,252.9068719999923,253.40788770001382,252.9068719999923,253.40788770001382,252.9068719999923,253.40788770001382,252.9068719999923,253.40788770001382,252.9068719999923,253.40788770001382,252.9068719999923,253.40788770001382,252.9068719999923,253.40788770001382,252.9068719999923,253.40788770001382,251.58935260001454,None,253.40788770001382,254.47572459999355,1.340000000000001,254.4925673000107,None,255.2436573000159,None,,,,,,,[1.05432432],2.3600000000000017,0.7567567567567568,12011,001,2024_Jun_17_0830,MFTM_A_new1021,2021.2.3,59.68107626101303,
,,,,,,,,stim/Instruction_adaptive.png,conditions/adaptive.xlsx,test,-0.6,-0.6,-0.6,0.6,0.6,left,L,,,,,0,1,1,1,0,37,37,7,,,,,,,,,,,,,,,,,,,,,,,,,,,,,,,,,,,,,,,,,,,,255.74456590000773,None,left,1,1.1289963999879546,256.2449801999901,258.0312178999884,256.2449801999901,257.5306197000027,256.2449801999901,257.5306197000027,256.2449801999901,257.5306197000027,256.2449801999901,257.5306197000027,256.2449801999901,257.5306197000027,257.5136472999875,258.0145169000025,257.5136472999875,258.0145169000025,257.5136472999875,258.0145169000025,257.5136472999875,258.0145169000025,257.5136472999875,258.0145169000025,257.5136472999875,258.0145169000025,257.5136472999875,258.0145169000025,257.5136472999875,258.0145169000025,256.2449801999901,None,258.0145169000025,None,1.280000000000001,259.0827779000101,None,259.8342646000092,None,,,,,,,[1.05868421],2.410000000000002,0.7631578947368421,12011,001,2024_Jun_17_0830,MFTM_A_new1021,2021.2.3,59.68107626101303,
,,,,,,,,stim/Instruction_adaptive.png,conditions/adaptive.xlsx,test,0.6,0.6,0.6,-0.6,-0.6,right,R,,,,,0,1,1,1,0,38,38,8,,,,,,,,,,,,,,,,,,,,,,,,,,,,,,,,,,,,,,,,,,,,260.3347070000018,None,right,1,1.1461612999846693,260.835619999998,262.5881299999892,260.835619999998,262.08767790001,260.835619999998,262.08767790001,260.835619999998,262.08767790001,260.835619999998,262.08767790001,260.835619999998,262.08767790001,262.05424130000756,262.5548501999874,262.05424130000756,262.5548501999874,262.05424130000756,262.5548501999874,262.05424130000756,262.5548501999874,262.05424130000756,262.5548501999874,262.05424130000756,262.5548501999874,262.05424130000756,262.5548501999874,262.05424130000756,262.5548501999874,260.835619999998,None,262.5548501999874,263.623041999992,1.2400000000000009,263.63961869999184,None,264.3908089000033,None,,,,,,,[1.06384615],2.4600000000000017,0.7692307692307693,12011,001,2024_Jun_17_0830,MFTM_A_new1021,2021.2.3,59.68107626101303,
,,,,,,,,stim/Instruction_adaptive.png,conditions/adaptive.xlsx,test,0.6,0.6,0.6,-0.6,-0.6,right,R,,,,,0,1,1,1,0,39,39,52,,,,,,,,,,,,,,,,,,,,,,,,,,,,,,,,,,,,,,,,,,,,264.89146439998876,None,right,1,1.7181160999753047,265.3923184000014,267.0949075999961,265.3923184000014,266.5953337000101,265.3923184000014,266.5953337000101,265.3923184000014,266.5953337000101,265.3923184000014,266.5953337000101,265.3923184000014,266.5953337000101,266.5774747999967,267.0782950000139,266.5774747999967,267.0782950000139,266.5774747999967,267.0782950000139,266.5774747999967,267.0782950000139,266.5774747999967,267.0782950000139,266.5774747999967,267.0782950000139,266.5774747999967,267.0782950000139,266.5774747999967,267.0782950000139,265.3923184000014,None,267.0782950000139,None,1.2000000000000008,268.16387809999287,None,268.9144296000013,None,,,,,,,[1.06975],2.5100000000000016,0.775,12011,001,2024_Jun_17_0830,MFTM_A_new1021,2021.2.3,59.68107626101303,
,,,,,,,,stim/Instruction_adaptive.png,conditions/adaptive.xlsx,test,0.6,0.6,0.6,-0.6,-0.6,right,R,,,,,0,1,1,1,0,40,40,98,,,,,,,,,,,,,,,,,,,,,,,,,,,,,,,,,,,,,,,,,,,,269.4151278999925,None,right,1,1.4672857999976259,269.91630370001076,271.5687134999898,269.91630370001076,271.0675338000001,269.91630370001076,271.0675338000001,269.91630370001076,271.0675338000001,269.91630370001076,271.0675338000001,269.91630370001076,271.0675338000001,271.0508911999932,271.55257999998867,271.0508911999932,271.55257999998867,271.0508911999932,271.55257999998867,271.0508911999932,271.55257999998867,271.0508911999932,271.55257999998867,271.0508911999932,271.55257999998867,271.0508911999932,271.55257999998867,271.0508911999932,271.55257999998867,269.91630370001076,None,271.55257999998867,272.63658200000646,1.1500000000000008,272.65312959998846,None,273.40444760001265,None,,,,,,,[1.07658537],2.5500000000000016,0.7804878048780488,12011,001,2024_Jun_17_0830,MFTM_A_new1021,2021.2.3,59.68107626101303,
,,,,,,,,stim/Instruction_adaptive.png,conditions/adaptive.xlsx,test,0.6,0.6,0.6,-0.6,-0.6,right,R,,,,,0,1,1,1,0,41,41,18,,,,,,,,,,,,,,,,,,,,,,,,,,,,,,,,,,,,,,,,,,,,273.905133799999,None,right,1,2.103932400001213,274.4061636000115,276.0424598999962,274.4061636000115,275.5416944999888,274.4061636000115,275.5416944999888,274.4061636000115,275.5416944999888,274.4061636000115,275.5416944999888,274.4061636000115,275.5416944999888,275.50740689999657,276.00840739998966,275.50740689999657,276.00840739998966,275.50740689999657,276.00840739998966,275.50740689999657,276.00840739998966,275.50740689999657,276.00840739998966,275.50740689999657,276.00840739998966,275.50740689999657,276.00840739998966,275.50740689999657,276.00840739998966,274.4061636000115,None,276.00840739998966,277.0937788999872,1.1200000000000008,277.1103565999947,None,277.861207000009,None,,,,,,,[1.08380952],2.600000000000002,0.7857142857142857,12011,001,2024_Jun_17_0830,MFTM_A_new1021,2021.2.3,59.68107626101303,
,,,,,,,,stim/Instruction_adaptive.png,conditions/adaptive.xlsx,test,0.6,0.6,0.6,-0.6,-0.6,right,R,,,,,0,1,1,1,0,42,42,30,,,,,,,,,,,,,,,,,,,,,,,,,,,,,,,,,,,,,,,,,,,,278.3622505000094,None,right,1,1.103573000000324,278.86258079999243,280.4648256000073,278.86258079999243,279.96415129999514,278.86258079999243,279.96415129999514,278.86258079999243,279.96415129999514,278.86258079999243,279.96415129999514,278.86258079999243,279.96415129999514,279.93122450000374,280.4315544000128,279.93122450000374,280.4315544000128,279.93122450000374,280.4315544000128,279.93122450000374,280.4315544000128,279.93122450000374,280.4315544000128,279.93122450000374,280.4315544000128,279.93122450000374,280.4315544000128,279.93122450000374,280.4315544000128,278.86258079999243,None,280.4315544000128,281.533330700011,1.0900000000000007,281.54989600001136,None,282.3019409000117,None,,,,,,,[1.09139535],2.640000000000002,0.7906976744186046,12011,001,2024_Jun_17_0830,MFTM_A_new1021,2021.2.3,59.68107626101303,
,,,,,,,,stim/Instruction_adaptive.png,conditions/adaptive.xlsx,test,-0.6,-0.6,-0.6,0.6,0.6,left,L,,,,,0,1,1,1,0,43,43,89,,,,,,,,,,,,,,,,,,,,,,,,,,,,,,,,,,,,,,,,,,,,282.8019881999935,None,left,1,1.1109304000274278,283.3035312000138,284.8715813999879,283.3035312000138,284.3710689000145,283.3035312000138,284.3710689000145,283.3035312000138,284.3710689000145,283.3035312000138,284.3710689000145,283.3035312000138,284.3710689000145,284.3543772000121,284.8549212999933,284.3543772000121,284.8549212999933,284.3543772000121,284.8549212999933,284.3543772000121,284.8549212999933,284.3543772000121,284.8549212999933,284.3543772000121,284.8549212999933,284.3543772000121,284.8549212999933,284.3543772000121,284.8549212999933,283.3035312000138,None,284.83826560000307,285.9398779000039,1.0600000000000007,285.97419710000395,None,286.72540840000147,None,,,,,,,[1.09931818],2.680000000000002,0.7954545454545454,12011,001,2024_Jun_17_0830,MFTM_A_new1021,2021.2.3,59.68107626101303,
,,,,,,,,stim/Instruction_adaptive.png,conditions/adaptive.xlsx,test,0.6,0.6,0.6,-0.6,-0.6,right,R,,,,,0,1,1,1,0,44,44,40,,,,,,,,,,,,,,,,,,,,,,,,,,,,,,,,,,,,,,,,,,,,287.22512389998883,None,right,1,1.241993999981787,287.72594249999383,289.2616385000001,287.72594249999383,288.76083790001576,287.72594249999383,288.76083790001576,287.72594249999383,288.76083790001576,287.72594249999383,288.76083790001576,287.72594249999383,288.76083790001576,288.74413999999524,289.2448832000082,288.74413999999524,289.2448832000082,288.74413999999524,289.2448832000082,288.74413999999524,289.2448832000082,288.74413999999524,289.2448832000082,288.74413999999524,289.2448832000082,288.74413999999524,289.2448832000082,288.74413999999524,289.2448832000082,287.72594249999383,None,289.2448832000082,None,1.0300000000000007,290.36322890000883,None,291.11563789998763,None,,,,,,,[1.10755556],2.7100000000000017,0.8,12011,001,2024_Jun_17_0830,MFTM_A_new1021,2021.2.3,59.68107626101303,
,,,,,,,,stim/Instruction_adaptive.png,conditions/adaptive.xlsx,test,0.6,0.6,0.6,-0.6,-0.6,right,R,,,,,0,1,1,1,0,45,45,50,,,,,,,,,,,,,,,,,,,,,,,,,,,,,,,,,,,,,,,,,,,,291.61513670001295,None,right,1,1.2905533000011928,292.1159803000046,293.6355818999873,292.1159803000046,293.1340973000042,292.1159803000046,293.1340973000042,292.1159803000046,293.1340973000042,292.1159803000046,293.1340973000042,292.1159803000046,293.1340973000042,293.10080350001226,293.6014919000154,293.10080350001226,293.6014919000154,293.10080350001226,293.6014919000154,293.10080350001226,293.6014919000154,293.10080350001226,293.6014919000154,293.10080350001226,293.6014919000154,293.10080350001226,293.6014919000154,293.10080350001226,293.6014919000154,292.1159803000046,None,293.6014919000154,294.7198417999898,1.0100000000000007,294.75320649999776,None,295.5052563000063,None,,,,,,,[1.11586957],2.7500000000000018,0.8043478260869565,12011,001,2024_Jun_17_0830,MFTM_A_new1021,2021.2.3,59.68107626101303,
,,,,,,,,stim/Instruction_adaptive.png,conditions/adaptive.xlsx,test,-0.6,-0.6,-0.6,0.6,0.6,left,L,,,,,0,1,1,1,0,46,46,43,,,,,,,,,,,,,,,,,,,,,,,,,,,,,,,,,,,,,,,,,,,,296.00520780001534,None,left,1,1.3813606999756303,296.50586520001525,297.9914134000137,296.50586520001525,297.49064279999584,296.50586520001525,297.49064279999584,296.50586520001525,297.49064279999584,296.50586520001525,297.49064279999584,296.50586520001525,297.49064279999584,297.4741462999955,297.9750440999924,297.4741462999955,297.9750440999924,297.4741462999955,297.9750440999924,297.4741462999955,297.9750440999924,297.4741462999955,297.9750440999924,297.4741462999955,297.9750440999924,297.4741462999955,297.9750440999924,297.4741462999955,297.9750440999924,296.50586520001525,None,297.9750440999924,None,0.9800000000000006,299.1098757,None,299.8610003000067,None,,,,,,,[1.12446809],2.780000000000002,0.8085106382978723,12011,001,2024_Jun_17_0830,MFTM_A_new1021,2021.2.3,59.68107626101303,
,,,,,,,,stim/Instruction_adaptive.png,conditions/adaptive.xlsx,test,0.6,0.6,0.6,-0.6,-0.6,right,R,,,,,0,1,1,1,0,47,47,6,,,,,,,,,,,,,,,,,,,,,,,,,,,,,,,,,,,,,,,,,,,,300.3615313000046,None,right,1,1.4243745999992825,300.86234789999435,302.3313804999925,300.86234789999435,301.8304974999919,300.86234789999435,301.8304974999919,300.86234789999435,301.8304974999919,300.86234789999435,301.8304974999919,300.86234789999435,301.8304974999919,301.81370729999617,302.3146285999974,301.81370729999617,302.3146285999974,301.81370729999617,302.3146285999974,301.81370729999617,302.3146285999974,301.81370729999617,302.3146285999974,301.81370729999617,302.3146285999974,301.81370729999617,302.3146285999974,301.81370729999617,302.3146285999974,300.86234789999435,None,302.3146285999974,303.45036009998876,0.9600000000000006,303.4663086000073,None,304.21774079999886,None,,,,,,,[1.133125],2.820000000000002,0.8125,12011,001,2024_Jun_17_0830,MFTM_A_new1021,2021.2.3,59.68107626101303,
,,,,,,,,stim/Instruction_adaptive.png,conditions/adaptive.xlsx,test,-0.6,-0.6,-0.6,0.6,0.6,left,L,,,,,0,1,1,1,0,48,48,31,,,,,,,,,,,,,,,,,,,,,,,,,,,,,,,,,,,,,,,,,,,,304.71848260000115,None,left,1,1.5644477999885567,305.2188943999936,306.65593239999725,305.2188943999936,306.15354150001076,305.2188943999936,306.15354150001076,305.2188943999936,306.15354150001076,305.2188943999936,306.15354150001076,305.2188943999936,306.15354150001076,306.1369342000107,306.6380014999886,306.1369342000107,306.6380014999886,306.1369342000107,306.6380014999886,306.1369342000107,306.6380014999886,306.1369342000107,306.6380014999886,306.1369342000107,306.6380014999886,306.1369342000107,306.6380014999886,306.1369342000107,306.6380014999886,305.2188943999936,None,306.6380014999886,307.78971750001074,0.9300000000000006,307.80669840000337,None,308.5574090000009,None,,,,,,,[1.14204082],2.8500000000000023,0.8163265306122449,12011,001,2024_Jun_17_0830,MFTM_A_new1021,2021.2.3,59.68107626101303,
,,,,,,,,stim/Instruction_adaptive.png,conditions/adaptive.xlsx,test,0.6,0.6,0.6,-0.6,-0.6,right,R,,,,,0,1,1,1,0,49,49,4,,,,,,,,,,,,,,,,,,,,,,,,,,,,,,,,,,,,,,,,,,,,309.05870900000446,None,left,0,2.064186300005531,309.55895430000965,310.97761120001087,309.55895430000965,310.4769512999919,309.55895430000965,310.4769512999919,309.55895430000965,310.4769512999919,309.55895430000965,310.4769512999919,309.55895430000965,310.4769512999919,310.4603216999967,310.96114329999546,310.4603216999967,310.96114329999546,310.4603216999967,310.96114329999546,310.4603216999967,310.96114329999546,310.4603216999967,310.96114329999546,310.4603216999967,310.96114329999546,310.4603216999967,310.96114329999546,310.4603216999967,310.96114329999546,309.55895430000965,None,310.96114329999546,312.1134458000015,0.9100000000000006,312.12881510000443,None,312.8805249000143,None,,,,,,,[1.151],2.760000000000002,0.8,12011,001,2024_Jun_17_0830,MFTM_A_new1021,2021.2.3,59.68107626101303,
,,,,,,,,stim/Instruction_adaptive.png,conditions/adaptive.xlsx,test,-0.6,-0.6,-0.6,0.6,0.6,left,L,,,,,0,1,1,1,0,50,50,73,,,,,,,,,,,,,,,,,,,,,,,,,,,,,,,,,,,,,,,,,,,,313.3812437999877,None,left,1,1.365549900016049,313.8820140000025,315.3510963000008,313.8820140000025,314.8669099000108,313.8820140000025,314.8669099000108,313.8820140000025,314.8669099000108,313.8820140000025,314.8669099000108,313.8820140000025,314.8669099000108,314.8339530999947,315.33488800001214,314.8339530999947,315.33488800001214,314.8339530999947,315.33488800001214,314.8339530999947,315.33488800001214,314.8339530999947,315.33488800001214,314.8339530999947,315.33488800001214,314.8339530999947,315.33488800001214,314.8339530999947,315.33488800001214,313.8820140000025,None,315.33488800001214,316.5025929000112,0.9700000000000006,316.51931329999934,None,317.27085609998903,None,,,,,,,[1.15843137],2.790000000000002,0.803921568627451,12011,001,2024_Jun_17_0830,MFTM_A_new1021,2021.2.3,59.68107626101303,
,,,,,,,,stim/Instruction_adaptive.png,conditions/adaptive.xlsx,test,-0.6,-0.6,-0.6,0.6,0.6,left,L,,,,,0,1,1,1,0,51,51,59,,,,,,,,,,,,,,,,,,,,,,,,,,,,,,,,,,,,,,,,,,,,317.77137629999197,None,left,1,1.127315899997484,318.2720015000086,319.72502059998806,318.2720015000086,319.22349279999617,318.2720015000086,319.22349279999617,318.2720015000086,319.22349279999617,318.2720015000086,319.22349279999617,318.2720015000086,319.22349279999617,319.2066455000022,319.707462499995,319.2066455000022,319.707462499995,319.2066455000022,319.707462499995,319.2066455000022,319.707462499995,319.2066455000022,319.707462499995,319.2066455000022,319.707462499995,319.2066455000022,319.707462499995,319.2066455000022,319.707462499995,318.2720015000086,None,319.707462499995,320.87606169999344,0.9500000000000006,320.8925401000015,None,321.64412410001387,None,,,,,,,[1.16596154],2.820000000000002,0.8076923076923077,12011,001,2024_Jun_17_0830,MFTM_A_new1021,2021.2.3,59.68107626101303,
,,,,,,,,stim/Instruction_adaptive.png,conditions/adaptive.xlsx,test,-0.6,-0.6,-0.6,0.6,0.6,left,L,,,,,0,1,1,1,0,52,52,71,,,,,,,,,,,,,,,,,,,,,,,,,,,,,,,,,,,,,,,,,,,,322.1444802999904,None,left,1,1.0657691000087652,322.6458908999921,324.0808628000086,322.6458908999921,323.5799725000106,322.6458908999921,323.5799725000106,322.6458908999921,323.5799725000106,322.6458908999921,323.5799725000106,322.6458908999921,323.5799725000106,323.5631953999982,324.06413370001246,323.5631953999982,324.06413370001246,323.5631953999982,324.06413370001246,323.5631953999982,324.06413370001246,323.5631953999982,324.06413370001246,323.5631953999982,324.06413370001246,323.5631953999982,324.06413370001246,323.5631953999982,324.06413370001246,322.6458908999921,None,324.06413370001246,None,0.9300000000000006,325.2490622999903,None,326.00049559999024,None,,,,,,,[1.17358491],2.8500000000000023,0.8113207547169812,12011,001,2024_Jun_17_0830,MFTM_A_new1021,2021.2.3,59.68107626101303,
,,,,,,,,stim/Instruction_adaptive.png,conditions/adaptive.xlsx,test,-0.6,-0.6,-0.6,0.6,0.6,left,L,,,,,0,1,1,1,0,53,53,67,,,,,,,,,,,,,,,,,,,,,,,,,,,,,,,,,,,,,,,,,,,,326.50091940001585,None,right,0,1.4375567999959458,327.00193820000277,328.4206855999946,327.00193820000277,327.92040559998713,327.00193820000277,327.92040559998713,327.00193820000277,327.92040559998713,327.00193820000277,327.92040559998713,327.00193820000277,327.92040559998713,327.9032909999951,328.4039038000046,327.9032909999951,328.4039038000046,327.9032909999951,328.4039038000046,327.9032909999951,328.4039038000046,327.9032909999951,328.4039038000046,327.9032909999951,328.4039038000046,327.9032909999951,328.4039038000046,327.9032909999951,328.4039038000046,327.00193820000277,None,328.38739469999564,329.5724074000027,0.9100000000000006,329.6058527000132,None,330.3568449000013,None,,,,,,,[1.1812963],2.760000000000002,0.7962962962962963,12011,001,2024_Jun_17_0830,MFTM_A_new1021,2021.2.3,59.68107626101303,
,,,,,,,,stim/Instruction_adaptive.png,conditions/adaptive.xlsx,test,-0.6,-0.6,-0.6,0.6,0.6,left,L,,,,,0,1,1,1,0,54,54,9,,,,,,,,,,,,,,,,,,,,,,,,,,,,,,,,,,,,,,,,,,,,330.85782949998975,None,right,0,1.457670000003418,331.35854200000176,332.8446607000078,331.35854200000176,332.34357679999084,331.35854200000176,332.34357679999084,331.35854200000176,332.34357679999084,331.35854200000176,332.34357679999084,331.35854200000176,332.34357679999084,332.30992870000773,332.81061809998937,332.30992870000773,332.81061809998937,332.30992870000773,332.81061809998937,332.30992870000773,332.81061809998937,332.30992870000773,332.81061809998937,332.30992870000773,332.81061809998937,332.30992870000773,332.81061809998937,332.30992870000773,332.81061809998937,331.35854200000176,None,332.81061809998937,334.01308130001416,0.9700000000000006,334.02893249999033,None,334.7808725000068,None,,,,,,,[1.18763636],2.6700000000000017,0.7818181818181819,12011,001,2024_Jun_17_0830,MFTM_A_new1021,2021.2.3,59.68107626101303,
,,,,,,,,stim/Instruction_adaptive.png,conditions/adaptive.xlsx,test,-0.6,-0.6,-0.6,0.6,0.6,left,L,,,,,0,1,1,1,0,55,55,51,,,,,,,,,,,,,,,,,,,,,,,,,,,,,,,,,,,,,,,,,,,,335.281608099991,None,right,0,1.890121000004001,335.7817778000026,337.3173330000136,335.7817778000026,336.81662910000887,335.7817778000026,336.81662910000887,335.7817778000026,336.81662910000887,335.7817778000026,336.81662910000887,335.7817778000026,336.81662910000887,336.7999964999908,337.30159970000386,336.7999964999908,337.30159970000386,336.7999964999908,337.30159970000386,336.7999964999908,337.30159970000386,336.7999964999908,337.30159970000386,336.7999964999908,337.30159970000386,336.7999964999908,337.30159970000386,336.7999964999908,337.30159970000386,335.7817778000026,None,337.30159970000386,338.50306160000036,1.0300000000000007,338.51990030001616,None,339.2708513000107,None,,,,,,,[1.19267857],2.570000000000002,0.7678571428571429,12011,001,2024_Jun_17_0830,MFTM_A_new1021,2021.2.3,59.68107626101303,
,,,,,,,,stim/Instruction_adaptive.png,conditions/adaptive.xlsx,test,-0.6,-0.6,-0.6,0.6,0.6,left,L,,,,,0,1,1,1,0,56,56,47,,,,,,,,,,,,,,,,,,,,,,,,,,,,,,,,,,,,,,,,,,,,339.77104469999904,None,left,1,1.3854369999899063,340.2717591999972,341.8909326000139,340.2717591999972,341.39024999999674,340.2717591999972,341.39024999999674,340.2717591999972,341.39024999999674,340.2717591999972,341.39024999999674,340.2717591999972,341.39024999999674,341.37370130000636,341.874390699988,341.37370130000636,341.874390699988,341.37370130000636,341.874390699988,341.37370130000636,341.874390699988,341.37370130000636,341.874390699988,341.37370130000636,341.874390699988,341.37370130000636,341.874390699988,341.37370130000636,341.874390699988,340.2717591999972,None,341.874390699988,343.0762218000018,1.1100000000000008,343.09265519998735,None,343.8438732000068,None,,,,,,,[1.19614035],2.610000000000002,0.7719298245614035,12011,001,2024_Jun_17_0830,MFTM_A_new1021,2021.2.3,59.68107626101303,
,,,,,,,,stim/Instruction_adaptive.png,conditions/adaptive.xlsx,test,0.6,0.6,0.6,-0.6,-0.6,right,R,,,,,0,1,1,1,0,57,57,16,,,,,,,,,,,,,,,,,,,,,,,,,,,,,,,,,,,,,,,,,,,,344.3448108000157,None,left,0,2.090605399978813,344.84520929999417,346.4326934000128,344.84520929999417,345.9302170999872,344.84520929999417,345.9302170999872,344.84520929999417,345.9302170999872,344.84520929999417,345.9302170999872,344.84520929999417,345.9302170999872,345.9137433000142,346.41440519999014,345.9137433000142,346.41440519999014,345.9137433000142,346.41440519999014,345.9137433000142,346.41440519999014,345.9137433000142,346.41440519999014,345.9137433000142,346.41440519999014,345.9137433000142,346.41440519999014,345.9137433000142,346.41440519999014,344.84520929999417,None,346.41440519999014,347.61654439999256,1.0800000000000007,347.63287060000584,None,348.38468479999574,None,,,,,,,[1.2],2.5100000000000016,0.7586206896551724,12011,001,2024_Jun_17_0830,MFTM_A_new1021,2021.2.3,59.68107626101303,
,,,,,,,,stim/Instruction_adaptive.png,conditions/adaptive.xlsx,test,0.6,0.6,0.6,-0.6,-0.6,right,R,,,,,0,1,1,1,0,58,58,76,,,,,,,,,,,,,,,,,,,,,,,,,,,,,,,,,,,,,,,,,,,,348.88476320001064,None,left,0,1.8947136999922805,349.3856214999978,351.0381926000118,349.3856214999978,350.5374104999937,349.3856214999978,350.5374104999937,349.3856214999978,350.5374104999937,349.3856214999978,350.5374104999937,349.3856214999978,350.5374104999937,350.5204938999959,351.0224253000051,350.5204938999959,351.0224253000051,350.5204938999959,351.0224253000051,350.5204938999959,351.0224253000051,350.5204938999959,351.0224253000051,350.5204938999959,351.0224253000051,350.5204938999959,351.0224253000051,350.5204938999959,351.0224253000051,349.3856214999978,None,351.0224253000051,352.22395129999495,1.1500000000000008,352.23995089999516,None,352.9917171999987,None,,,,,,,[1.20254237],2.410000000000002,0.7457627118644068,12011,001,2024_Jun_17_0830,MFTM_A_new1021,2021.2.3,59.68107626101303,
,,,,,,,,stim/Instruction_adaptive.png,conditions/adaptive.xlsx,test,-0.6,-0.6,-0.6,0.6,0.6,left,L,,,,,0,1,1,1,0,59,59,33,,,,,,,,,,,,,,,,,,,,,,,,,,,,,,,,,,,,,,,,,,,,353.49176179998904,None,left,1,1.4478204000042751,353.99244269999326,355.74521990001085,353.99244269999326,355.2451490999956,353.99244269999326,355.2451490999956,353.99244269999326,355.2451490999956,353.99244269999326,355.2451490999956,353.99244269999326,355.2451490999956,355.2111729999888,355.7130330000073,355.2111729999888,355.7130330000073,355.2111729999888,355.7130330000073,355.2111729999888,355.7130330000073,355.2111729999888,355.7130330000073,355.2111729999888,355.7130330000073,355.2111729999888,355.7130330000073,355.2111729999888,355.7130330000073,353.99244269999326,None,355.7130330000073,356.93027469998924,1.2400000000000009,356.9469926999882,None,357.6979649999994,None,,,,,,,[1.2035],2.450000000000002,0.75,12011,001,2024_Jun_17_0830,MFTM_A_new1021,2021.2.3,59.68107626101303,
,,,,,,,,stim/Instruction_adaptive.png,conditions/adaptive.xlsx,test,0.6,0.6,0.6,-0.6,-0.6,right,R,,,,,0,1,1,1,0,60,60,28,,,,,,,,,,,,,,,,,,,,,,,,,,,,,,,,,,,,,,,,,,,,358.19964890001575,None,right,1,1.3646802000002936,358.6998673999915,360.402353100013,358.6998673999915,359.90142800001195,358.6998673999915,359.90142800001195,358.6998673999915,359.90142800001195,358.6998673999915,359.90142800001195,358.6998673999915,359.90142800001195,359.8849111000018,360.38555720000295,359.8849111000018,360.38555720000295,359.8849111000018,360.38555720000295,359.8849111000018,360.38555720000295,359.8849111000018,360.38555720000295,359.8849111000018,360.38555720000295,359.8849111000018,360.38555720000295,359.8849111000018,360.38555720000295,358.6998673999915,None,360.38555720000295,361.58804910001345,1.2000000000000008,361.6041492999939,None,362.3551841000153,None,,,,,,,[1.20508197],2.4800000000000018,0.7540983606557377,12011,001,2024_Jun_17_0830,MFTM_A_new1021,2021.2.3,59.68107626101303,
,,,,,,,,stim/Instruction_adaptive.png,conditions/adaptive.xlsx,test,-0.6,-0.6,-0.6,0.6,0.6,left,L,,,,,0,1,1,1,0,61,61,97,,,,,,,,,,,,,,,,,,,,,,,,,,,,,,,,,,,,,,,,,,,,362.8561173999915,None,left,1,1.1719562000071164,363.3565832999884,365.0426568000112,363.3565832999884,364.5419045999879,363.3565832999884,364.5419045999879,363.3565832999884,364.5419045999879,363.3565832999884,364.5419045999879,363.3565832999884,364.5419045999879,364.52530310000293,365.02694360000896,364.52530310000293,365.02694360000896,364.52530310000293,365.02694360000896,364.52530310000293,365.02694360000896,364.52530310000293,365.02694360000896,364.52530310000293,365.02694360000896,364.52530310000293,365.02694360000896,364.52530310000293,365.02694360000896,363.3565832999884,None,365.02694360000896,None,1.1800000000000008,366.2444383999973,None,366.9957155000011,None,,,,,,,[1.20693548],2.5100000000000016,0.7580645161290323,12011,001,2024_Jun_17_0830,MFTM_A_new1021,2021.2.3,59.68107626101303,
,,,,,,,,stim/Instruction_adaptive.png,conditions/adaptive.xlsx,test,-0.6,-0.6,-0.6,0.6,0.6,left,L,,,,,0,1,1,1,0,62,62,87,,,,,,,,,,,,,,,,,,,,,,,,,,,,,,,,,,,,,,,,,,,,367.4962048000016,None,left,1,1.5639197000127751,367.99685250001494,369.649605899991,367.99685250001494,369.1492724000127,367.99685250001494,369.1492724000127,367.99685250001494,369.1492724000127,367.99685250001494,369.1492724000127,367.99685250001494,369.1492724000127,369.13215369998943,369.6327505999943,369.13215369998943,369.6327505999943,369.13215369998943,369.6327505999943,369.13215369998943,369.6327505999943,369.13215369998943,369.6327505999943,369.13215369998943,369.6327505999943,369.13215369998943,369.6327505999943,369.13215369998943,369.6327505999943,367.99685250001494,None,369.6327505999943,370.85132799998973,1.1500000000000008,370.86791780000203,None,371.61894519999623,None,,,,,,,[1.20920635],2.540000000000002,0.7619047619047619,12011,001,2024_Jun_17_0830,MFTM_A_new1021,2021.2.3,59.68107626101303,
,,,,,,,,stim/Instruction_adaptive.png,conditions/adaptive.xlsx,test,-0.6,-0.6,-0.6,0.6,0.6,left,L,,,,,0,1,1,1,0,63,63,13,,,,,,,,,,,,,,,,,,,,,,,,,,,,,,,,,,,,,,,,,,,,372.1201279000088,None,left,1,1.356366899999557,372.62058240000624,374.2574857000145,372.62058240000624,373.7561098000151,372.62058240000624,373.7561098000151,372.62058240000624,373.7561098000151,372.62058240000624,373.7561098000151,372.62058240000624,373.7561098000151,373.73940190000576,374.2397015999886,373.73940190000576,374.2397015999886,373.73940190000576,374.2397015999886,373.73940190000576,374.2397015999886,373.73940190000576,374.2397015999886,373.73940190000576,374.2397015999886,373.73940190000576,374.2397015999886,373.73940190000576,374.2397015999886,372.62058240000624,None,374.2397015999886,375.4591914000048,1.1300000000000008,375.4748841999972,None,376.2261673999892,None,,,,,,,[1.21171875],2.570000000000002,0.765625,12011,001,2024_Jun_17_0830,MFTM_A_new1021,2021.2.3,59.68107626101303,
,,,,,,,,stim/Instruction_adaptive.png,conditions/adaptive.xlsx,test,-0.6,-0.6,-0.6,0.6,0.6,left,L,,,,,0,1,1,1,0,64,64,15,,,,,,,,,,,,,,,,,,,,,,,,,,,,,,,,,,,,,,,,,,,,376.72680890001357,None,left,1,1.3894675000046846,377.2275637999992,378.84775750001427,377.2275637999992,378.3463610000035,377.2275637999992,378.3463610000035,377.2275637999992,378.3463610000035,377.2275637999992,378.3463610000035,377.2275637999992,378.3463610000035,378.3296712000156,378.8302597000147,378.3296712000156,378.8302597000147,378.3296712000156,378.8302597000147,378.3296712000156,378.8302597000147,378.3296712000156,378.8302597000147,378.3296712000156,378.8302597000147,378.3296712000156,378.8302597000147,378.3296712000156,378.8302597000147,377.2275637999992,None,378.8302597000147,380.04856640001526,1.1100000000000008,380.06505559998914,None,380.8163207999896,None,,,,,,,[1.21446154],2.600000000000002,0.7692307692307693,12011,001,2024_Jun_17_0830,MFTM_A_new1021,2021.2.3,59.68107626101303,
,,,,,,,,stim/Instruction_adaptive.png,conditions/adaptive.xlsx,test,-0.6,-0.6,-0.6,0.6,0.6,left,L,,,,,0,1,1,1,0,65,65,37,,,,,,,,,,,,,,,,,,,,,,,,,,,,,,,,,,,,,,,,,,,,381.31708430001163,None,left,1,1.1990743999776896,381.8179366000113,383.42030440000235,381.8179366000113,382.9199750999978,381.8179366000113,382.9199750999978,381.8179366000113,382.9199750999978,381.8179366000113,382.9199750999978,381.8179366000113,382.9199750999978,382.88610000000335,383.38695640000515,382.88610000000335,383.38695640000515,382.88610000000335,383.38695640000515,382.88610000000335,383.38695640000515,382.88610000000335,383.38695640000515,382.88610000000335,383.38695640000515,382.88610000000335,383.38695640000515,382.88610000000335,383.38695640000515,381.8179366000113,None,383.38695640000515,384.60544610000215,1.0900000000000007,384.6396049000032,None,385.39081139999325,None,,,,,,,[1.21742424],2.6300000000000017,0.7727272727272727,12011,001,2024_Jun_17_0830,MFTM_A_new1021,2021.2.3,59.68107626101303,
,,,,,,,,stim/Instruction_adaptive.png,conditions/adaptive.xlsx,test,-0.6,-0.6,-0.6,0.6,0.6,left,L,,,,,0,1,1,1,0,66,66,91,,,,,,,,,,,,,,,,,,,,,,,,,,,,,,,,,,,,,,,,,,,,385.89080110000214,None,left,1,1.202272800001083,386.39142979998724,387.9604282999935,386.39142979998724,387.4595995999989,386.39142979998724,387.4595995999989,386.39142979998724,387.4595995999989,386.39142979998724,387.4595995999989,386.39142979998724,387.4595995999989,387.4431500000064,387.94498629999,387.4431500000064,387.94498629999,387.4431500000064,387.94498629999,387.4431500000064,387.94498629999,387.4431500000064,387.94498629999,387.4431500000064,387.94498629999,387.4431500000064,387.94498629999,387.4431500000064,387.94498629999,386.39142979998724,None,387.94498629999,None,1.0600000000000007,389.1789812000061,None,389.93071059999056,None,,,,,,,[1.22074627],2.660000000000002,0.7761194029850746,12011,001,2024_Jun_17_0830,MFTM_A_new1021,2021.2.3,59.68107626101303,
,,,,,,,,stim/Instruction_adaptive.png,conditions/adaptive.xlsx,test,0.6,0.6,0.6,-0.6,-0.6,right,R,,,,,0,1,1,1,0,67,67,88,,,,,,,,,,,,,,,,,,,,,,,,,,,,,,,,,,,,,,,,,,,,390.4308866999927,None,right,1,1.2937010000168812,390.9316385000129,392.48439040000085,390.9316385000129,391.98310320000746,390.9316385000129,391.98310320000746,390.9316385000129,391.98310320000746,390.9316385000129,391.98310320000746,390.9316385000129,391.98310320000746,391.94989799999166,392.4506071000069,391.94989799999166,392.4506071000069,391.94989799999166,392.4506071000069,391.94989799999166,392.4506071000069,391.94989799999166,392.4506071000069,391.94989799999166,392.4506071000069,391.94989799999166,392.4506071000069,391.94989799999166,392.4506071000069,390.9316385000129,None,392.4506071000069,393.6862314000027,1.0400000000000007,393.7031747000001,None,394.4536747999955,None,,,,,,,[1.22426471],2.690000000000002,0.7794117647058824,12011,001,2024_Jun_17_0830,MFTM_A_new1021,2021.2.3,59.68107626101303,
,,,,,,,,stim/Instruction_adaptive.png,conditions/adaptive.xlsx,test,0.6,0.6,0.6,-0.6,-0.6,right,R,,,,,0,1,1,1,0,68,68,22,,,,,,,,,,,,,,,,,,,,,,,,,,,,,,,,,,,,,,,,,,,,394.9544387999922,None,right,1,1.2505175000114832,395.4549343000108,396.97423100000015,395.4549343000108,396.4900253000087,395.4549343000108,396.4900253000087,395.4549343000108,396.4900253000087,395.4549343000108,396.4900253000087,395.4549343000108,396.4900253000087,396.45685129999765,396.95733770000516,396.45685129999765,396.95733770000516,396.45685129999765,396.95733770000516,396.45685129999765,396.95733770000516,396.45685129999765,396.95733770000516,396.45685129999765,396.95733770000516,396.45685129999765,396.95733770000516,396.45685129999765,396.95733770000516,395.4549343000108,None,396.95733770000516,398.19340580000426,1.0200000000000007,398.2093143000093,None,398.961217700009,None,,,,,,,[1.22797101],2.7100000000000017,0.782608695652174,12011,001,2024_Jun_17_0830,MFTM_A_new1021,2021.2.3,59.68107626101303,
,,,,,,,,stim/Instruction_adaptive.png,conditions/adaptive.xlsx,test,-0.6,-0.6,-0.6,0.6,0.6,left,L,,,,,0,1,1,1,0,69,69,83,,,,,,,,,,,,,,,,,,,,,,,,,,,,,,,,,,,,,,,,,,,,399.4612574999919,None,right,0,1.3191251999814995,399.9625980000128,401.4809810000006,399.9625980000128,400.9800094999955,399.9625980000128,400.9800094999955,399.9625980000128,400.9800094999955,399.9625980000128,400.9800094999955,399.9625980000128,400.9800094999955,400.94674000001396,401.44758599999477,400.94674000001396,401.44758599999477,400.94674000001396,401.44758599999477,400.94674000001396,401.44758599999477,400.94674000001396,401.44758599999477,400.94674000001396,401.44758599999477,400.94674000001396,401.44758599999477,400.94674000001396,401.44758599999477,399.9625980000128,None,401.44758599999477,402.6834288999962,1.0100000000000007,402.7160062000039,None,403.46721719999914,None,,,,,,,[1.23171429],2.6300000000000017,0.7714285714285715,12011,001,2024_Jun_17_0830,MFTM_A_new1021,2021.2.3,59.68107626101303,
,,,,,,,,stim/Instruction_adaptive.png,conditions/adaptive.xlsx,test,-0.6,-0.6,-0.6,0.6,0.6,left,L,,,,,0,1,1,1,0,70,70,57,,,,,,,,,,,,,,,,,,,,,,,,,,,,,,,,,,,,,,,,,,,,403.96811489999527,None,left,1,1.3094176000158768,404.46873439999763,406.03771959998994,404.46873439999763,405.5369944999984,404.46873439999763,405.5369944999984,404.46873439999763,405.5369944999984,404.46873439999763,405.5369944999984,404.46873439999763,405.5369944999984,405.50395760001265,406.004368599999,405.50395760001265,406.004368599999,405.50395760001265,406.004368599999,405.50395760001265,406.004368599999,405.50395760001265,406.004368599999,405.50395760001265,406.004368599999,405.50395760001265,406.004368599999,405.50395760001265,406.004368599999,404.46873439999763,None,406.004368599999,407.23943610000424,1.0600000000000007,407.27296750000096,None,408.0242051999958,None,,,,,,,[1.23464789],2.660000000000002,0.7746478873239436,12011,001,2024_Jun_17_0830,MFTM_A_new1021,2021.2.3,59.68107626101303,
,,,,,,,,stim/Instruction_adaptive.png,conditions/adaptive.xlsx,test,0.6,0.6,0.6,-0.6,-0.6,right,R,,,,,0,1,1,1,0,71,71,58,,,,,,,,,,,,,,,,,,,,,,,,,,,,,,,,,,,,,,,,,,,,408.5257488999923,None,left,0,1.424801999994088,409.0255291000067,410.5777390000003,409.0255291000067,410.0771934000077,409.0255291000067,410.0771934000077,409.0255291000067,410.0771934000077,409.0255291000067,410.0771934000077,409.0255291000067,410.0771934000077,410.0437508999894,410.5445286000031,410.0437508999894,410.5445286000031,410.0437508999894,410.5445286000031,410.0437508999894,410.5445286000031,410.0437508999894,410.5445286000031,410.0437508999894,410.5445286000031,410.0437508999894,410.5445286000031,410.0437508999894,410.5445286000031,409.0255291000067,None,410.5445286000031,411.7962641000049,1.0400000000000007,411.8126501000079,None,412.56405690000975,None,,,,,,,[1.23777778],2.580000000000002,0.7638888888888888,12011,001,2024_Jun_17_0830,MFTM_A_new1021,2021.2.3,59.68107626101303,
,,,,,,,,stim/Instruction_adaptive.png,conditions/adaptive.xlsx,test,0.6,0.6,0.6,-0.6,-0.6,right,R,,,,,0,1,1,1,0,72,72,60,,,,,,,,,,,,,,,,,,,,,,,,,,,,,,,,,,,,,,,,,,,,413.06521110000904,None,right,1,1.6920112000079826,413.56584049999947,415.1681494000077,413.56584049999947,414.6675019999966,413.56584049999947,414.6675019999966,413.56584049999947,414.6675019999966,413.56584049999947,414.6675019999966,413.56584049999947,414.6675019999966,414.650710899994,415.15258090000134,414.650710899994,415.15258090000134,414.650710899994,415.15258090000134,414.650710899994,415.15258090000134,414.650710899994,415.15258090000134,414.650710899994,415.15258090000134,414.650710899994,415.15258090000134,414.650710899994,415.15258090000134,413.56584049999947,None,415.15258090000134,416.4038205000106,1.1000000000000008,416.419859799993,None,417.1714573999925,None,,,,,,,[1.24],2.610000000000002,0.7671232876712328,12011,001,2024_Jun_17_0830,MFTM_A_new1021,2021.2.3,59.68107626101303,
,,,,,,,,stim/Instruction_adaptive.png,conditions/adaptive.xlsx,test,0.6,0.6,0.6,-0.6,-0.6,right,R,,,,,0,1,1,1,0,73,73,46,,,,,,,,,,,,,,,,,,,,,,,,,,,,,,,,,,,,,,,,,,,,417.6718872000056,None,right,1,1.348861099977512,418.1736957000103,419.7584211000067,418.1736957000103,419.25779840000905,418.1736957000103,419.25779840000905,418.1736957000103,419.25779840000905,418.1736957000103,419.25779840000905,418.1736957000103,419.25779840000905,419.2416273000126,419.74252790000173,419.2416273000126,419.74252790000173,419.2416273000126,419.74252790000173,419.2416273000126,419.74252790000173,419.2416273000126,419.74252790000173,419.2416273000126,419.74252790000173,419.2416273000126,419.74252790000173,419.2416273000126,419.74252790000173,418.1736957000103,None,419.74252790000173,420.9935803000117,1.0800000000000007,421.0116307999997,None,421.7613496000122,None,,,,,,,[1.24243243],2.640000000000002,0.7702702702702703,12011,001,2024_Jun_17_0830,MFTM_A_new1021,2021.2.3,59.68107626101303,
,,,,,,,,stim/Instruction_adaptive.png,conditions/adaptive.xlsx,test,0.6,0.6,0.6,-0.6,-0.6,right,R,,,,,0,1,1,1,0,74,74,32,,,,,,,,,,,,,,,,,,,,,,,,,,,,,,,,,,,,,,,,,,,,422.26223039999604,None,right,1,1.326356300007319,422.76392679999117,424.3321278000076,422.76392679999117,423.83215510001173,422.76392679999117,423.83215510001173,422.76392679999117,423.83215510001173,422.76392679999117,423.83215510001173,422.76392679999117,423.83215510001173,423.7978863999888,424.29980830001296,423.7978863999888,424.29980830001296,423.7978863999888,424.29980830001296,423.7978863999888,424.29980830001296,423.7978863999888,424.29980830001296,423.7978863999888,424.29980830001296,423.7978863999888,424.29980830001296,423.7978863999888,424.29980830001296,422.76392679999117,None,424.29980830001296,425.55055660000653,1.0600000000000007,425.58377389999805,None,426.33524399998714,None,,,,,,,[1.24506667],2.660000000000002,0.7733333333333333,12011,001,2024_Jun_17_0830,MFTM_A_new1021,2021.2.3,59.68107626101303,
,,,,,,,,stim/Instruction_adaptive.png,conditions/adaptive.xlsx,test,0.6,0.6,0.6,-0.6,-0.6,right,R,,,,,0,1,1,1,0,75,75,56,,,,,,,,,,,,,,,,,,,,,,,,,,,,,,,,,,,,,,,,,,,,426.8357013000059,None,right,1,1.553811499994481,427.33652129999246,428.88920060000964,427.33652129999246,428.3881825999997,427.33652129999246,428.3881825999997,427.33652129999246,428.3881825999997,427.33652129999246,428.3881825999997,427.33652129999246,428.3881825999997,428.3547722999938,428.85534030001145,428.3547722999938,428.85534030001145,428.3547722999938,428.85534030001145,428.3547722999938,428.85534030001145,428.3547722999938,428.85534030001145,428.3547722999938,428.85534030001145,428.3547722999938,428.85534030001145,428.3547722999938,428.85534030001145,427.33652129999246,None,428.85534030001145,430.10828640000545,1.0400000000000007,430.1248830000113,None,430.8750088000088,None,,,,,,,[1.24789474],2.690000000000002,0.7763157894736842,12011,001,2024_Jun_17_0830,MFTM_A_new1021,2021.2.3,59.68107626101303,
,,,,,,,,stim/Instruction_adaptive.png,conditions/adaptive.xlsx,test,0.6,0.6,0.6,-0.6,-0.6,right,R,,,,,0,1,1,1,0,76,76,26,,,,,,,,,,,,,,,,,,,,,,,,,,,,,,,,,,,,,,,,,,,,431.3759229000134,None,right,1,1.4938267999968957,431.8766584999976,433.3957794000162,431.8766584999976,432.9121404000034,431.8766584999976,432.9121404000034,431.8766584999976,432.9121404000034,431.8766584999976,432.9121404000034,431.8766584999976,432.9121404000034,432.8781089000113,433.37899309999193,432.8781089000113,433.37899309999193,432.8781089000113,433.37899309999193,432.8781089000113,433.37899309999193,432.8781089000113,433.37899309999193,432.8781089000113,433.37899309999193,432.8781089000113,433.37899309999193,432.8781089000113,433.37899309999193,431.8766584999976,None,433.37899309999193,434.63095520000206,1.0200000000000007,434.6479590999952,None,435.39881049998803,None,,,,,,,[1.25090909],2.7100000000000017,0.7792207792207793,12011,001,2024_Jun_17_0830,MFTM_A_new1021,2021.2.3,59.68107626101303,
,,,,,,,,stim/Instruction_adaptive.png,conditions/adaptive.xlsx,test,-0.6,-0.6,-0.6,0.6,0.6,left,L,,,,,0,1,1,1,0,77,77,41,,,,,,,,,,,,,,,,,,,,,,,,,,,,,,,,,,,,,,,,,,,,435.89943109999876,None,right,0,1.5706073000037577,436.4001978999877,437.9190135000099,436.4001978999877,437.41885600000387,436.4001978999877,437.41885600000387,436.4001978999877,437.41885600000387,436.4001978999877,437.41885600000387,436.4001978999877,437.41885600000387,437.386033399991,437.88562290000846,437.386033399991,437.88562290000846,437.386033399991,437.88562290000846,437.386033399991,437.88562290000846,437.386033399991,437.88562290000846,437.386033399991,437.88562290000846,437.386033399991,437.88562290000846,437.386033399991,437.88562290000846,436.4001978999877,None,437.88562290000846,439.15598979999777,1.0100000000000007,439.1708338999888,None,439.9223200000124,None,,,,,,,[1.25397436],2.640000000000002,0.7692307692307693,12011,001,2024_Jun_17_0830,MFTM_A_new1021,2021.2.3,59.68107626101303,
,,,,,,,,stim/Instruction_adaptive.png,conditions/adaptive.xlsx,test,-0.6,-0.6,-0.6,0.6,0.6,left,L,,,,,0,1,1,1,0,78,78,11,,,,,,,,,,,,,,,,,,,,,,,,,,,,,,,,,,,,,,,,,,,,440.422948899999,None,left,1,1.2948291000211611,440.92386529999203,442.4935197000159,440.92386529999203,441.99318940000376,440.92386529999203,441.99318940000376,440.92386529999203,441.99318940000376,440.92386529999203,441.99318940000376,440.92386529999203,441.99318940000376,441.9753525000124,442.4760687999951,441.9753525000124,442.4760687999951,441.9753525000124,442.4760687999951,441.9753525000124,442.4760687999951,441.9753525000124,442.4760687999951,441.9753525000124,442.4760687999951,441.9753525000124,442.4760687999951,441.9753525000124,442.4760687999951,440.92386529999203,None,442.4760687999951,None,1.0600000000000007,443.7444938000117,None,444.49587370001245,None,,,,,,,[1.25632911],2.660000000000002,0.7721518987341772,12011,001,2024_Jun_17_0830,MFTM_A_new1021,2021.2.3,59.68107626101303,
,,,,,,,,stim/Instruction_adaptive.png,conditions/adaptive.xlsx,test,-0.6,-0.6,-0.6,0.6,0.6,left,L,,,,,0,1,1,1,0,79,79,79,,,,,,,,,,,,,,,,,,,,,,,,,,,,,,,,,,,,,,,,,,,,444.9969345999998,None,left,1,1.2563361000211444,445.4983393000148,447.0498581000138,445.4983393000148,446.5489268999954,445.4983393000148,446.5489268999954,445.4983393000148,446.5489268999954,445.4983393000148,446.5489268999954,445.4983393000148,446.5489268999954,446.5153362000128,447.0158286000078,446.5153362000128,447.0158286000078,446.5153362000128,447.0158286000078,446.5153362000128,447.0158286000078,446.5153362000128,447.0158286000078,446.5153362000128,447.0158286000078,446.5153362000128,447.0158286000078,446.5153362000128,447.0158286000078,445.4983393000148,None,447.0158286000078,448.28545130000566,1.0400000000000007,448.30144060001476,None,449.05255880000186,None,,,,,,,[1.258875],2.690000000000002,0.775,12011,001,2024_Jun_17_0830,MFTM_A_new1021,2021.2.3,59.68107626101303,
,,,,,,,,stim/Instruction_adaptive.png,conditions/adaptive.xlsx,test,-0.6,-0.6,-0.6,0.6,0.6,left,L,,,,,0,1,1,1,0,80,80,19,,,,,,,,,,,,,,,,,,,,,,,,,,,,,,,,,,,,,,,,,,,,449.55395719999797,None,left,1,1.1009597000083886,450.05424190001213,451.58952229999704,450.05424190001213,451.0888957999996,450.05424190001213,451.0888957999996,450.05424190001213,451.0888957999996,450.05424190001213,451.0888957999996,450.05424190001213,451.0888957999996,451.05560280001373,451.55649069999345,451.05560280001373,451.55649069999345,451.05560280001373,451.55649069999345,451.05560280001373,451.55649069999345,451.05560280001373,451.55649069999345,451.05560280001373,451.55649069999345,451.05560280001373,451.55649069999345,451.05560280001373,451.55649069999345,450.05424190001213,None,451.55649069999345,452.8251359999995,1.0200000000000007,452.8417329000076,None,453.5926805000054,None,,,,,,,[1.26160494],2.7100000000000017,0.7777777777777778,12011,001,2024_Jun_17_0830,MFTM_A_new1021,2021.2.3,59.68107626101303,
,,,,,,,,stim/Instruction_adaptive.png,conditions/adaptive.xlsx,test,-0.6,-0.6,-0.6,0.6,0.6,left,L,,,,,0,1,1,1,0,81,81,3,,,,,,,,,,,,,,,,,,,,,,,,,,,,,,,,,,,,,,,,,,,,454.09426449998864,None,left,1,1.7529068000148982,454.5942924999981,456.1132698000001,454.5942924999981,455.61259910001536,454.5942924999981,455.61259910001536,454.5942924999981,455.61259910001536,454.5942924999981,455.61259910001536,454.5942924999981,455.61259910001536,455.5959153000149,456.09646989998873,455.5959153000149,456.09646989998873,455.5959153000149,456.09646989998873,455.5959153000149,456.09646989998873,455.5959153000149,456.09646989998873,455.5959153000149,456.09646989998873,455.5959153000149,456.09646989998873,455.5959153000149,456.09646989998873,454.5942924999981,None,456.09646989998873,457.36522700000205,1.0100000000000007,457.3817332999897,None,458.133726,None,,,,,,,[1.26439024],2.730000000000002,0.7804878048780488,12011,001,2024_Jun_17_0830,MFTM_A_new1021,2021.2.3,59.68107626101303,
,,,,,,,,stim/Instruction_adaptive.png,conditions/adaptive.xlsx,test,0.6,0.6,0.6,-0.6,-0.6,right,R,,,,,0,1,1,1,0,82,82,14,,,,,,,,,,,,,,,,,,,,,,,,,,,,,,,,,,,,,,,,,,,,458.6346979000082,None,left,0,1.4052482999977656,459.1342447999923,460.636673800007,459.1342447999923,460.1360551000107,459.1342447999923,460.1360551000107,459.1342447999923,460.1360551000107,459.1342447999923,460.1360551000107,459.1342447999923,460.1360551000107,460.1026023000013,460.6031661000161,460.1026023000013,460.6031661000161,460.1026023000013,460.6031661000161,460.1026023000013,460.6031661000161,460.1026023000013,460.6031661000161,460.1026023000013,460.6031661000161,460.1026023000013,460.6031661000161,460.1026023000013,460.6031661000161,459.1342447999923,None,460.6031661000161,461.8733821999922,0.9900000000000007,461.9054391999962,None,462.6564830999996,None,,,,,,,[1.2673494],2.6700000000000017,0.7710843373493976,12011,001,2024_Jun_17_0830,MFTM_A_new1021,2021.2.3,59.68107626101303,
,,,,,,,,stim/Instruction_adaptive.png,conditions/adaptive.xlsx,test,0.6,0.6,0.6,-0.6,-0.6,right,R,,,,,0,1,1,1,0,83,83,92,,,,,,,,,,,,,,,,,,,,,,,,,,,,,,,,,,,,,,,,,,,,463.1572026000067,None,right,1,1.3453403000021353,463.6580125000037,465.19367800001055,463.6580125000037,464.6930117000011,463.6580125000037,464.6930117000011,463.6580125000037,464.6930117000011,463.6580125000037,464.6930117000011,463.6580125000037,464.6930117000011,464.67632309999317,465.17670989999897,464.67632309999317,465.17670989999897,464.67632309999317,465.17670989999897,464.67632309999317,465.17670989999897,464.67632309999317,465.17670989999897,464.67632309999317,465.17670989999897,464.67632309999317,465.17670989999897,464.67632309999317,465.17670989999897,463.6580125000037,None,465.17670989999897,466.4454410999897,1.0300000000000007,466.4621696000104,None,467.2133262999996,None,,,,,,,[1.2697619],2.690000000000002,0.7738095238095238,12011,001,2024_Jun_17_0830,MFTM_A_new1021,2021.2.3,59.68107626101303,
,,,,,,,,stim/Instruction_adaptive.png,conditions/adaptive.xlsx,test,-0.6,-0.6,-0.6,0.6,0.6,left,L,,,,,0,1,1,1,0,84,84,1,,,,,,,,,,,,,,,,,,,,,,,,,,,,,,,,,,,,,,,,,,,,467.71420769998804,None,right,0,1.4044523000193294,468.21485990000656,469.7338151000149,468.21485990000656,469.24968400000944,468.21485990000656,469.24968400000944,468.21485990000656,469.24968400000944,468.21485990000656,469.24968400000944,468.21485990000656,469.24968400000944,469.2164679999987,469.7173943000089,469.2164679999987,469.7173943000089,469.2164679999987,469.7173943000089,469.2164679999987,469.7173943000089,469.2164679999987,469.7173943000089,469.2164679999987,469.7173943000089,469.2164679999987,469.7173943000089,469.2164679999987,469.7173943000089,468.21485990000656,None,469.7173943000089,471.00239080001484,1.0200000000000007,471.01898910000455,None,471.77038490000996,None,,,,,,,[1.27223529],2.620000000000002,0.7647058823529411,12011,001,2024_Jun_17_0830,MFTM_A_new1021,2021.2.3,59.68107626101303,
,,,,,,,,stim/Instruction_adaptive.png,conditions/adaptive.xlsx,test,-0.6,-0.6,-0.6,0.6,0.6,left,L,,,,,0,1,1,1,0,85,85,77,,,,,,,,,,,,,,,,,,,,,,,,,,,,,,,,,,,,,,,,,,,,472.27141779998783,None,left,1,1.0791384000040125,472.7731911999872,474.35733950001304,472.7731911999872,473.85693840001477,472.7731911999872,473.85693840001477,472.7731911999872,473.85693840001477,472.7731911999872,473.85693840001477,472.7731911999872,473.85693840001477,473.8243737000157,474.3245928999968,473.8243737000157,474.3245928999968,473.8243737000157,474.3245928999968,473.8243737000157,474.3245928999968,473.8243737000157,474.3245928999968,473.8243737000157,474.3245928999968,473.8243737000157,474.3245928999968,473.8243737000157,474.3245928999968,472.7731911999872,None,474.3245928999968,475.60919300001115,1.0700000000000007,475.6258472999907,None,476.37714160000905,None,,,,,,,[1.27406977],2.650000000000002,0.7674418604651163,12011,001,2024_Jun_17_0830,MFTM_A_new1021,2021.2.3,59.68107626101303,
,,,,,,,,stim/Instruction_adaptive.png,conditions/adaptive.xlsx,test,0.6,0.6,0.6,-0.6,-0.6,right,R,,,,,0,1,1,1,0,86,86,68,,,,,,,,,,,,,,,,,,,,,,,,,,,,,,,,,,,,,,,,,,,,476.87936560000526,None,right,1,1.4494802000117488,477.37867510001524,478.93100740000955,477.37867510001524,478.431585000013,477.37867510001524,478.431585000013,477.37867510001524,478.431585000013,477.37867510001524,478.431585000013,477.37867510001524,478.431585000013,478.4147961999988,478.914311200002,478.4147961999988,478.914311200002,478.4147961999988,478.914311200002,478.4147961999988,478.914311200002,478.4147961999988,478.914311200002,478.4147961999988,478.914311200002,478.4147961999988,478.914311200002,478.4147961999988,478.914311200002,477.37867510001524,None,478.914311200002,480.19951720000245,1.0500000000000007,480.2161296000122,None,480.96794030000456,None,,,,,,,[1.27609195],2.6700000000000017,0.7701149425287356,12011,001,2024_Jun_17_0830,MFTM_A_new1021,2021.2.3,59.68107626101303,
,,,,,,,,stim/Instruction_adaptive.png,conditions/adaptive.xlsx,test,0.6,0.6,0.6,-0.6,-0.6,right,R,,,,,0,1,1,1,0,87,87,84,,,,,,,,,,,,,,,,,,,,,,,,,,,,,,,,,,,,,,,,,,,,481.4681940000155,None,right,1,1.2744807999988552,481.96950790000847,483.5058118000161,481.96950790000847,483.0037425000046,481.96950790000847,483.0037425000046,481.96950790000847,483.0037425000046,481.96950790000847,483.0037425000046,481.96950790000847,483.0037425000046,482.9871414999943,483.48787620000076,482.9871414999943,483.48787620000076,482.9871414999943,483.48787620000076,482.9871414999943,483.48787620000076,482.9871414999943,483.48787620000076,482.9871414999943,483.48787620000076,482.9871414999943,483.48787620000076,482.9871414999943,483.48787620000076,481.96950790000847,None,483.48787620000076,484.7731715000118,1.0300000000000007,484.78961350000463,None,485.5411752999935,None,,,,,,,[1.27829545],2.690000000000002,0.7727272727272727,12011,001,2024_Jun_17_0830,MFTM_A_new1021,2021.2.3,59.68107626101303,
,,,,,,,,stim/Instruction_adaptive.png,conditions/adaptive.xlsx,test,-0.6,-0.6,-0.6,0.6,0.6,left,L,,,,,0,1,1,1,0,88,88,99,,,,,,,,,,,,,,,,,,,,,,,,,,,,,,,,,,,,,,,,,,,,486.0423925000068,None,left,1,1.3172172000049613,486.54319779999787,488.07894790000864,486.54319779999787,487.5773521999945,486.54319779999787,487.5773521999945,486.54319779999787,487.5773521999945,486.54319779999787,487.5773521999945,486.54319779999787,487.5773521999945,487.5451826000062,488.0447215999884,487.5451826000062,488.0447215999884,487.5451826000062,488.0447215999884,487.5451826000062,488.0447215999884,487.5451826000062,488.0447215999884,487.5451826000062,488.0447215999884,487.5451826000062,488.0447215999884,487.5451826000062,488.0447215999884,486.54319779999787,None,488.0447215999884,489.33044980000705,1.0200000000000007,489.3466720000142,None,490.0990654999914,None,,,,,,,[1.2805618],2.7100000000000017,0.7752808988764045,12011,001,2024_Jun_17_0830,MFTM_A_new1021,2021.2.3,59.68107626101303,
,,,,,,,,stim/Instruction_adaptive.png,conditions/adaptive.xlsx,test,0.6,0.6,0.6,-0.6,-0.6,right,R,,,,,0,1,1,1,0,89,89,70,,,,,,,,,,,,,,,,,,,,,,,,,,,,,,,,,,,,,,,,,,,,490.5986763999972,None,right,1,1.2331524000037462,491.0991206000035,492.6182991999958,491.0991206000035,492.11760960001266,491.0991206000035,492.11760960001266,491.0991206000035,492.11760960001266,491.0991206000035,492.11760960001266,491.0991206000035,492.11760960001266,492.1009037999902,492.6016719999898,492.1009037999902,492.6016719999898,492.1009037999902,492.6016719999898,492.1009037999902,492.6016719999898,492.1009037999902,492.6016719999898,492.1009037999902,492.6016719999898,492.1009037999902,492.6016719999898,492.1009037999902,492.6016719999898,491.0991206000035,None,492.5848820999963,493.8708280000137,1.0100000000000007,493.9035305000143,None,494.65485240001,None,,,,,,,[1.28288889],2.730000000000002,0.7777777777777778,12011,001,2024_Jun_17_0830,MFTM_A_new1021,2021.2.3,59.68107626101303,
,,,,,,,,stim/Instruction_adaptive.png,conditions/adaptive.xlsx,test,0.6,0.6,0.6,-0.6,-0.6,right,R,,,,,0,1,1,1,0,90,90,72,,,,,,,,,,,,,,,,,,,,,,,,,,,,,,,,,,,,,,,,,,,,495.15536710000015,None,left,0,1.9638049000059254,495.65617219998967,497.1584009999933,495.65617219998967,496.6577965999895,495.65617219998967,496.6577965999895,495.65617219998967,496.6577965999895,495.65617219998967,496.6577965999895,495.65617219998967,496.6577965999895,496.6254908000119,497.125132199988,496.6254908000119,497.125132199988,496.6254908000119,497.125132199988,496.6254908000119,497.125132199988,496.6254908000119,497.125132199988,496.6254908000119,497.125132199988,496.6254908000119,497.125132199988,496.6254908000119,497.125132199988,495.65617219998967,None,497.125132199988,498.41038919999846,0.9900000000000007,498.4436694000033,None,499.1955611000012,None,,,,,,,[1.28538462],2.6700000000000017,0.7692307692307693,12011,001,2024_Jun_17_0830,MFTM_A_new1021,2021.2.3,59.68107626101303,
,,,,,,,,stim/Instruction_adaptive.png,conditions/adaptive.xlsx,test,0.6,0.6,0.6,-0.6,-0.6,right,R,,,,,0,1,1,1,0,91,91,48,,,,,,,,,,,,,,,,,,,,,,,,,,,,,,,,,,,,,,,,,,,,499.6961782000144,None,right,1,1.2390382000012323,500.1970696999924,501.73187640000833,500.1970696999924,501.23182849999284,500.1970696999924,501.23182849999284,500.1970696999924,501.23182849999284,500.1970696999924,501.23182849999284,500.1970696999924,501.23182849999284,501.21479779999936,501.7154281999974,501.21479779999936,501.7154281999974,501.21479779999936,501.7154281999974,501.21479779999936,501.7154281999974,501.21479779999936,501.7154281999974,501.21479779999936,501.7154281999974,501.21479779999936,501.7154281999974,501.21479779999936,501.7154281999974,500.1970696999924,None,501.7154281999974,None,1.0300000000000007,503.01868529999047,None,503.7686650000105,None,,,,,,,[1.2873913],2.690000000000002,0.7717391304347826,12011,001,2024_Jun_17_0830,MFTM_A_new1021,2021.2.3,59.68107626101303,
,,,,,,,,stim/Instruction_adaptive.png,conditions/adaptive.xlsx,test,-0.6,-0.6,-0.6,0.6,0.6,left,L,,,,,0,1,1,1,0,92,92,17,,,,,,,,,,,,,,,,,,,,,,,,,,,,,,,,,,,,,,,,,,,,504.26967989999685,None,left,1,1.3148088000016287,504.7699652000156,506.2889780999976,504.7699652000156,505.80495150000206,504.7699652000156,505.80495150000206,504.7699652000156,505.80495150000206,504.7699652000156,505.80495150000206,504.7699652000156,505.80495150000206,505.77140510000754,506.27226920000976,505.77140510000754,506.27226920000976,505.77140510000754,506.27226920000976,505.77140510000754,506.27226920000976,505.77140510000754,506.27226920000976,505.77140510000754,506.27226920000976,505.77140510000754,506.27226920000976,505.77140510000754,506.27226920000976,504.7699652000156,None,506.27226920000976,507.57422460001544,1.0200000000000007,507.59083170001395,None,508.34210489998804,None,,,,,,,[1.28946237],2.7100000000000017,0.7741935483870968,12011,001,2024_Jun_17_0830,MFTM_A_new1021,2021.2.3,59.68107626101303,
