arrwidth1,arrwidth2,arrwidth3,arrwidth4,arrwidth5,keyb,type,orientation,instruction_image,block_filename,block_type,arrow11,arrow22,arrow33,arrow44,arrow55,keyb_3,orientation3,trials.thisRepN,trials.thisTrialN,trials.thisN,trials.thisIndex,trials_3.thisRepN,trials_3.thisTrialN,trials_3.thisN,trials_3.thisIndex,trials_2.thisRepN,trials_2.thisTrialN,trials_2.thisN,trials_2.thisIndex,welcome.started,welcome.stopped,key_resp.keys,key_resp.rt,key_resp.started,key_resp.stopped,instruction_example.started,instruction_example.stopped,key_resp_3.keys,key_resp_3.rt,key_resp_3.started,key_resp_3.stopped,instruction_task.started,instruction_task.stopped,key_resp_2.keys,key_resp_2.rt,key_resp_2.started,key_resp_2.stopped,text_2.started,text_2.stopped,A1.started,A1.stopped,A2.started,A2.stopped,A3.started,A3.stopped,A4.started,A4.stopped,A5.started,A5.stopped,key_resp_4.keys,key_resp_4.corr,key_resp_4.rt,key_resp_4.started,key_resp_4.stopped,fb.started,fb.stopped,instruction_block.started,instruction_block.stopped,key_resp_8.keys,key_resp_8.rt,key_resp_8.started,key_resp_8.stopped,text_8.started,text_8.stopped,key_resp_9.keys,key_resp_9.corr,key_resp_9.rt,text_5.started,text_5.stopped,A11_3.started,A11_3.stopped,A22_2.started,A22_2.stopped,A33_2.started,A33_2.stopped,A44_2.started,A44_2.stopped,A55_2.started,A55_2.stopped,M1_3.started,M1_3.stopped,M2_2.started,M2_2.stopped,M3_2.started,M3_2.stopped,M4_2.started,M4_2.stopped,M5_2.started,M5_2.stopped,M6_2.started,M6_2.stopped,M7_2.started,M7_2.stopped,M8_2.started,M8_2.stopped,key_resp_9.started,key_resp_9.stopped,fixation.started,fixation.stopped,ET,fb_3.started,fb_3.stopped,text_9.started,text_9.stopped,fb_4.started,fb_4.stopped,text_7.started,text_7.stopped,endtext.started,endtext.stopped,fixation_ITI,CCC,Acc,participant,session,date,expName,psychopyVersion,frameRate,
,,,,,,,,,,,,,,,,,,,,,,,,,,,,,,12.122126600006595,None,space,4.06580409995513,12.122126600006595,None,,,,,,,,,,,,,,,,,,,,,,,,,,,,,,,,,,,,,,,,,,,,,,,,,,,,,,,,,,,,,,,,,,,,,,,,,,,,,,,,,,,,,,,,,12014,001,2024_Jun_20_1903,MFTM_A_new1021,2021.2.3,59.472443739126206,
,,,,,,,,,,,,,,,,,,,,,,,,,,,,,,,,,,,,16.210227600007784,None,space,7.634289999958128,16.210227600007784,None,,,,,,,,,,,,,,,,,,,,,,,,,,,,,,,,,,,,,,,,,,,,,,,,,,,,,,,,,,,,,,,,,,,,,,,,,,,,,,,,,,,12014,001,2024_Jun_20_1903,MFTM_A_new1021,2021.2.3,59.472443739126206,
,,,,,,,,,,,,,,,,,,,,,,,,,,,,,,,,,,,,,,,,,,23.871643299993593,None,space,2.6522284999955446,23.871643299993593,None,,,,,,,,,,,,,,,,,,,,,,,,,,,,,,,,,,,,,,,,,,,,,,,,,,,,,,,,,,,,,,,,,,,,,,,,,,,,,12014,001,2024_Jun_20_1903,MFTM_A_new1021,2021.2.3,59.472443739126206,
0.6,0.6,0.6,-0.6,-0.6,right,3:2,R,,,,,,,,,,,0,0,0,0,,,,,,,,,,,,,,,,,,,,,,,,,,,26.55910950002726,None,26.55910950002726,None,26.55910950002726,None,26.55910950002726,None,26.55910950002726,None,26.55910950002726,None,right,1,11.645426200004295,26.55910950002726,None,38.243860199989285,None,,,,,,,,,,,,,,,,,,,,,,,,,,,,,,,,,,,,,,,,,,,,,,,,,,,,,,,,,,12014,001,2024_Jun_20_1903,MFTM_A_new1021,2021.2.3,59.472443739126206,
-0.6,-0.6,-0.6,0.6,0.6,left,3:2,L,,,,,,,,,,,0,1,1,1,,,,,,,,,,,,,,,,,,,,,,,,,,,38.99463869997999,None,38.99463869997999,None,38.99463869997999,None,38.99463869997999,None,38.99463869997999,None,38.99463869997999,None,left,1,2.0502075999975204,38.99463869997999,None,41.06447689997731,None,,,,,,,,,,,,,,,,,,,,,,,,,,,,,,,,,,,,,,,,,,,,,,,,,,,,,,,,,,12014,001,2024_Jun_20_1903,MFTM_A_new1021,2021.2.3,59.472443739126206,
0.6,0.6,0.6,-0.6,-0.6,right,3:2,R,,,,,,,,,,,1,0,2,0,,,,,,,,,,,,,,,,,,,,,,,,,,,41.815956500009634,None,41.815956500009634,None,41.815956500009634,None,41.815956500009634,None,41.815956500009634,None,41.815956500009634,None,right,1,2.260672500007786,41.815956500009634,None,44.10262800002238,None,,,,,,,,,,,,,,,,,,,,,,,,,,,,,,,,,,,,,,,,,,,,,,,,,,,,,,,,,,12014,001,2024_Jun_20_1903,MFTM_A_new1021,2021.2.3,59.472443739126206,
-0.6,-0.6,-0.6,0.6,0.6,left,3:2,L,,,,,,,,,,,1,1,3,1,,,,,,,,,,,,,,,,,,,,,,,,,,,44.85326380003244,None,44.85326380003244,None,44.85326380003244,None,44.85326380003244,None,44.85326380003244,None,44.85326380003244,None,left,1,1.4714793000021018,44.85326380003244,None,46.35562899999786,None,,,,,,,,,,,,,,,,,,,,,,,,,,,,,,,,,,,,,,,,,,,,,,,,,,,,,,,,,,12014,001,2024_Jun_20_1903,MFTM_A_new1021,2021.2.3,59.472443739126206,
,,,,,,,,stim/Instruction_mask.png,conditions/adaptive.xlsx,practice,0.6,0.6,0.6,-0.6,-0.6,right,R,,,,,0,0,0,0,0,0,0,72,,,,,,,,,,,,,,,,,,,,,,,,,,,,,,,,,,,,,,47.49034299998311,None,space,22.01073780003935,47.49034299998311,None,69.59023179998621,None,right,1,2.6999273999826983,70.04145800002152,None,70.04145800002152,73.0459484999883,70.04145800002152,73.0459484999883,70.04145800002152,73.0459484999883,70.04145800002152,73.0459484999883,70.04145800002152,73.0459484999883,73.02902940002969,73.53000610001618,73.02902940002969,73.53000610001618,73.02902940002969,73.53000610001618,73.02902940002969,73.53000610001618,73.02902940002969,73.53000610001618,73.02902940002969,73.53000610001618,73.02902940002969,73.53000610001618,73.02902940002969,73.53000610001618,70.04145800002152,None,73.53000610001618,73.53000610001618,3,73.54663609998534,None,74.29780050000409,None,,,,,,,,,,12014,001,2024_Jun_20_1903,MFTM_A_new1021,2021.2.3,59.472443739126206,
,,,,,,,,stim/Instruction_mask.png,conditions/adaptive.xlsx,practice,-0.6,-0.6,-0.6,0.6,0.6,left,L,,,,,0,0,0,0,0,1,1,75,,,,,,,,,,,,,,,,,,,,,,,,,,,,,,,,,,,,,,,,,,,,74.79855210002279,None,left,1,1.1466565000009723,75.29921359999571,77.3021485999925,75.29921359999571,76.80134920001728,75.29921359999571,76.80134920001728,75.29921359999571,76.80134920001728,75.29921359999571,76.80134920001728,75.29921359999571,76.80134920001728,76.78482709999662,77.28572430001805,76.78482709999662,77.28572430001805,76.78482709999662,77.28572430001805,76.78482709999662,77.28572430001805,76.78482709999662,77.28572430001805,76.78482709999662,77.28572430001805,76.78482709999662,77.28572430001805,76.78482709999662,77.28572430001805,75.29921359999571,None,77.28572430001805,78.78917900001397,1.5,78.80459499999415,None,79.55563040002016,None,,,,,,,,,,12014,001,2024_Jun_20_1903,MFTM_A_new1021,2021.2.3,59.472443739126206,
,,,,,,,,stim/Instruction_mask.png,conditions/adaptive.xlsx,practice,0.6,0.6,0.6,-0.6,-0.6,right,R,,,,,0,0,0,0,0,2,2,44,,,,,,,,,,,,,,,,,,,,,,,,,,,,,,,,,,,,,,,,,,,,80.05637820000993,None,right,1,1.1919993999763392,80.55768530000933,81.86058989999583,80.55768530000933,81.35923050000565,80.55768530000933,81.35923050000565,80.55768530000933,81.35923050000565,80.55768530000933,81.35923050000565,80.55768530000933,81.35923050000565,81.34169020003174,81.84250570001313,81.34169020003174,81.84250570001313,81.34169020003174,81.84250570001313,81.34169020003174,81.84250570001313,81.34169020003174,81.84250570001313,81.34169020003174,81.84250570001313,81.34169020003174,81.84250570001313,81.34169020003174,81.84250570001313,80.55768530000933,None,81.84250570001313,84.04585410002619,0.8,84.06262919999426,None,84.81365660001757,None,,,,,,,,,,12014,001,2024_Jun_20_1903,MFTM_A_new1021,2021.2.3,59.472443739126206,
,,,,,,,,stim/Instruction_mask.png,conditions/adaptive.xlsx,practice,0.6,0.6,0.6,-0.6,-0.6,right,R,,,,,0,0,0,0,0,3,3,58,,,,,,,,,,,,,,,,,,,,,,,,,,,,,,,,,,,,,,,,,,,,85.31431889999658,None,right,1,0.9507251000031829,85.81517180002993,86.56627280003158,85.81517180002993,86.0656068000244,85.81517180002993,86.0656068000244,85.81517180002993,86.0656068000244,85.81517180002993,86.0656068000244,85.81517180002993,86.0656068000244,86.04880749998847,86.54952840000624,86.04880749998847,86.54952840000624,86.04880749998847,86.54952840000624,86.04880749998847,86.54952840000624,86.04880749998847,86.54952840000624,86.04880749998847,86.54952840000624,86.04880749998847,86.54952840000624,86.04880749998847,86.54952840000624,85.81517180002993,None,86.54952840000624,89.30393970001023,3,89.32209219998913,None,90.07158170000184,None,,,,,,,,,,12014,001,2024_Jun_20_1903,MFTM_A_new1021,2021.2.3,59.472443739126206,
,,,,,,,,stim/Instruction_mask.png,conditions/adaptive.xlsx,practice,,,,,,,,,,,,0,0,0,0,,,,,,,,,,,,,,,,,,,,,,,,,,,,,,,,,,,,,,,,,,,,,,,,,,,,,,,,,,,,,,,,,,,,,,,,,,,,,,,,,,,,,,,,,,90.58864199998789,91.59166420000838,91.57404069998302,91.57404069998302,91.57404069998302,None,,,,12014,001,2024_Jun_20_1903,MFTM_A_new1021,2021.2.3,59.472443739126206,
,,,,,,,,stim/Instruction_adaptive.png,conditions/adaptive.xlsx,test,0.6,0.6,0.6,-0.6,-0.6,right,R,,,,,0,1,1,1,0,0,0,54,,,,,,,,,,,,,,,,,,,,,,,,,,,,,,,,,,,,,,94.79510960000334,None,space,7.522795500000939,94.79510960000334,None,102.37399679998634,None,right,1,2.6691106999642216,102.8574461999815,None,102.8574461999815,105.86201410001377,102.8574461999815,105.86201410001377,102.8574461999815,105.86201410001377,102.8574461999815,105.86201410001377,102.8574461999815,105.86201410001377,105.84555530000944,106.34613540000282,105.84555530000944,106.34613540000282,105.84555530000944,106.34613540000282,105.84555530000944,106.34613540000282,105.84555530000944,106.34613540000282,105.84555530000944,106.34613540000282,105.84555530000944,106.34613540000282,105.84555530000944,106.34613540000282,102.8574461999815,None,106.34613540000282,106.34613540000282,3,106.36304610001389,None,107.11382979998598,None,,,,,,,0,6.000000000000005,1.0,12014,001,2024_Jun_20_1903,MFTM_A_new1021,2021.2.3,59.472443739126206,
,,,,,,,,stim/Instruction_adaptive.png,conditions/adaptive.xlsx,test,0.6,0.6,0.6,-0.6,-0.6,right,R,,,,,0,1,1,1,0,1,1,56,,,,,,,,,,,,,,,,,,,,,,,,,,,,,,,,,,,,,,,,,,,,107.6146705999854,None,left,0,1.1069779999670573,108.11529530002736,108.86733410001034,108.11529530002736,108.36579880001955,108.11529530002736,108.36579880001955,108.11529530002736,108.36579880001955,108.11529530002736,108.36579880001955,108.11529530002736,108.36579880001955,108.34912189998431,108.84972380002728,108.34912189998431,108.84972380002728,108.34912189998431,108.84972380002728,108.34912189998431,108.84972380002728,108.34912189998431,108.84972380002728,108.34912189998431,108.84972380002728,108.34912189998431,108.84972380002728,108.34912189998431,108.84972380002728,108.11529530002736,None,108.84972380002728,109.73461310000857,0.25,109.76941539999098,None,110.51890710002044,None,,,,,,,[0.875],2.570000000000002,0.5,12014,001,2024_Jun_20_1903,MFTM_A_new1021,2021.2.3,59.472443739126206,
,,,,,,,,stim/Instruction_adaptive.png,conditions/adaptive.xlsx,test,0.6,0.6,0.6,-0.6,-0.6,right,R,,,,,0,1,1,1,0,2,2,58,,,,,,,,,,,,,,,,,,,,,,,,,,,,,,,,,,,,,,,,,,,,111.02079370000865,None,right,1,1.414941800001543,111.50405960000353,113.12303279998014,111.50405960000353,112.62221780000255,111.50405960000353,112.62221780000255,111.50405960000353,112.62221780000255,111.50405960000353,112.62221780000255,111.50405960000353,112.62221780000255,112.58889449998969,113.08931150002172,112.58889449998969,113.08931150002172,112.58889449998969,113.08931150002172,112.58889449998969,113.08931150002172,112.58889449998969,113.08931150002172,112.58889449998969,113.08931150002172,112.58889449998969,113.08931150002172,112.58889449998969,113.08931150002172,111.50405960000353,None,113.08931150002172,114.14130980003392,1.1100000000000008,114.17524220002815,None,114.92553890001727,None,,,,,,,[1.04666667],3.3800000000000026,0.6666666666666666,12014,001,2024_Jun_20_1903,MFTM_A_new1021,2021.2.3,59.472443739126206,
,,,,,,,,stim/Instruction_adaptive.png,conditions/adaptive.xlsx,test,-0.6,-0.6,-0.6,0.6,0.6,left,L,,,,,0,1,1,1,0,3,3,13,,,,,,,,,,,,,,,,,,,,,,,,,,,,,,,,,,,,,,,,,,,,115.42673080001259,None,left,1,1.1430535999825224,115.92770140001085,117.0623282000306,115.92770140001085,116.5614387000096,115.92770140001085,116.5614387000096,115.92770140001085,116.5614387000096,115.92770140001085,116.5614387000096,115.92770140001085,116.5614387000096,116.54476040002191,117.04729240003508,116.54476040002191,117.04729240003508,116.54476040002191,117.04729240003508,116.54476040002191,117.04729240003508,116.54476040002191,117.04729240003508,116.54476040002191,117.04729240003508,116.54476040002191,117.04729240003508,116.54476040002191,117.04729240003508,115.92770140001085,None,117.04729240003508,None,0.6300000000000003,118.31415450002532,None,119.06533920002403,None,,,,,,,[1.2525],3.940000000000003,0.75,12014,001,2024_Jun_20_1903,MFTM_A_new1021,2021.2.3,59.472443739126206,
,,,,,,,,stim/Instruction_adaptive.png,conditions/adaptive.xlsx,test,0.6,0.6,0.6,-0.6,-0.6,right,R,,,,,0,1,1,1,0,4,4,78,,,,,,,,,,,,,,,,,,,,,,,,,,,,,,,,,,,,,,,,,,,,119.56735249998746,None,left,0,1.0602415000321344,120.06669900001725,121.00251890002983,120.06669900001725,120.50073999998858,120.06669900001725,120.50073999998858,120.06669900001725,120.50073999998858,120.06669900001725,120.50073999998858,120.06669900001725,120.50073999998858,120.48520920000738,120.98553930001799,120.48520920000738,120.98553930001799,120.48520920000738,120.98553930001799,120.48520920000738,120.98553930001799,120.48520920000738,120.98553930001799,120.48520920000738,120.98553930001799,120.48520920000738,120.98553930001799,120.48520920000738,120.98553930001799,120.06669900001725,None,120.98553930001799,122.40368350001518,0.43000000000000016,122.42030470003374,None,123.17141330003506,None,,,,,,,[1.416],2.960000000000002,0.6,12014,001,2024_Jun_20_1903,MFTM_A_new1021,2021.2.3,59.472443739126206,
,,,,,,,,stim/Instruction_adaptive.png,conditions/adaptive.xlsx,test,-0.6,-0.6,-0.6,0.6,0.6,left,L,,,,,0,1,1,1,0,5,5,9,,,,,,,,,,,,,,,,,,,,,,,,,,,,,,,,,,,,,,,,,,,,123.6723270000075,None,left,1,1.1859613000415266,124.17287190002389,125.52518330002204,124.17287190002389,125.02443480002694,124.17287190002389,125.02443480002694,124.17287190002389,125.02443480002694,124.17287190002389,125.02443480002694,124.17287190002389,125.02443480002694,125.0076807999867,125.50843260000693,125.0076807999867,125.50843260000693,125.0076807999867,125.50843260000693,125.0076807999867,125.50843260000693,125.0076807999867,125.50843260000693,125.0076807999867,125.50843260000693,125.0076807999867,125.50843260000693,125.0076807999867,125.50843260000693,124.17287190002389,None,125.50843260000693,None,0.8500000000000005,126.9771837000153,None,127.72838809998939,None,,,,,,,[1.455],3.3600000000000025,0.6666666666666666,12014,001,2024_Jun_20_1903,MFTM_A_new1021,2021.2.3,59.472443739126206,
,,,,,,,,stim/Instruction_adaptive.png,conditions/adaptive.xlsx,test,-0.6,-0.6,-0.6,0.6,0.6,left,L,,,,,0,1,1,1,0,6,6,23,,,,,,,,,,,,,,,,,,,,,,,,,,,,,,,,,,,,,,,,,,,,128.22901050001383,None,right,0,1.5414236999931745,128.7298159999773,129.88156200002413,128.7298159999773,129.38082140003098,128.7298159999773,129.38082140003098,128.7298159999773,129.38082140003098,128.7298159999773,129.38082140003098,128.7298159999773,129.38082140003098,129.34749110002303,129.848538500024,129.34749110002303,129.848538500024,129.34749110002303,129.848538500024,129.34749110002303,129.848538500024,129.34749110002303,129.848538500024,129.34749110002303,129.848538500024,129.34749110002303,129.848538500024,129.34749110002303,129.848538500024,128.7298159999773,None,129.848538500024,131.36722240003292,0.6400000000000003,131.3838694000151,None,132.13510240003234,None,,,,,,,[1.51285714],2.540000000000002,0.5714285714285714,12014,001,2024_Jun_20_1903,MFTM_A_new1021,2021.2.3,59.472443739126206,
,,,,,,,,stim/Instruction_adaptive.png,conditions/adaptive.xlsx,test,0.6,0.6,0.6,-0.6,-0.6,right,R,,,,,0,1,1,1,0,7,7,2,,,,,,,,,,,,,,,,,,,,,,,,,,,,,,,,,,,,,,,,,,,,132.63569149997784,None,right,1,1.4548854000167921,133.13654249999672,134.7721646000282,133.13654249999672,134.2715576000046,133.13654249999672,134.2715576000046,133.13654249999672,134.2715576000046,133.13654249999672,134.2715576000046,133.13654249999672,134.2715576000046,134.25480980001157,134.7556091999868,134.25480980001157,134.7556091999868,134.25480980001157,134.7556091999868,134.25480980001157,134.7556091999868,134.25480980001157,134.7556091999868,134.25480980001157,134.7556091999868,134.25480980001157,134.7556091999868,134.25480980001157,134.7556091999868,133.13654249999672,None,134.7556091999868,None,1.1300000000000008,136.1413629000308,None,136.8921722000232,None,,,,,,,[[1.37]],2.880000000000002,0.625,12014,001,2024_Jun_20_1903,MFTM_A_new1021,2021.2.3,59.472443739126206,
,,,,,,,,stim/Instruction_adaptive.png,conditions/adaptive.xlsx,test,-0.6,-0.6,-0.6,0.6,0.6,left,L,,,,,0,1,1,1,0,8,8,69,,,,,,,,,,,,,,,,,,,,,,,,,,,,,,,,,,,,,,,,,,,,137.39280309999594,None,right,0,1.4499671999947168,137.89369649998844,139.29597139998805,137.89369649998844,138.79479399998672,137.89369649998844,138.79479399998672,137.89369649998844,138.79479399998672,137.89369649998844,138.79479399998672,137.89369649998844,138.79479399998672,138.7615101999836,139.26241259998642,138.7615101999836,139.26241259998642,138.7615101999836,139.26241259998642,138.7615101999836,139.26241259998642,138.7615101999836,139.26241259998642,138.7615101999836,139.26241259998642,138.7615101999836,139.26241259998642,138.7615101999836,139.26241259998642,137.89369649998844,None,139.26241259998642,140.7812173999846,0.8900000000000006,140.7974244999932,None,141.54923860001145,None,,,,,,,[1.50777778],2.1200000000000014,0.5555555555555556,12014,001,2024_Jun_20_1903,MFTM_A_new1021,2021.2.3,59.472443739126206,
,,,,,,,,stim/Instruction_adaptive.png,conditions/adaptive.xlsx,test,-0.6,-0.6,-0.6,0.6,0.6,left,L,,,,,0,1,1,1,0,9,9,59,,,,,,,,,,,,,,,,,,,,,,,,,,,,,,,,,,,,,,,,,,,,142.04980189999333,None,left,1,1.9925706999492832,142.55102449998958,144.57045240001753,142.55102449998958,144.06986320001306,142.55102449998958,144.06986320001306,142.55102449998958,144.06986320001306,142.55102449998958,144.06986320001306,142.55102449998958,144.06986320001306,144.03634490002878,144.5376386999851,144.03634490002878,144.5376386999851,144.03634490002878,144.5376386999851,144.03634490002878,144.5376386999851,144.03634490002878,144.5376386999851,144.03634490002878,144.5376386999851,144.03634490002878,144.5376386999851,144.03634490002878,144.5376386999851,142.55102449998958,None,144.5376386999851,145.53954959998373,1.5100000000000011,145.5550570000196,None,146.3061619999935,None,,,,,,,[[0.99]],2.4400000000000017,0.6,12014,001,2024_Jun_20_1903,MFTM_A_new1021,2021.2.3,59.472443739126206,
,,,,,,,,stim/Instruction_adaptive.png,conditions/adaptive.xlsx,test,-0.6,-0.6,-0.6,0.6,0.6,left,L,,,,,0,1,1,1,0,10,10,27,,,,,,,,,,,,,,,,,,,,,,,,,,,,,,,,,,,,,,,,,,,,146.807726500032,None,left,1,2.0520143000176176,147.30779190000612,149.02743980003288,147.30779190000612,148.5263898000121,147.30779190000612,148.5263898000121,147.30779190000612,148.5263898000121,147.30779190000612,148.5263898000121,147.30779190000612,148.5263898000121,148.50960180000402,149.01072279998334,148.50960180000402,149.01072279998334,148.50960180000402,149.01072279998334,148.50960180000402,149.01072279998334,148.50960180000402,149.01072279998334,148.50960180000402,149.01072279998334,148.50960180000402,149.01072279998334,148.50960180000402,149.01072279998334,147.30779190000612,None,148.9937342000194,150.29564259998733,1.2100000000000009,150.31219969998347,None,151.06405450002057,None,,,,,,,[[1.29]],2.680000000000002,0.6363636363636364,12014,001,2024_Jun_20_1903,MFTM_A_new1021,2021.2.3,59.472443739126206,
,,,,,,,,stim/Instruction_adaptive.png,conditions/adaptive.xlsx,test,-0.6,-0.6,-0.6,0.6,0.6,left,L,,,,,0,1,1,1,0,11,11,33,,,,,,,,,,,,,,,,,,,,,,,,,,,,,,,,,,,,,,,,,,,,151.56426590000046,None,right,0,1.7904483000165783,152.06507760001114,153.60055899998406,152.06507760001114,153.0997324999771,152.06507760001114,153.0997324999771,152.06507760001114,153.0997324999771,152.06507760001114,153.0997324999771,152.06507760001114,153.0997324999771,153.0839616000303,153.58399070001906,153.0839616000303,153.58399070001906,153.0839616000303,153.58399070001906,153.0839616000303,153.58399070001906,153.0839616000303,153.58399070001906,153.0839616000303,153.58399070001906,153.0839616000303,153.58399070001906,153.0839616000303,153.58399070001906,152.06507760001114,None,153.58399070001906,None,1.0300000000000007,155.05368680000538,None,155.8047571000061,None,,,,,,,[1.44333333],2.1000000000000014,0.5833333333333334,12014,001,2024_Jun_20_1903,MFTM_A_new1021,2021.2.3,59.472443739126206,
,,,,,,,,stim/Instruction_adaptive.png,conditions/adaptive.xlsx,test,0.6,0.6,0.6,-0.6,-0.6,right,R,,,,,0,1,1,1,0,12,12,0,,,,,,,,,,,,,,,,,,,,,,,,,,,,,,,,,,,,,,,,,,,,156.305535099993,None,right,1,1.9379557999782264,156.80564209999284,158.8418829999864,156.80564209999284,158.34123249998083,156.80564209999284,158.34123249998083,156.80564209999284,158.34123249998083,156.80564209999284,158.34123249998083,156.80564209999284,158.34123249998083,158.3077415000298,158.8084582000156,158.3077415000298,158.8084582000156,158.3077415000298,158.8084582000156,158.3077415000298,158.8084582000156,158.3077415000298,158.8084582000156,158.3077415000298,158.8084582000156,158.3077415000298,158.8084582000156,158.3077415000298,158.8084582000156,156.80564209999284,None,158.8084582000156,159.79325350001454,1.5300000000000011,159.8106958999997,None,160.56195760000264,None,,,,,,,[[0.97]],2.3400000000000016,0.6153846153846154,12014,001,2024_Jun_20_1903,MFTM_A_new1021,2021.2.3,59.472443739126206,
,,,,,,,,stim/Instruction_adaptive.png,conditions/adaptive.xlsx,test,0.6,0.6,0.6,-0.6,-0.6,right,R,,,,,0,1,1,1,0,13,13,64,,,,,,,,,,,,,,,,,,,,,,,,,,,,,,,,,,,,,,,,,,,,161.06238790001953,None,right,1,1.6534615999553353,161.56260280002607,163.36534710001433,161.56260280002607,162.86467199999606,161.56260280002607,162.86467199999606,161.56260280002607,162.86467199999606,161.56260280002607,162.86467199999606,161.56260280002607,162.86467199999606,162.84814610000467,163.34856270003365,162.84814610000467,163.34856270003365,162.84814610000467,163.34856270003365,162.84814610000467,163.34856270003365,162.84814610000467,163.34856270003365,162.84814610000467,163.34856270003365,162.84814610000467,163.34856270003365,162.84814610000467,163.34856270003365,161.56260280002607,None,163.34856270003365,164.55119369999738,1.300000000000001,164.567378000007,None,165.3183524000342,None,,,,,,,[[1.2]],2.520000000000002,0.6428571428571429,12014,001,2024_Jun_20_1903,MFTM_A_new1021,2021.2.3,59.472443739126206,
,,,,,,,,stim/Instruction_adaptive.png,conditions/adaptive.xlsx,test,-0.6,-0.6,-0.6,0.6,0.6,left,L,,,,,0,1,1,1,0,14,14,17,,,,,,,,,,,,,,,,,,,,,,,,,,,,,,,,,,,,,,,,,,,,165.8201419999823,None,right,0,1.5117691999766976,166.32062690000748,167.97222220001277,166.32062690000748,167.4715794000076,166.32062690000748,167.4715794000076,166.32062690000748,167.4715794000076,166.32062690000748,167.4715794000076,166.32062690000748,167.4715794000076,167.4549109999789,167.95539890002692,167.4549109999789,167.95539890002692,167.4549109999789,167.95539890002692,167.4549109999789,167.95539890002692,167.4549109999789,167.95539890002692,167.4549109999789,167.95539890002692,167.4549109999789,167.95539890002692,167.4549109999789,167.95539890002692,166.32062690000748,None,167.95539890002692,169.30818709998857,1.1500000000000008,169.32434719998855,None,170.0757949000108,None,,,,,,,[[1.35]],2.0400000000000014,0.6,12014,001,2024_Jun_20_1903,MFTM_A_new1021,2021.2.3,59.472443739126206,
,,,,,,,,stim/Instruction_adaptive.png,conditions/adaptive.xlsx,test,0.6,0.6,0.6,-0.6,-0.6,right,R,,,,,0,1,1,1,0,15,15,16,,,,,,,,,,,,,,,,,,,,,,,,,,,,,,,,,,,,,,,,,,,,170.57625919999555,None,right,1,1.5468469000188634,171.07719600002747,173.18016669998178,171.07719600002747,172.67941209999844,171.07719600002747,172.67941209999844,171.07719600002747,172.67941209999844,171.07719600002747,172.67941209999844,171.07719600002747,172.67941209999844,172.6627937000012,173.16351670003496,172.6627937000012,173.16351670003496,172.6627937000012,173.16351670003496,172.6627937000012,173.16351670003496,172.6627937000012,173.16351670003496,172.6627937000012,173.16351670003496,172.6627937000012,173.16351670003496,172.6627937000012,173.16351670003496,171.07719600002747,None,173.16351670003496,174.06484000000637,1.6000000000000012,174.08158900000853,None,174.8326545000309,None,,,,,,,[[0.9]],2.2300000000000013,0.625,12014,001,2024_Jun_20_1903,MFTM_A_new1021,2021.2.3,59.472443739126206,
,,,,,,,,stim/Instruction_adaptive.png,conditions/adaptive.xlsx,test,0.6,0.6,0.6,-0.6,-0.6,right,R,,,,,0,1,1,1,0,16,16,74,,,,,,,,,,,,,,,,,,,,,,,,,,,,,,,,,,,,,,,,,,,,175.33344560000114,None,right,1,1.8060132000246085,175.83426620002137,177.73708079999778,175.83426620002137,177.23637280002004,175.83426620002137,177.23637280002004,175.83426620002137,177.23637280002004,175.83426620002137,177.23637280002004,175.83426620002137,177.23637280002004,177.21962560003158,177.7203087999951,177.21962560003158,177.7203087999951,177.21962560003158,177.7203087999951,177.21962560003158,177.7203087999951,177.21962560003158,177.7203087999951,177.21962560003158,177.7203087999951,177.21962560003158,177.7203087999951,177.21962560003158,177.7203087999951,175.83426620002137,None,177.7203087999951,178.82191100000637,1.400000000000001,178.83878679998452,None,179.58987409999827,None,,,,,,,[[1.1]],2.3900000000000015,0.6470588235294118,12014,001,2024_Jun_20_1903,MFTM_A_new1021,2021.2.3,59.472443739126206,
,,,,,,,,stim/Instruction_adaptive.png,conditions/adaptive.xlsx,test,0.6,0.6,0.6,-0.6,-0.6,right,R,,,,,0,1,1,1,0,17,17,88,,,,,,,,,,,,,,,,,,,,,,,,,,,,,,,,,,,,,,,,,,,,180.0914075000328,None,right,1,1.585010599985253,180.59202650003135,182.3606566999806,180.59202650003135,181.85993690002942,180.59202650003135,181.85993690002942,180.59202650003135,181.85993690002942,180.59202650003135,181.85993690002942,180.59202650003135,181.85993690002942,181.82664230000228,182.3274479000247,181.82664230000228,182.3274479000247,181.82664230000228,182.3274479000247,181.82664230000228,182.3274479000247,181.82664230000228,182.3274479000247,181.82664230000228,182.3274479000247,181.82664230000228,182.3274479000247,181.82664230000228,182.3274479000247,180.59202650003135,None,182.3274479000247,183.5792681000312,1.260000000000001,183.59591259999434,None,184.34695660002762,None,,,,,,,[[1.24]],2.520000000000002,0.6666666666666666,12014,001,2024_Jun_20_1903,MFTM_A_new1021,2021.2.3,59.472443739126206,
,,,,,,,,stim/Instruction_adaptive.png,conditions/adaptive.xlsx,test,-0.6,-0.6,-0.6,0.6,0.6,left,L,,,,,0,1,1,1,0,18,18,81,,,,,,,,,,,,,,,,,,,,,,,,,,,,,,,,,,,,,,,,,,,,184.8488693999825,None,left,1,1.8600175000028685,185.34851330000674,187.0009316999931,185.34851330000674,186.50028680003015,185.34851330000674,186.50028680003015,185.34851330000674,186.50028680003015,185.34851330000674,186.50028680003015,185.34851330000674,186.50028680003015,186.48357859998941,186.98437950003427,186.48357859998941,186.98437950003427,186.48357859998941,186.98437950003427,186.48357859998941,186.98437950003427,186.48357859998941,186.98437950003427,186.48357859998941,186.98437950003427,186.48357859998941,186.98437950003427,186.48357859998941,186.98437950003427,185.34851330000674,None,186.98437950003427,None,1.1500000000000008,188.33638100000098,None,189.0882319000084,None,,,,,,,[1.33842105],2.6300000000000017,0.6842105263157895,12014,001,2024_Jun_20_1903,MFTM_A_new1021,2021.2.3,59.472443739126206,
,,,,,,,,stim/Instruction_adaptive.png,conditions/adaptive.xlsx,test,0.6,0.6,0.6,-0.6,-0.6,right,R,,,,,0,1,1,1,0,19,19,36,,,,,,,,,,,,,,,,,,,,,,,,,,,,,,,,,,,,,,,,,,,,189.58891120000044,None,right,1,1.4874138999730349,190.0893686999916,191.65814240003238,190.0893686999916,191.15737329999683,190.0893686999916,191.15737329999683,190.0893686999916,191.15737329999683,190.0893686999916,191.15737329999683,190.0893686999916,191.15737329999683,191.12385909998557,191.62532930000452,191.12385909998557,191.62532930000452,191.12385909998557,191.62532930000452,191.12385909998557,191.62532930000452,191.12385909998557,191.62532930000452,191.12385909998557,191.62532930000452,191.12385909998557,191.62532930000452,191.12385909998557,191.62532930000452,190.0893686999916,None,191.62532930000452,192.97663250000915,1.0600000000000007,192.99336040002527,None,193.7453168000211,None,,,,,,,[1.3435],2.730000000000002,0.7,12014,001,2024_Jun_20_1903,MFTM_A_new1021,2021.2.3,59.472443739126206,
,,,,,,,,stim/Instruction_adaptive.png,conditions/adaptive.xlsx,test,-0.6,-0.6,-0.6,0.6,0.6,left,L,,,,,0,1,1,1,0,20,20,61,,,,,,,,,,,,,,,,,,,,,,,,,,,,,,,,,,,,,,,,,,,,194.24527469999157,None,left,1,1.5585878000129014,194.74613220000174,196.2488136999891,194.74613220000174,195.74769029999152,194.74613220000174,195.74769029999152,194.74613220000174,195.74769029999152,194.74613220000174,195.74769029999152,194.74613220000174,195.74769029999152,195.71414629998617,196.2158316000132,195.71414629998617,196.2158316000132,195.71414629998617,196.2158316000132,195.71414629998617,196.2158316000132,195.71414629998617,196.2158316000132,195.71414629998617,196.2158316000132,195.71414629998617,196.2158316000132,195.71414629998617,196.2158316000132,194.74613220000174,None,196.2158316000132,197.56694029999198,0.9900000000000007,197.6002240999951,None,198.35160110000288,None,,,,,,,[1.35142857],2.830000000000002,0.7142857142857143,12014,001,2024_Jun_20_1903,MFTM_A_new1021,2021.2.3,59.472443739126206,
,,,,,,,,stim/Instruction_adaptive.png,conditions/adaptive.xlsx,test,0.6,0.6,0.6,-0.6,-0.6,right,R,,,,,0,1,1,1,0,21,21,40,,,,,,,,,,,,,,,,,,,,,,,,,,,,,,,,,,,,,,,,,,,,198.8521092000301,None,right,1,1.5280504999682307,199.35295610001776,200.78837520000525,199.35295610001776,200.2879420000245,199.35295610001776,200.2879420000245,199.35295610001776,200.2879420000245,199.35295610001776,200.2879420000245,199.35295610001776,200.2879420000245,200.27122749999398,200.7720427000313,200.27122749999398,200.7720427000313,200.27122749999398,200.7720427000313,200.27122749999398,200.7720427000313,200.27122749999398,200.7720427000313,200.27122749999398,200.7720427000313,200.27122749999398,200.7720427000313,200.27122749999398,200.7720427000313,199.35295610001776,None,200.7720427000313,202.1408196000266,0.9300000000000006,202.1571901999996,None,202.90841690002708,None,,,,,,,[1.36136364],2.910000000000002,0.7272727272727273,12014,001,2024_Jun_20_1903,MFTM_A_new1021,2021.2.3,59.472443739126206,
,,,,,,,,stim/Instruction_adaptive.png,conditions/adaptive.xlsx,test,0.6,0.6,0.6,-0.6,-0.6,right,R,,,,,0,1,1,1,0,22,22,60,,,,,,,,,,,,,,,,,,,,,,,,,,,,,,,,,,,,,,,,,,,,203.41047170001548,None,right,1,1.5391299999901094,203.90985360002378,205.29574730002787,203.90985360002378,204.79459060000954,203.90985360002378,204.79459060000954,203.90985360002378,204.79459060000954,203.90985360002378,204.79459060000954,203.90985360002378,204.79459060000954,204.7777606000309,205.2793696000008,204.7777606000309,205.2793696000008,204.7777606000309,205.2793696000008,204.7777606000309,205.2793696000008,204.7777606000309,205.2793696000008,204.7777606000309,205.2793696000008,204.7777606000309,205.2793696000008,204.7777606000309,205.2793696000008,203.90985360002378,None,205.2793696000008,None,0.8800000000000006,206.66390360001242,None,207.41505820001476,None,,,,,,,[1.3726087],2.990000000000002,0.7391304347826086,12014,001,2024_Jun_20_1903,MFTM_A_new1021,2021.2.3,59.472443739126206,
,,,,,,,,stim/Instruction_adaptive.png,conditions/adaptive.xlsx,test,0.6,0.6,0.6,-0.6,-0.6,right,R,,,,,0,1,1,1,0,23,23,44,,,,,,,,,,,,,,,,,,,,,,,,,,,,,,,,,,,,,,,,,,,,207.91568490001373,None,right,1,1.496798200008925,208.41668060002849,209.75191669998458,208.41668060002849,209.25113500002772,208.41668060002849,209.25113500002772,208.41668060002849,209.25113500002772,208.41668060002849,209.25113500002772,208.41668060002849,209.25113500002772,209.2345155000221,209.73521680000704,209.2345155000221,209.73521680000704,209.2345155000221,209.73521680000704,209.2345155000221,209.73521680000704,209.2345155000221,209.73521680000704,209.2345155000221,209.73521680000704,209.2345155000221,209.73521680000704,209.2345155000221,209.73521680000704,208.41668060002849,None,209.73521680000704,211.12095990002854,0.8300000000000005,211.13742769998498,None,211.88864180003293,None,,,,,,,[1.385],3.0600000000000023,0.75,12014,001,2024_Jun_20_1903,MFTM_A_new1021,2021.2.3,59.472443739126206,
,,,,,,,,stim/Instruction_adaptive.png,conditions/adaptive.xlsx,test,-0.6,-0.6,-0.6,0.6,0.6,left,L,,,,,0,1,1,1,0,24,24,85,,,,,,,,,,,,,,,,,,,,,,,,,,,,,,,,,,,,,,,,,,,,212.38925700000254,None,left,1,1.7198543000267819,212.88994500000263,214.19213939999463,212.88994500000263,213.6915136000025,212.88994500000263,213.6915136000025,212.88994500000263,213.6915136000025,212.88994500000263,213.6915136000025,212.88994500000263,213.6915136000025,213.6579603999853,214.15849430003436,213.6579603999853,214.15849430003436,213.6579603999853,214.15849430003436,213.6579603999853,214.15849430003436,213.6579603999853,214.15849430003436,213.6579603999853,214.15849430003436,213.6579603999853,214.15849430003436,213.6579603999853,214.15849430003436,212.88994500000263,None,214.15849430003436,215.56167820002884,0.7900000000000005,215.57779619999928,None,216.32905010000104,None,,,,,,,[1.398],3.1300000000000026,0.76,12014,001,2024_Jun_20_1903,MFTM_A_new1021,2021.2.3,59.472443739126206,
,,,,,,,,stim/Instruction_adaptive.png,conditions/adaptive.xlsx,test,-0.6,-0.6,-0.6,0.6,0.6,left,L,,,,,0,1,1,1,0,25,25,89,,,,,,,,,,,,,,,,,,,,,,,,,,,,,,,,,,,,,,,,,,,,216.82937340001808,None,left,1,1.3752688000095077,217.3302295000176,218.58289950003382,217.3302295000176,218.08112500002608,217.3302295000176,218.08112500002608,217.3302295000176,218.08112500002608,217.3302295000176,218.08112500002608,217.3302295000176,218.08112500002608,218.0645609999774,218.56515410001157,218.0645609999774,218.56515410001157,218.0645609999774,218.56515410001157,218.0645609999774,218.56515410001157,218.0645609999774,218.56515410001157,218.0645609999774,218.56515410001157,218.0645609999774,218.56515410001157,218.0645609999774,218.56515410001157,217.3302295000176,None,218.56515410001157,219.98509560001548,0.7500000000000004,220.00218070001574,None,220.75276699999813,None,,,,,,,[1.41153846],3.190000000000002,0.7692307692307693,12014,001,2024_Jun_20_1903,MFTM_A_new1021,2021.2.3,59.472443739126206,
,,,,,,,,stim/Instruction_adaptive.png,conditions/adaptive.xlsx,test,-0.6,-0.6,-0.6,0.6,0.6,left,L,,,,,0,1,1,1,0,26,26,71,,,,,,,,,,,,,,,,,,,,,,,,,,,,,,,,,,,,,,,,,,,,221.25321330002043,None,right,0,1.5846366999903694,221.75336770003196,222.98865760001354,221.75336770003196,222.48863139998866,221.75336770003196,222.48863139998866,221.75336770003196,222.48863139998866,221.75336770003196,222.48863139998866,221.75336770003196,222.48863139998866,222.45434090000344,222.9551821000059,222.45434090000344,222.9551821000059,222.45434090000344,222.9551821000059,222.45434090000344,222.9551821000059,222.45434090000344,222.9551821000059,222.45434090000344,222.9551821000059,222.45434090000344,222.9551821000059,222.45434090000344,222.9551821000059,221.75336770003196,None,222.9551821000059,224.3907465999946,0.7200000000000004,224.40743459999794,None,225.159436499991,None,,,,,,,[1.42518519],3.0100000000000025,0.7407407407407407,12014,001,2024_Jun_20_1903,MFTM_A_new1021,2021.2.3,59.472443739126206,
,,,,,,,,stim/Instruction_adaptive.png,conditions/adaptive.xlsx,test,-0.6,-0.6,-0.6,0.6,0.6,left,L,,,,,0,1,1,1,0,27,27,73,,,,,,,,,,,,,,,,,,,,,,,,,,,,,,,,,,,,,,,,,,,,225.65939829999115,None,right,0,1.4978643000358716,226.16006610001205,227.47865439997986,226.16006610001205,226.9948503000196,226.16006610001205,226.9948503000196,226.16006610001205,226.9948503000196,226.16006610001205,226.9948503000196,226.16006610001205,226.9948503000196,226.96136790001765,227.4629175000009,226.96136790001765,227.4629175000009,226.96136790001765,227.4629175000009,226.96136790001765,227.4629175000009,226.96136790001765,227.4629175000009,226.96136790001765,227.4629175000009,226.96136790001765,227.4629175000009,226.96136790001765,227.4629175000009,226.16006610001205,None,227.4629175000009,228.89881300000707,0.8200000000000005,228.91482250002446,None,229.66533689998323,None,,,,,,,[1.43428571],2.820000000000002,0.7142857142857143,12014,001,2024_Jun_20_1903,MFTM_A_new1021,2021.2.3,59.472443739126206,
,,,,,,,,stim/Instruction_adaptive.png,conditions/adaptive.xlsx,test,0.6,0.6,0.6,-0.6,-0.6,right,R,,,,,0,1,1,1,0,28,28,28,,,,,,,,,,,,,,,,,,,,,,,,,,,,,,,,,,,,,,,,,,,,230.16693910001777,None,right,1,1.271089900052175,230.66668510000454,232.10278100002324,230.66668510000454,231.6015999999945,230.66668510000454,231.6015999999945,230.66668510000454,231.6015999999945,230.66668510000454,231.6015999999945,230.66668510000454,231.6015999999945,231.5848017000244,232.08577730000252,231.5848017000244,232.08577730000252,231.5848017000244,232.08577730000252,231.5848017000244,232.08577730000252,231.5848017000244,232.08577730000252,231.5848017000244,232.08577730000252,231.5848017000244,232.08577730000252,231.5848017000244,232.08577730000252,230.66668510000454,None,232.08577730000252,None,0.9300000000000006,233.53783270000713,None,234.28902020002715,None,,,,,,,[1.43896552],2.8900000000000023,0.7241379310344828,12014,001,2024_Jun_20_1903,MFTM_A_new1021,2021.2.3,59.472443739126206,
,,,,,,,,stim/Instruction_adaptive.png,conditions/adaptive.xlsx,test,-0.6,-0.6,-0.6,0.6,0.6,left,L,,,,,0,1,1,1,0,29,29,45,,,,,,,,,,,,,,,,,,,,,,,,,,,,,,,,,,,,,,,,,,,,234.7897748000105,None,left,1,1.3672695999848656,235.29055049997987,236.69277379999403,235.29055049997987,236.19188659999054,235.29055049997987,236.19188659999054,235.29055049997987,236.19188659999054,235.29055049997987,236.19188659999054,235.29055049997987,236.19188659999054,236.15844239998842,236.65918269997928,236.15844239998842,236.65918269997928,236.15844239998842,236.65918269997928,236.15844239998842,236.65918269997928,236.15844239998842,236.65918269997928,236.15844239998842,236.65918269997928,236.15844239998842,236.65918269997928,236.15844239998842,236.65918269997928,235.29055049997987,None,236.65918269997928,238.1115376999951,0.8900000000000006,238.1281676000217,None,238.8803846000228,None,,,,,,,[1.44466667],2.950000000000002,0.7333333333333333,12014,001,2024_Jun_20_1903,MFTM_A_new1021,2021.2.3,59.472443739126206,
,,,,,,,,stim/Instruction_adaptive.png,conditions/adaptive.xlsx,test,0.6,0.6,0.6,-0.6,-0.6,right,R,,,,,0,1,1,1,0,30,30,30,,,,,,,,,,,,,,,,,,,,,,,,,,,,,,,,,,,,,,,,,,,,239.3800304000033,None,right,1,1.6336270999745466,239.88082429999486,241.23407649999717,239.88082429999486,240.7319233000162,239.88082429999486,240.7319233000162,239.88082429999486,240.7319233000162,239.88082429999486,240.7319233000162,239.88082429999486,240.7319233000162,240.7161620000261,241.21614580001915,240.7161620000261,241.21614580001915,240.7161620000261,241.21614580001915,240.7161620000261,241.21614580001915,240.7161620000261,241.21614580001915,240.7161620000261,241.21614580001915,240.7161620000261,241.21614580001915,240.7161620000261,241.21614580001915,239.88082429999486,None,241.21614580001915,242.66828919999534,0.8500000000000005,242.6855486999848,None,243.43614589999197,None,,,,,,,[1.45129032],3.0100000000000025,0.7419354838709677,12014,001,2024_Jun_20_1903,MFTM_A_new1021,2021.2.3,59.472443739126206,
,,,,,,,,stim/Instruction_adaptive.png,conditions/adaptive.xlsx,test,0.6,0.6,0.6,-0.6,-0.6,right,R,,,,,0,1,1,1,0,31,31,72,,,,,,,,,,,,,,,,,,,,,,,,,,,,,,,,,,,,,,,,,,,,243.93698160001077,None,right,1,1.6217820000019856,244.4373859000043,245.77376820001518,244.4373859000043,245.27226669999072,244.4373859000043,245.27226669999072,244.4373859000043,245.27226669999072,244.4373859000043,245.27226669999072,244.4373859000043,245.27226669999072,245.2388246000046,245.73966020002263,245.2388246000046,245.73966020002263,245.2388246000046,245.73966020002263,245.2388246000046,245.73966020002263,245.2388246000046,245.73966020002263,245.2388246000046,245.73966020002263,245.2388246000046,245.73966020002263,245.2388246000046,245.73966020002263,244.4373859000043,None,245.73966020002263,247.20866000000387,0.8200000000000005,247.22506720002275,None,247.9762175999931,None,,,,,,,[1.4584375],3.070000000000002,0.75,12014,001,2024_Jun_20_1903,MFTM_A_new1021,2021.2.3,59.472443739126206,
,,,,,,,,stim/Instruction_adaptive.png,conditions/adaptive.xlsx,test,-0.6,-0.6,-0.6,0.6,0.6,left,L,,,,,0,1,1,1,0,32,32,49,,,,,,,,,,,,,,,,,,,,,,,,,,,,,,,,,,,,,,,,,,,,248.47696840000572,None,right,0,1.6644588999915868,248.97780170000624,250.2636685000034,248.97780170000624,249.76215740002226,248.97780170000624,249.76215740002226,248.97780170000624,249.76215740002226,248.97780170000624,249.76215740002226,248.97780170000624,249.76215740002226,249.74554510001326,250.24648319999687,249.74554510001326,250.24648319999687,249.74554510001326,250.24648319999687,249.74554510001326,250.24648319999687,249.74554510001326,250.24648319999687,249.74554510001326,250.24648319999687,249.74554510001326,250.24648319999687,249.74554510001326,250.24648319999687,248.97780170000624,None,250.24648319999687,251.71541280002566,0.7800000000000005,251.73197550000623,None,252.48291610000888,None,,,,,,,[1.46636364],2.910000000000002,0.7272727272727273,12014,001,2024_Jun_20_1903,MFTM_A_new1021,2021.2.3,59.472443739126206,
,,,,,,,,stim/Instruction_adaptive.png,conditions/adaptive.xlsx,test,0.6,0.6,0.6,-0.6,-0.6,right,R,,,,,0,1,1,1,0,33,33,26,,,,,,,,,,,,,,,,,,,,,,,,,,,,,,,,,,,,,,,,,,,,252.98407820001012,None,right,1,1.5498728000093251,253.48446040001,254.8698150999844,253.48446040001,254.3691613000119,253.48446040001,254.3691613000119,253.48446040001,254.3691613000119,253.48446040001,254.3691613000119,253.48446040001,254.3691613000119,254.35257039999124,254.8533154000179,254.35257039999124,254.8533154000179,254.35257039999124,254.8533154000179,254.35257039999124,254.8533154000179,254.35257039999124,254.8533154000179,254.35257039999124,254.8533154000179,254.35257039999124,254.8533154000179,254.35257039999124,254.8533154000179,253.48446040001,None,254.8533154000179,None,0.8800000000000006,256.33881929999916,None,257.090076100023,None,,,,,,,[1.47088235],2.9700000000000024,0.7352941176470589,12014,001,2024_Jun_20_1903,MFTM_A_new1021,2021.2.3,59.472443739126206,
,,,,,,,,stim/Instruction_adaptive.png,conditions/adaptive.xlsx,test,-0.6,-0.6,-0.6,0.6,0.6,left,L,,,,,0,1,1,1,0,34,34,95,,,,,,,,,,,,,,,,,,,,,,,,,,,,,,,,,,,,,,,,,,,,257.59108089999063,None,right,0,1.1427414999925531,258.09189690003404,259.44355670001823,258.09189690003404,258.9428627000307,258.09189690003404,258.9428627000307,258.09189690003404,258.9428627000307,258.09189690003404,258.9428627000307,258.09189690003404,258.9428627000307,258.90933829999994,259.41013570001815,258.90933829999994,259.41013570001815,258.90933829999994,259.41013570001815,258.90933829999994,259.41013570001815,258.90933829999994,259.41013570001815,258.90933829999994,259.41013570001815,258.90933829999994,259.41013570001815,258.90933829999994,259.41013570001815,258.09189690003404,None,259.41013570001815,260.89589769998565,0.8400000000000005,260.9122468000278,None,261.6633471000241,None,,,,,,,[1.47628571],2.8100000000000023,0.7142857142857143,12014,001,2024_Jun_20_1903,MFTM_A_new1021,2021.2.3,59.472443739126206,
,,,,,,,,stim/Instruction_adaptive.png,conditions/adaptive.xlsx,test,-0.6,-0.6,-0.6,0.6,0.6,left,L,,,,,0,1,1,1,0,35,35,5,,,,,,,,,,,,,,,,,,,,,,,,,,,,,,,,,,,,,,,,,,,,262.16436400002567,None,left,1,1.6977485000388697,262.66502690000925,264.11720440001227,262.66502690000925,263.61693820002256,262.66502690000925,263.61693820002256,262.66502690000925,263.61693820002256,262.66502690000925,263.61693820002256,262.66502690000925,263.61693820002256,263.5831632000045,264.0839719999931,263.5831632000045,264.0839719999931,263.5831632000045,264.0839719999931,263.5831632000045,264.0839719999931,263.5831632000045,264.0839719999931,263.5831632000045,264.0839719999931,263.5831632000045,264.0839719999931,263.5831632000045,264.0839719999931,262.66502690000925,None,264.0839719999931,265.5697800000198,0.9400000000000006,265.5862339999876,None,266.3375365000102,None,,,,,,,[1.47861111],2.860000000000002,0.7222222222222222,12014,001,2024_Jun_20_1903,MFTM_A_new1021,2021.2.3,59.472443739126206,
,,,,,,,,stim/Instruction_adaptive.png,conditions/adaptive.xlsx,test,-0.6,-0.6,-0.6,0.6,0.6,left,L,,,,,0,1,1,1,0,36,36,67,,,,,,,,,,,,,,,,,,,,,,,,,,,,,,,,,,,,,,,,,,,,266.8396726999781,None,left,1,1.511708699981682,267.338791200018,268.7575683000032,267.338791200018,268.25676190003287,267.338791200018,268.25676190003287,267.338791200018,268.25676190003287,267.338791200018,268.25676190003287,267.338791200018,268.25676190003287,268.2402668999857,268.7409998999792,268.2402668999857,268.7409998999792,268.2402668999857,268.7409998999792,268.2402668999857,268.7409998999792,268.2402668999857,268.7409998999792,268.2402668999857,268.7409998999792,268.2402668999857,268.7409998999792,268.2402668999857,268.7409998999792,267.338791200018,None,268.72423739999067,270.2098641000339,0.9100000000000006,270.2432802999974,None,270.994187000033,None,,,,,,,[1.48162162],2.920000000000002,0.7297297297297297,12014,001,2024_Jun_20_1903,MFTM_A_new1021,2021.2.3,59.472443739126206,
,,,,,,,,stim/Instruction_adaptive.png,conditions/adaptive.xlsx,test,-0.6,-0.6,-0.6,0.6,0.6,left,L,,,,,0,1,1,1,0,37,37,57,,,,,,,,,,,,,,,,,,,,,,,,,,,,,,,,,,,,,,,,,,,,271.49516320001567,None,left,1,1.157850299961865,271.99725580000086,273.38131289999,271.99725580000086,272.8803662999999,271.99725580000086,272.8803662999999,271.99725580000086,272.8803662999999,271.99725580000086,272.8803662999999,271.99725580000086,272.8803662999999,272.8469802000327,273.3479509000317,272.8469802000327,273.3479509000317,272.8469802000327,273.3479509000317,272.8469802000327,273.3479509000317,272.8469802000327,273.3479509000317,272.8469802000327,273.3479509000317,272.8469802000327,273.3479509000317,272.8469802000327,273.3479509000317,271.99725580000086,None,273.3479509000317,274.83563149999827,0.8700000000000006,274.84986850002315,None,275.60117530002026,None,,,,,,,[1.48552632],2.9700000000000024,0.7368421052631579,12014,001,2024_Jun_20_1903,MFTM_A_new1021,2021.2.3,59.472443739126206,
,,,,,,,,stim/Instruction_adaptive.png,conditions/adaptive.xlsx,test,-0.6,-0.6,-0.6,0.6,0.6,left,L,,,,,0,1,1,1,0,38,38,15,,,,,,,,,,,,,,,,,,,,,,,,,,,,,,,,,,,,,,,,,,,,276.1020706000272,None,right,0,1.3368552000029013,276.6027902000351,277.9548829999985,276.6027902000351,277.4541064000223,276.6027902000351,277.4541064000223,276.6027902000351,277.4541064000223,276.6027902000351,277.4541064000223,276.6027902000351,277.4541064000223,277.420544099994,277.9218254000298,277.420544099994,277.9218254000298,277.420544099994,277.9218254000298,277.420544099994,277.9218254000298,277.420544099994,277.9218254000298,277.420544099994,277.9218254000298,277.420544099994,277.9218254000298,277.420544099994,277.9218254000298,276.6027902000351,None,277.9218254000298,279.42368599999463,0.8400000000000005,279.4402681000065,None,280.19146310002543,None,,,,,,,[1.49],2.820000000000002,0.717948717948718,12014,001,2024_Jun_20_1903,MFTM_A_new1021,2021.2.3,59.472443739126206,
,,,,,,,,stim/Instruction_adaptive.png,conditions/adaptive.xlsx,test,-0.6,-0.6,-0.6,0.6,0.6,left,L,,,,,0,1,1,1,0,39,39,21,,,,,,,,,,,,,,,,,,,,,,,,,,,,,,,,,,,,,,,,,,,,280.692769700021,None,right,0,1.6352130000013858,281.1929294000147,282.6296088999952,281.1929294000147,282.1278382000164,281.1929294000147,282.1278382000164,281.1929294000147,282.1278382000164,281.1929294000147,282.1278382000164,281.1929294000147,282.1278382000164,282.1111159999855,282.6117060999968,282.1111159999855,282.6117060999968,282.1111159999855,282.6117060999968,282.1111159999855,282.6117060999968,282.1111159999855,282.6117060999968,282.1111159999855,282.6117060999968,282.1111159999855,282.6117060999968,282.1111159999855,282.6117060999968,281.1929294000147,None,282.6117060999968,None,0.9300000000000006,284.1142275999882,None,284.8653199999826,None,,,,,,,[1.492],2.6700000000000017,0.7,12014,001,2024_Jun_20_1903,MFTM_A_new1021,2021.2.3,59.472443739126206,
,,,,,,,,stim/Instruction_adaptive.png,conditions/adaptive.xlsx,test,0.6,0.6,0.6,-0.6,-0.6,right,R,,,,,0,1,1,1,0,40,40,4,,,,,,,,,,,,,,,,,,,,,,,,,,,,,,,,,,,,,,,,,,,,285.36606040003244,None,right,1,1.3684667999623343,285.8667062000022,287.4025008000317,285.8667062000022,286.90171000000555,285.8667062000022,286.90171000000555,285.8667062000022,286.90171000000555,285.8667062000022,286.90171000000555,285.8667062000022,286.90171000000555,286.8849293999956,287.38564619998215,286.8849293999956,287.38564619998215,286.8849293999956,287.38564619998215,286.8849293999956,287.38564619998215,286.8849293999956,287.38564619998215,286.8849293999956,287.38564619998215,286.8849293999956,287.38564619998215,286.8849293999956,287.38564619998215,285.8667062000022,None,287.38564619998215,288.85455300001195,1.0300000000000007,288.8711901999777,None,289.62235030002194,None,,,,,,,[[1.47]],2.720000000000002,0.7073170731707317,12014,001,2024_Jun_20_1903,MFTM_A_new1021,2021.2.3,59.472443739126206,
,,,,,,,,stim/Instruction_adaptive.png,conditions/adaptive.xlsx,test,-0.6,-0.6,-0.6,0.6,0.6,left,L,,,,,0,1,1,1,0,41,41,97,,,,,,,,,,,,,,,,,,,,,,,,,,,,,,,,,,,,,,,,,,,,290.1237239000038,None,left,1,1.0273280999972485,290.62405420001596,292.1265234000166,290.62405420001596,291.62573099997826,290.62405420001596,291.62573099997826,290.62405420001596,291.62573099997826,290.62405420001596,291.62573099997826,290.62405420001596,291.62573099997826,291.60902430000715,292.1094226000132,291.60902430000715,292.1094226000132,291.60902430000715,292.1094226000132,291.60902430000715,292.1094226000132,291.60902430000715,292.1094226000132,291.60902430000715,292.1094226000132,291.60902430000715,292.1094226000132,291.60902430000715,292.1094226000132,290.62405420001596,None,292.1094226000132,293.6118546000216,1.0000000000000007,293.6285410000128,None,294.379469699983,None,,,,,,,[1.49166667],2.780000000000002,0.7142857142857143,12014,001,2024_Jun_20_1903,MFTM_A_new1021,2021.2.3,59.472443739126206,
,,,,,,,,stim/Instruction_adaptive.png,conditions/adaptive.xlsx,test,-0.6,-0.6,-0.6,0.6,0.6,left,L,,,,,0,1,1,1,0,42,42,51,,,,,,,,,,,,,,,,,,,,,,,,,,,,,,,,,,,,,,,,,,,,294.88068000000203,None,left,1,1.2133808999788016,295.38259659998585,296.84995639999397,295.38259659998585,296.3500639999984,295.38259659998585,296.3500639999984,295.38259659998585,296.3500639999984,295.38259659998585,296.3500639999984,295.38259659998585,296.3500639999984,296.3168373000226,296.81678410002496,296.3168373000226,296.81678410002496,296.3168373000226,296.81678410002496,296.3168373000226,296.81678410002496,296.3168373000226,296.81678410002496,296.3168373000226,296.81678410002496,296.3168373000226,296.81678410002496,296.3168373000226,296.81678410002496,295.38259659998585,None,296.81678410002496,298.31881100003375,0.9600000000000006,298.3356816000305,None,299.086752000032,None,,,,,,,[1.4927907],2.820000000000002,0.7209302325581395,12014,001,2024_Jun_20_1903,MFTM_A_new1021,2021.2.3,59.472443739126206,
,,,,,,,,stim/Instruction_adaptive.png,conditions/adaptive.xlsx,test,0.6,0.6,0.6,-0.6,-0.6,right,R,,,,,0,1,1,1,0,43,43,20,,,,,,,,,,,,,,,,,,,,,,,,,,,,,,,,,,,,,,,,,,,,299.58745089999866,None,right,1,1.3155387999722734,300.08822969999164,301.52366840001196,300.08822969999164,301.02292200003285,300.08822969999164,301.02292200003285,300.08822969999164,301.02292200003285,300.08822969999164,301.02292200003285,300.08822969999164,301.02292200003285,301.0062007000088,301.50709520000964,301.0062007000088,301.50709520000964,301.0062007000088,301.50709520000964,301.0062007000088,301.50709520000964,301.0062007000088,301.50709520000964,301.0062007000088,301.50709520000964,301.0062007000088,301.50709520000964,301.0062007000088,301.50709520000964,300.08822969999164,None,301.50709520000964,303.01072900003055,0.9300000000000006,303.0259502999834,None,303.77820729999803,None,,,,,,,[1.49454545],2.870000000000002,0.7272727272727273,12014,001,2024_Jun_20_1903,MFTM_A_new1021,2021.2.3,59.472443739126206,
,,,,,,,,stim/Instruction_adaptive.png,conditions/adaptive.xlsx,test,0.6,0.6,0.6,-0.6,-0.6,right,R,,,,,0,1,1,1,0,44,44,76,,,,,,,,,,,,,,,,,,,,,,,,,,,,,,,,,,,,,,,,,,,,304.2779072999838,None,right,1,1.8577492999611422,304.7784732999862,306.1812467999989,304.7784732999862,305.67992199998116,304.7784732999862,305.67992199998116,304.7784732999862,305.67992199998116,304.7784732999862,305.67992199998116,304.7784732999862,305.67992199998116,305.66328069998417,306.1648544000345,305.66328069998417,306.1648544000345,305.66328069998417,306.1648544000345,305.66328069998417,306.1648544000345,305.66328069998417,306.1648544000345,305.66328069998417,306.1648544000345,305.66328069998417,306.1648544000345,305.66328069998417,306.1648544000345,304.7784732999862,None,306.1648544000345,307.6662615999812,0.9000000000000006,307.6833246999886,None,308.4348183000111,None,,,,,,,[1.49688889],2.910000000000002,0.7333333333333333,12014,001,2024_Jun_20_1903,MFTM_A_new1021,2021.2.3,59.472443739126206,
,,,,,,,,stim/Instruction_adaptive.png,conditions/adaptive.xlsx,test,-0.6,-0.6,-0.6,0.6,0.6,left,L,,,,,0,1,1,1,0,45,45,83,,,,,,,,,,,,,,,,,,,,,,,,,,,,,,,,,,,,,,,,,,,,308.9349660000298,None,right,0,1.2647317000082694,309.43562280002516,310.82103140000254,309.43562280002516,310.3203572999919,309.43562280002516,310.3203572999919,309.43562280002516,310.3203572999919,309.43562280002516,310.3203572999919,309.43562280002516,310.3203572999919,310.30387210001936,310.8041821999941,310.30387210001936,310.8041821999941,310.30387210001936,310.8041821999941,310.30387210001936,310.8041821999941,310.30387210001936,310.8041821999941,310.30387210001936,310.8041821999941,310.30387210001936,310.8041821999941,310.30387210001936,310.8041821999941,309.43562280002516,None,310.8041821999941,312.30751449998934,0.8800000000000006,312.3232271000161,None,313.07456580002327,None,,,,,,,[1.49956522],2.790000000000002,0.717391304347826,12014,001,2024_Jun_20_1903,MFTM_A_new1021,2021.2.3,59.472443739126206,
,,,,,,,,stim/Instruction_adaptive.png,conditions/adaptive.xlsx,test,0.6,0.6,0.6,-0.6,-0.6,right,R,,,,,0,1,1,1,0,46,46,12,,,,,,,,,,,,,,,,,,,,,,,,,,,,,,,,,,,,,,,,,,,,313.5750952999806,None,left,0,1.448420500033535,314.0760555000161,315.52813950000564,314.0760555000161,315.02771520003444,314.0760555000161,315.02771520003444,314.0760555000161,315.02771520003444,314.0760555000161,315.02771520003444,314.0760555000161,315.02771520003444,315.0120447999798,315.51151709997794,315.0120447999798,315.51151709997794,315.0120447999798,315.51151709997794,315.0120447999798,315.51151709997794,315.0120447999798,315.51151709997794,315.0120447999798,315.51151709997794,315.0120447999798,315.51151709997794,315.0120447999798,315.51151709997794,314.0760555000161,None,315.51151709997794,317.0144831999787,0.9500000000000006,317.0304017000017,None,317.7825441000168,None,,,,,,,[1.5006383],2.650000000000002,0.7021276595744681,12014,001,2024_Jun_20_1903,MFTM_A_new1021,2021.2.3,59.472443739126206,
,,,,,,,,stim/Instruction_adaptive.png,conditions/adaptive.xlsx,test,-0.6,-0.6,-0.6,0.6,0.6,left,L,,,,,0,1,1,1,0,47,47,47,,,,,,,,,,,,,,,,,,,,,,,,,,,,,,,,,,,,,,,,,,,,318.2824031999917,None,left,1,1.6614041000138968,318.7828813000233,320.33618909999495,318.7828813000233,319.83504560001893,318.7828813000233,319.83504560001893,318.7828813000233,319.83504560001893,318.7828813000233,319.83504560001893,318.7828813000233,319.83504560001893,319.81818639999256,320.31884329998866,319.81818639999256,320.31884329998866,319.81818639999256,320.31884329998866,319.81818639999256,320.31884329998866,319.81818639999256,320.31884329998866,319.81818639999256,320.31884329998866,319.81818639999256,320.31884329998866,319.81818639999256,320.31884329998866,318.7828813000233,None,320.31884329998866,321.7715232000337,1.0500000000000007,321.7876684999792,None,322.53862870001467,None,,,,,,,[[1.45]],2.700000000000002,0.7083333333333334,12014,001,2024_Jun_20_1903,MFTM_A_new1021,2021.2.3,59.472443739126206,
,,,,,,,,stim/Instruction_adaptive.png,conditions/adaptive.xlsx,test,-0.6,-0.6,-0.6,0.6,0.6,left,L,,,,,0,1,1,1,0,48,48,77,,,,,,,,,,,,,,,,,,,,,,,,,,,,,,,,,,,,,,,,,,,,323.039949900005,None,left,1,1.2882900000549853,323.5402147999848,325.0596890000161,323.5402147999848,324.55858459998854,323.5402147999848,324.55858459998854,323.5402147999848,324.55858459998854,323.5402147999848,324.55858459998854,323.5402147999848,324.55858459998854,324.541759499989,325.0434898000094,324.541759499989,325.0434898000094,324.541759499989,325.0434898000094,324.541759499989,325.0434898000094,324.541759499989,325.0434898000094,324.541759499989,325.0434898000094,324.541759499989,325.0434898000094,324.541759499989,325.0434898000094,323.5402147999848,None,325.0434898000094,None,1.0100000000000007,326.54502580000553,None,327.29623939999146,None,,,,,,,[[1.49]],2.7500000000000018,0.7142857142857143,12014,001,2024_Jun_20_1903,MFTM_A_new1021,2021.2.3,59.472443739126206,
,,,,,,,,stim/Instruction_adaptive.png,conditions/adaptive.xlsx,test,-0.6,-0.6,-0.6,0.6,0.6,left,L,,,,,0,1,1,1,0,49,49,29,,,,,,,,,,,,,,,,,,,,,,,,,,,,,,,,,,,,,,,,,,,,327.7969880999881,None,left,1,1.6509834000025876,328.2976429000264,329.7837076000287,328.2976429000264,329.28276600001846,328.2976429000264,329.28276600001846,328.2976429000264,329.28276600001846,328.2976429000264,329.28276600001846,328.2976429000264,329.28276600001846,329.2655435000197,329.7663468000246,329.2655435000197,329.7663468000246,329.2655435000197,329.7663468000246,329.2655435000197,329.7663468000246,329.2655435000197,329.7663468000246,329.2655435000197,329.7663468000246,329.2655435000197,329.7663468000246,329.2655435000197,329.7663468000246,328.2976429000264,None,329.7663468000246,331.2685095000197,0.9800000000000006,331.2852547999937,None,332.03642830002354,None,,,,,,,[1.4998],2.790000000000002,0.72,12014,001,2024_Jun_20_1903,MFTM_A_new1021,2021.2.3,59.472443739126206,
,,,,,,,,stim/Instruction_adaptive.png,conditions/adaptive.xlsx,test,0.6,0.6,0.6,-0.6,-0.6,right,R,,,,,0,1,1,1,0,50,50,90,,,,,,,,,,,,,,,,,,,,,,,,,,,,,,,,,,,,,,,,,,,,332.53725490003126,None,right,1,1.4222044000052847,333.03824919997714,334.48995610000566,333.03824919997714,333.989304799994,333.03824919997714,333.989304799994,333.03824919997714,333.989304799994,333.03824919997714,333.989304799994,333.03824919997714,333.989304799994,333.97277520003263,334.4732951000333,333.97277520003263,334.4732951000333,333.97277520003263,334.4732951000333,333.97277520003263,334.4732951000333,333.97277520003263,334.4732951000333,333.97277520003263,334.4732951000333,333.97277520003263,334.4732951000333,333.97277520003263,334.4732951000333,333.03824919997714,None,334.4732951000333,335.97587229998317,0.9500000000000006,335.99235810001846,None,336.74367480003275,None,,,,,,,[1.50078431],2.830000000000002,0.7254901960784313,12014,001,2024_Jun_20_1903,MFTM_A_new1021,2021.2.3,59.472443739126206,
,,,,,,,,stim/Instruction_adaptive.png,conditions/adaptive.xlsx,test,-0.6,-0.6,-0.6,0.6,0.6,left,L,,,,,0,1,1,1,0,51,51,93,,,,,,,,,,,,,,,,,,,,,,,,,,,,,,,,,,,,,,,,,,,,337.24454949999927,None,left,1,1.4198319999850355,337.74503150000237,339.18047540000407,337.74503150000237,338.67984100000467,337.74503150000237,338.67984100000467,337.74503150000237,338.67984100000467,337.74503150000237,338.67984100000467,337.74503150000237,338.67984100000467,338.66306709998753,339.1639377999818,338.66306709998753,339.1639377999818,338.66306709998753,339.1639377999818,338.66306709998753,339.1639377999818,338.66306709998753,339.1639377999818,338.66306709998753,339.1639377999818,338.66306709998753,339.1639377999818,338.66306709998753,339.1639377999818,337.74503150000237,None,339.1639377999818,340.6666237000027,0.9300000000000006,340.6827205999871,None,341.4337943000137,None,,,,,,,[1.50211538],2.870000000000002,0.7307692307692307,12014,001,2024_Jun_20_1903,MFTM_A_new1021,2021.2.3,59.472443739126206,
,,,,,,,,stim/Instruction_adaptive.png,conditions/adaptive.xlsx,test,-0.6,-0.6,-0.6,0.6,0.6,left,L,,,,,0,1,1,1,0,52,52,39,,,,,,,,,,,,,,,,,,,,,,,,,,,,,,,,,,,,,,,,,,,,341.9350298999925,None,right,0,1.521581500011962,342.43534440000076,343.83733549999306,342.43534440000076,343.33687340002507,342.43534440000076,343.33687340002507,342.43534440000076,343.33687340002507,342.43534440000076,343.33687340002507,342.43534440000076,343.33687340002507,343.320162500022,343.8208657000214,343.320162500022,343.8208657000214,343.320162500022,343.8208657000214,343.320162500022,343.8208657000214,343.320162500022,343.8208657000214,343.320162500022,343.8208657000214,343.320162500022,343.8208657000214,343.320162500022,343.8208657000214,342.43534440000076,None,343.8208657000214,None,0.9000000000000006,345.3396674999967,None,346.09167019999586,None,,,,,,,[1.50396226],2.760000000000002,0.7169811320754716,12014,001,2024_Jun_20_1903,MFTM_A_new1021,2021.2.3,59.472443739126206,
,,,,,,,,stim/Instruction_adaptive.png,conditions/adaptive.xlsx,test,-0.6,-0.6,-0.6,0.6,0.6,left,L,,,,,0,1,1,1,0,53,53,91,,,,,,,,,,,,,,,,,,,,,,,,,,,,,,,,,,,,,,,,,,,,346.59207930002594,None,left,1,1.5124789999681525,347.09253130003344,348.5780481999973,347.09253130003344,348.0775292000035,347.09253130003344,348.0775292000035,347.09253130003344,348.0775292000035,347.09253130003344,348.0775292000035,347.09253130003344,348.0775292000035,348.0437401999952,348.54472639999585,348.0437401999952,348.54472639999585,348.0437401999952,348.54472639999585,348.0437401999952,348.54472639999585,348.0437401999952,348.54472639999585,348.0437401999952,348.54472639999585,348.0437401999952,348.54472639999585,348.0437401999952,348.54472639999585,347.09253130003344,None,348.54472639999585,350.06349830003455,0.9700000000000006,350.08007929997984,None,350.8314721999923,None,,,,,,,[1.50444444],2.790000000000002,0.7222222222222222,12014,001,2024_Jun_20_1903,MFTM_A_new1021,2021.2.3,59.472443739126206,
,,,,,,,,stim/Instruction_adaptive.png,conditions/adaptive.xlsx,test,-0.6,-0.6,-0.6,0.6,0.6,left,L,,,,,0,1,1,1,0,54,54,31,,,,,,,,,,,,,,,,,,,,,,,,,,,,,,,,,,,,,,,,,,,,351.3326707999804,None,left,1,1.347602599998936,351.83363140001893,353.2851648000069,351.83363140001893,352.7853943000082,351.83363140001893,352.7853943000082,351.83363140001893,352.7853943000082,351.83363140001893,352.7853943000082,351.83363140001893,352.7853943000082,352.7679052000167,353.26836560002994,352.7679052000167,353.26836560002994,352.7679052000167,353.26836560002994,352.7679052000167,353.26836560002994,352.7679052000167,353.26836560002994,352.7679052000167,353.26836560002994,352.7679052000167,353.26836560002994,352.7679052000167,353.26836560002994,351.83363140001893,None,353.26836560002994,354.78791600000113,0.9500000000000006,354.80407130002277,None,355.5550859000068,None,,,,,,,[1.50527273],2.830000000000002,0.7272727272727273,12014,001,2024_Jun_20_1903,MFTM_A_new1021,2021.2.3,59.472443739126206,
,,,,,,,,stim/Instruction_adaptive.png,conditions/adaptive.xlsx,test,-0.6,-0.6,-0.6,0.6,0.6,left,L,,,,,0,1,1,1,0,55,55,11,,,,,,,,,,,,,,,,,,,,,,,,,,,,,,,,,,,,,,,,,,,,356.0562577000237,None,right,0,1.6002548999967985,356.55678250000346,357.99212810001336,356.55678250000346,357.4921197000076,356.55678250000346,357.4921197000076,356.55678250000346,357.4921197000076,356.55678250000346,357.4921197000076,356.55678250000346,357.4921197000076,357.4751680000336,357.9754370999872,357.4751680000336,357.9754370999872,357.4751680000336,357.9754370999872,357.4751680000336,357.9754370999872,357.4751680000336,357.9754370999872,357.4751680000336,357.9754370999872,357.4751680000336,357.9754370999872,357.4751680000336,357.9754370999872,356.55678250000346,None,357.9754370999872,None,0.9300000000000006,359.4945290000178,None,360.24549420003314,None,,,,,,,[1.50642857],2.720000000000002,0.7142857142857143,12014,001,2024_Jun_20_1903,MFTM_A_new1021,2021.2.3,59.472443739126206,
,,,,,,,,stim/Instruction_adaptive.png,conditions/adaptive.xlsx,test,0.6,0.6,0.6,-0.6,-0.6,right,R,,,,,0,1,1,1,0,56,56,98,,,,,,,,,,,,,,,,,,,,,,,,,,,,,,,,,,,,,,,,,,,,360.74630940001225,None,left,0,1.6216872000368312,361.2474913999904,362.7503504999913,361.2474913999904,362.2485218999791,361.2474913999904,362.2485218999791,361.2474913999904,362.2485218999791,361.2474913999904,362.2485218999791,361.2474913999904,362.2485218999791,362.2320717999828,362.7338310999912,362.2320717999828,362.7338310999912,362.2320717999828,362.7338310999912,362.2320717999828,362.7338310999912,362.2320717999828,362.7338310999912,362.2320717999828,362.7338310999912,362.2320717999828,362.7338310999912,362.2320717999828,362.7338310999912,361.2474913999904,None,362.7338310999912,364.2357174999779,1.0000000000000007,364.251522800012,None,365.0028548000264,None,,,,,,,[[1.5]],2.610000000000002,0.7017543859649122,12014,001,2024_Jun_20_1903,MFTM_A_new1021,2021.2.3,59.472443739126206,
,,,,,,,,stim/Instruction_adaptive.png,conditions/adaptive.xlsx,test,-0.6,-0.6,-0.6,0.6,0.6,left,L,,,,,0,1,1,1,0,57,57,53,,,,,,,,,,,,,,,,,,,,,,,,,,,,,,,,,,,,,,,,,,,,365.50356310000643,None,left,1,1.3289309000247158,366.00457160000224,367.5900676000165,366.00457160000224,367.0892618999933,366.00457160000224,367.0892618999933,366.00457160000224,367.0892618999933,366.00457160000224,367.0892618999933,366.00457160000224,367.0892618999933,367.07263160002185,367.57334639999317,367.07263160002185,367.57334639999317,367.07263160002185,367.57334639999317,367.07263160002185,367.57334639999317,367.07263160002185,367.57334639999317,367.07263160002185,367.57334639999317,367.07263160002185,367.57334639999317,367.07263160002185,367.57334639999317,366.00457160000224,None,367.57334639999317,None,1.0800000000000007,369.0087080000085,None,369.7598270000308,None,,,,,,,[[1.42]],2.650000000000002,0.7068965517241379,12014,001,2024_Jun_20_1903,MFTM_A_new1021,2021.2.3,59.472443739126206,
,,,,,,,,stim/Instruction_adaptive.png,conditions/adaptive.xlsx,test,-0.6,-0.6,-0.6,0.6,0.6,left,L,,,,,0,1,1,1,0,58,58,37,,,,,,,,,,,,,,,,,,,,,,,,,,,,,,,,,,,,,,,,,,,,370.26056259998586,None,left,1,2.0033523999736644,370.76275609998265,372.3138495000312,370.76275609998265,371.81309730000794,370.76275609998265,371.81309730000794,370.76275609998265,371.81309730000794,370.76275609998265,371.81309730000794,370.76275609998265,371.81309730000794,371.79664900002535,372.2972137000179,371.79664900002535,372.2972137000179,371.79664900002535,372.2972137000179,371.79664900002535,372.2972137000179,371.79664900002535,372.2972137000179,371.79664900002535,372.2972137000179,371.79664900002535,372.2972137000179,371.79664900002535,372.2972137000179,370.76275609998265,None,372.2972137000179,373.7503151000128,1.0500000000000007,373.7663049999974,None,374.51707890001126,None,,,,,,,[[1.45]],2.690000000000002,0.711864406779661,12014,001,2024_Jun_20_1903,MFTM_A_new1021,2021.2.3,59.472443739126206,
,,,,,,,,stim/Instruction_adaptive.png,conditions/adaptive.xlsx,test,-0.6,-0.6,-0.6,0.6,0.6,left,L,,,,,0,1,1,1,0,59,59,75,,,,,,,,,,,,,,,,,,,,,,,,,,,,,,,,,,,,,,,,,,,,375.0178852999816,None,right,0,1.6313119999831542,375.5187020000303,377.05409950000467,375.5187020000303,376.5539418000262,375.5187020000303,376.5539418000262,375.5187020000303,376.5539418000262,375.5187020000303,376.5539418000262,375.5187020000303,376.5539418000262,376.520259300014,377.0209080000059,376.520259300014,377.0209080000059,376.520259300014,377.0209080000059,376.520259300014,377.0209080000059,376.520259300014,377.0209080000059,376.520259300014,377.0209080000059,376.520259300014,377.0209080000059,376.520259300014,377.0209080000059,375.5187020000303,None,377.0209080000059,378.5065112999873,1.0200000000000007,378.52330360002816,None,379.27532810001867,None,,,,,,,[[1.48]],2.570000000000002,0.7,12014,001,2024_Jun_20_1903,MFTM_A_new1021,2021.2.3,59.472443739126206,
,,,,,,,,stim/Instruction_adaptive.png,conditions/adaptive.xlsx,test,0.6,0.6,0.6,-0.6,-0.6,right,R,,,,,0,1,1,1,0,60,60,46,,,,,,,,,,,,,,,,,,,,,,,,,,,,,,,,,,,,,,,,,,,,379.7749839000171,None,left,0,2.3617813999881037,380.27667530003237,381.89498179999646,380.27667530003237,381.3949505999917,380.27667530003237,381.3949505999917,380.27667530003237,381.3949505999917,380.27667530003237,381.3949505999917,380.27667530003237,381.3949505999917,381.36085629998706,381.8629993000068,381.36085629998706,381.8629993000068,381.36085629998706,381.8629993000068,381.36085629998706,381.8629993000068,381.36085629998706,381.8629993000068,381.36085629998706,381.8629993000068,381.36085629998706,381.8629993000068,381.36085629998706,381.8629993000068,380.27667530003237,None,381.8629993000068,383.26358999998774,1.1100000000000008,383.28025920002256,None,384.0313957000035,None,,,,,,,[[1.39]],2.450000000000002,0.6885245901639344,12014,001,2024_Jun_20_1903,MFTM_A_new1021,2021.2.3,59.472443739126206,
,,,,,,,,stim/Instruction_adaptive.png,conditions/adaptive.xlsx,test,-0.6,-0.6,-0.6,0.6,0.6,left,L,,,,,0,1,1,1,0,61,61,55,,,,,,,,,,,,,,,,,,,,,,,,,,,,,,,,,,,,,,,,,,,,384.532256000035,None,left,1,1.4530804000096396,385.03294380003354,386.7356547000236,385.03294380003354,386.23484500002814,385.03294380003354,386.23484500002814,385.03294380003354,386.23484500002814,385.03294380003354,386.23484500002814,385.03294380003354,386.23484500002814,386.21813260001363,386.7189478999935,386.21813260001363,386.7189478999935,386.21813260001363,386.7189478999935,386.21813260001363,386.7189478999935,386.21813260001363,386.7189478999935,386.21813260001363,386.7189478999935,386.21813260001363,386.7189478999935,386.21813260001363,386.7189478999935,385.03294380003354,None,386.7189478999935,388.0208948000218,1.2000000000000008,388.0371967999963,None,388.7892183000222,None,,,,,,,[[1.3]],2.5000000000000018,0.6935483870967742,12014,001,2024_Jun_20_1903,MFTM_A_new1021,2021.2.3,59.472443739126206,
,,,,,,,,stim/Instruction_adaptive.png,conditions/adaptive.xlsx,test,0.6,0.6,0.6,-0.6,-0.6,right,R,,,,,0,1,1,1,0,62,62,84,,,,,,,,,,,,,,,,,,,,,,,,,,,,,,,,,,,,,,,,,,,,389.2898428000044,None,left,0,1.7755427999654785,389.790955799981,391.45979769999394,389.790955799981,390.9584912999999,389.790955799981,390.9584912999999,389.790955799981,390.9584912999999,389.790955799981,390.9584912999999,389.790955799981,390.9584912999999,390.92526160000125,391.4267491999781,390.92526160000125,391.4267491999781,390.92526160000125,391.4267491999781,390.92526160000125,391.4267491999781,390.92526160000125,391.4267491999781,390.92526160000125,391.4267491999781,390.92526160000125,391.4267491999781,390.92526160000125,391.4267491999781,389.790955799981,None,391.4267491999781,392.7785024000332,1.1600000000000008,392.7947772000334,None,393.54637599998387,None,,,,,,,[[1.34]],2.3800000000000017,0.6825396825396826,12014,001,2024_Jun_20_1903,MFTM_A_new1021,2021.2.3,59.472443739126206,
,,,,,,,,stim/Instruction_adaptive.png,conditions/adaptive.xlsx,test,0.6,0.6,0.6,-0.6,-0.6,right,R,,,,,0,1,1,1,0,63,63,80,,,,,,,,,,,,,,,,,,,,,,,,,,,,,,,,,,,,,,,,,,,,394.04766580002615,None,right,1,1.3947997000068426,394.5475190000143,396.3166368000093,394.5475190000143,395.8159306999878,394.5475190000143,395.8159306999878,394.5475190000143,395.8159306999878,394.5475190000143,395.8159306999878,394.5475190000143,395.8159306999878,395.7831186000258,396.2830982999876,395.7831186000258,396.2830982999876,395.7831186000258,396.2830982999876,395.7831186000258,396.2830982999876,395.7831186000258,396.2830982999876,395.7831186000258,396.2830982999876,395.7831186000258,396.2830982999876,395.7831186000258,396.2830982999876,394.5475190000143,None,396.2830982999876,397.5352346000145,1.260000000000001,397.55217129999073,None,398.3030174000305,None,,,,,,,[[1.24]],2.4200000000000017,0.6875,12014,001,2024_Jun_20_1903,MFTM_A_new1021,2021.2.3,59.472443739126206,
,,,,,,,,stim/Instruction_adaptive.png,conditions/adaptive.xlsx,test,0.6,0.6,0.6,-0.6,-0.6,right,R,,,,,0,1,1,1,0,64,64,24,,,,,,,,,,,,,,,,,,,,,,,,,,,,,,,,,,,,,,,,,,,,398.80377850000514,None,right,1,1.3817817000090145,399.3047965000151,401.0410521000158,399.3047965000151,400.5397142000147,399.3047965000151,400.5397142000147,399.3047965000151,400.5397142000147,399.3047965000151,400.5397142000147,399.3047965000151,400.5397142000147,400.52305080002407,401.0238327999832,400.52305080002407,401.0238327999832,400.52305080002407,401.0238327999832,400.52305080002407,401.0238327999832,400.52305080002407,401.0238327999832,400.52305080002407,401.0238327999832,400.52305080002407,401.0238327999832,400.52305080002407,401.0238327999832,399.3047965000151,None,401.0238327999832,None,1.2300000000000009,402.3089600999956,None,403.06013360002544,None,,,,,,,[[1.27]],2.4600000000000017,0.6923076923076923,12014,001,2024_Jun_20_1903,MFTM_A_new1021,2021.2.3,59.472443739126206,
,,,,,,,,stim/Instruction_adaptive.png,conditions/adaptive.xlsx,test,0.6,0.6,0.6,-0.6,-0.6,right,R,,,,,0,1,1,1,0,65,65,68,,,,,,,,,,,,,,,,,,,,,,,,,,,,,,,,,,,,,,,,,,,,403.5608536999789,None,right,1,1.688921999942977,404.06170040002326,405.7642852999852,404.06170040002326,405.2635471000103,404.06170040002326,405.2635471000103,404.06170040002326,405.2635471000103,404.06170040002326,405.2635471000103,404.06170040002326,405.2635471000103,405.24675779999234,405.74756649998017,405.24675779999234,405.74756649998017,405.24675779999234,405.74756649998017,405.24675779999234,405.74756649998017,405.24675779999234,405.74756649998017,405.24675779999234,405.74756649998017,405.24675779999234,405.74756649998017,405.24675779999234,405.74756649998017,404.06170040002326,None,405.74756649998017,407.0504976999946,1.2000000000000008,407.06671059998916,None,407.8179979000124,None,,,,,,,[[1.3]],2.5000000000000018,0.696969696969697,12014,001,2024_Jun_20_1903,MFTM_A_new1021,2021.2.3,59.472443739126206,
,,,,,,,,stim/Instruction_adaptive.png,conditions/adaptive.xlsx,test,0.6,0.6,0.6,-0.6,-0.6,right,R,,,,,0,1,1,1,0,66,66,42,,,,,,,,,,,,,,,,,,,,,,,,,,,,,,,,,,,,,,,,,,,,408.3180397999822,None,right,1,1.37200670002494,408.81873280002037,410.488063900033,408.81873280002037,409.98770470003365,408.81873280002037,409.98770470003365,408.81873280002037,409.98770470003365,408.81873280002037,409.98770470003365,408.81873280002037,409.98770470003365,409.9717222999898,410.47253560001263,409.9717222999898,410.47253560001263,409.9717222999898,410.47253560001263,409.9717222999898,410.47253560001263,409.9717222999898,410.47253560001263,409.9717222999898,410.47253560001263,409.9717222999898,410.47253560001263,409.9717222999898,410.47253560001263,408.81873280002037,None,410.47253560001263,None,1.1600000000000008,411.823361399991,None,412.5744640000048,None,,,,,,,[[1.34]],2.530000000000002,0.7014925373134329,12014,001,2024_Jun_20_1903,MFTM_A_new1021,2021.2.3,59.472443739126206,
,,,,,,,,stim/Instruction_adaptive.png,conditions/adaptive.xlsx,test,0.6,0.6,0.6,-0.6,-0.6,right,R,,,,,0,1,1,1,0,67,67,14,,,,,,,,,,,,,,,,,,,,,,,,,,,,,,,,,,,,,,,,,,,,413.07604080002056,None,right,1,1.127007200033404,413.5761288999929,415.228595099994,413.5761288999929,414.7278532999917,413.5761288999929,414.7278532999917,413.5761288999929,414.7278532999917,413.5761288999929,414.7278532999917,413.5761288999929,414.7278532999917,414.69447360001504,415.1952608000138,414.69447360001504,415.1952608000138,414.69447360001504,415.1952608000138,414.69447360001504,415.1952608000138,414.69447360001504,415.1952608000138,414.69447360001504,415.1952608000138,414.69447360001504,415.1952608000138,414.69447360001504,415.1952608000138,413.5761288999929,None,415.1952608000138,416.56433530000504,1.1400000000000008,416.58060739998473,None,417.33174599998165,None,,,,,,,[[1.36]],2.570000000000002,0.7058823529411765,12014,001,2024_Jun_20_1903,MFTM_A_new1021,2021.2.3,59.472443739126206,
,,,,,,,,stim/Instruction_adaptive.png,conditions/adaptive.xlsx,test,0.6,0.6,0.6,-0.6,-0.6,right,R,,,,,0,1,1,1,0,68,68,6,,,,,,,,,,,,,,,,,,,,,,,,,,,,,,,,,,,,,,,,,,,,417.8325659999973,None,right,1,1.1937945000245236,418.3331569000147,419.9521309999982,418.3331569000147,419.45146329997806,418.3331569000147,419.45146329997806,418.3331569000147,419.45146329997806,418.3331569000147,419.45146329997806,418.3331569000147,419.45146329997806,419.43508720002137,419.9357238999801,419.43508720002137,419.9357238999801,419.43508720002137,419.9357238999801,419.43508720002137,419.9357238999801,419.43508720002137,419.9357238999801,419.43508720002137,419.9357238999801,419.43508720002137,419.9357238999801,419.43508720002137,419.9357238999801,418.3331569000147,None,419.9190816000337,421.32147560000885,1.1100000000000008,421.3376642999938,None,422.08893129997887,None,,,,,,,[[1.39]],2.600000000000002,0.7101449275362319,12014,001,2024_Jun_20_1903,MFTM_A_new1021,2021.2.3,59.472443739126206,
,,,,,,,,stim/Instruction_adaptive.png,conditions/adaptive.xlsx,test,0.6,0.6,0.6,-0.6,-0.6,right,R,,,,,0,1,1,1,0,69,69,10,,,,,,,,,,,,,,,,,,,,,,,,,,,,,,,,,,,,,,,,,,,,422.58966200001305,None,right,1,1.0910700999666005,423.0920206999872,424.6940512000001,423.0920206999872,424.19236440001987,423.0920206999872,424.19236440001987,423.0920206999872,424.19236440001987,423.0920206999872,424.19236440001987,423.0920206999872,424.19236440001987,424.15855180000653,424.6594604999991,424.15855180000653,424.6594604999991,424.15855180000653,424.6594604999991,424.15855180000653,424.6594604999991,424.15855180000653,424.6594604999991,424.15855180000653,424.6594604999991,424.15855180000653,424.6594604999991,424.15855180000653,424.6594604999991,423.0920206999872,None,424.6594604999991,426.0783199000289,1.0900000000000007,426.0949239000329,None,426.8460948999855,None,,,,,,,[[1.41]],2.640000000000002,0.7142857142857143,12014,001,2024_Jun_20_1903,MFTM_A_new1021,2021.2.3,59.472443739126206,
,,,,,,,,stim/Instruction_adaptive.png,conditions/adaptive.xlsx,test,-0.6,-0.6,-0.6,0.6,0.6,left,L,,,,,0,1,1,1,0,70,70,63,,,,,,,,,,,,,,,,,,,,,,,,,,,,,,,,,,,,,,,,,,,,427.3468213999877,None,left,1,1.4800789000000805,427.8474612000282,429.4168657999835,427.8474612000282,428.9158499999903,427.8474612000282,428.9158499999903,427.8474612000282,428.9158499999903,427.8474612000282,428.9158499999903,427.8474612000282,428.9158499999903,428.88257249997696,429.3838876999798,428.88257249997696,429.3838876999798,428.88257249997696,429.3838876999798,428.88257249997696,429.3838876999798,428.88257249997696,429.3838876999798,428.88257249997696,429.3838876999798,428.88257249997696,429.3838876999798,428.88257249997696,429.3838876999798,427.8474612000282,None,429.3838876999798,430.8355060000322,1.0600000000000007,430.8520298000076,None,431.6041006000014,None,,,,,,,[[1.44]],2.6700000000000017,0.7183098591549296,12014,001,2024_Jun_20_1903,MFTM_A_new1021,2021.2.3,59.472443739126206,
,,,,,,,,stim/Instruction_adaptive.png,conditions/adaptive.xlsx,test,-0.6,-0.6,-0.6,0.6,0.6,left,L,,,,,0,1,1,1,0,71,71,41,,,,,,,,,,,,,,,,,,,,,,,,,,,,,,,,,,,,,,,,,,,,432.10502150002867,None,left,1,1.4348254000069574,432.60463680000976,434.1404516000184,432.60463680000976,433.64151460002176,432.60463680000976,433.64151460002176,432.60463680000976,433.64151460002176,432.60463680000976,433.64151460002176,432.60463680000976,433.64151460002176,433.62313319998793,434.1238805000321,433.62313319998793,434.1238805000321,433.62313319998793,434.1238805000321,433.62313319998793,434.1238805000321,433.62313319998793,434.1238805000321,433.62313319998793,434.1238805000321,433.62313319998793,434.1238805000321,433.62313319998793,434.1238805000321,432.60463680000976,None,434.1238805000321,None,1.0300000000000007,435.6092487000278,None,436.3610776999849,None,,,,,,,[[1.47]],2.700000000000002,0.7222222222222222,12014,001,2024_Jun_20_1903,MFTM_A_new1021,2021.2.3,59.472443739126206,
,,,,,,,,stim/Instruction_adaptive.png,conditions/adaptive.xlsx,test,0.6,0.6,0.6,-0.6,-0.6,right,R,,,,,0,1,1,1,0,72,72,66,,,,,,,,,,,,,,,,,,,,,,,,,,,,,,,,,,,,,,,,,,,,436.8629508999875,None,left,0,1.6454295000294223,437.36200720001943,438.88082409999333,437.36200720001943,438.3804071000195,437.36200720001943,438.3804071000195,437.36200720001943,438.3804071000195,437.36200720001943,438.3804071000195,437.36200720001943,438.3804071000195,438.3466086999979,438.8473935999791,438.3466086999979,438.8473935999791,438.3466086999979,438.8473935999791,438.3466086999979,438.8473935999791,438.3466086999979,438.8473935999791,438.3466086999979,438.8473935999791,438.3466086999979,438.8473935999791,438.3466086999979,438.8473935999791,437.36200720001943,None,438.8473935999791,440.3356019000057,1.0100000000000007,440.3669572999934,None,441.1188373999903,None,,,,,,,[1.47876712],2.610000000000002,0.7123287671232876,12014,001,2024_Jun_20_1903,MFTM_A_new1021,2021.2.3,59.472443739126206,
,,,,,,,,stim/Instruction_adaptive.png,conditions/adaptive.xlsx,test,-0.6,-0.6,-0.6,0.6,0.6,left,L,,,,,0,1,1,1,0,73,73,1,,,,,,,,,,,,,,,,,,,,,,,,,,,,,,,,,,,,,,,,,,,,441.61854029999813,None,left,1,1.9040499000111595,442.1192700000247,443.70470230001956,442.1192700000247,443.20407829998294,442.1192700000247,443.20407829998294,442.1192700000247,443.20407829998294,442.1192700000247,443.20407829998294,442.1192700000247,443.20407829998294,443.18744599999627,443.6881732000038,443.18744599999627,443.6881732000038,443.18744599999627,443.6881732000038,443.18744599999627,443.6881732000038,443.18744599999627,443.6881732000038,443.18744599999627,443.6881732000038,443.18744599999627,443.6881732000038,443.18744599999627,443.6881732000038,442.1192700000247,None,443.6881732000038,445.1071799999918,1.0800000000000007,445.1234604999772,None,445.87476109998534,None,,,,,,,[[1.42]],2.640000000000002,0.7162162162162162,12014,001,2024_Jun_20_1903,MFTM_A_new1021,2021.2.3,59.472443739126206,
,,,,,,,,stim/Instruction_adaptive.png,conditions/adaptive.xlsx,test,0.6,0.6,0.6,-0.6,-0.6,right,R,,,,,0,1,1,1,0,74,74,92,,,,,,,,,,,,,,,,,,,,,,,,,,,,,,,,,,,,,,,,,,,,446.37629450001987,None,left,0,1.5954488000134006,446.876362400013,448.44596250000177,446.876362400013,447.94454270001734,446.876362400013,447.94454270001734,446.876362400013,447.94454270001734,446.876362400013,447.94454270001734,446.876362400013,447.94454270001734,447.91176310001174,448.41171050001867,447.91176310001174,448.41171050001867,447.91176310001174,448.41171050001867,447.91176310001174,448.41171050001867,447.91176310001174,448.41171050001867,447.91176310001174,448.41171050001867,447.91176310001174,448.41171050001867,447.91176310001174,448.41171050001867,446.876362400013,None,448.41171050001867,449.8658292000182,1.0600000000000007,449.89792850002414,None,450.64845340000466,None,,,,,,,[[1.44]],2.5500000000000016,0.7066666666666667,12014,001,2024_Jun_20_1903,MFTM_A_new1021,2021.2.3,59.472443739126206,
,,,,,,,,stim/Instruction_adaptive.png,conditions/adaptive.xlsx,test,-0.6,-0.6,-0.6,0.6,0.6,left,L,,,,,0,1,1,1,0,75,75,99,,,,,,,,,,,,,,,,,,,,,,,,,,,,,,,,,,,,,,,,,,,,451.14940759999445,None,left,1,1.981671000015922,451.65029090002645,453.285944400006,451.65029090002645,452.76883150002686,451.65029090002645,452.76883150002686,451.65029090002645,452.76883150002686,451.65029090002645,452.76883150002686,451.65029090002645,452.76883150002686,452.7525873000268,453.2524674999877,452.7525873000268,453.2524674999877,452.7525873000268,453.2524674999877,452.7525873000268,453.2524674999877,452.7525873000268,453.2524674999877,452.7525873000268,453.2524674999877,452.7525873000268,453.2524674999877,452.7525873000268,453.2524674999877,451.65029090002645,None,453.2524674999877,454.6376846000203,1.1200000000000008,454.65459869999904,None,455.40704989997903,None,,,,,,,[[1.38]],2.580000000000002,0.7105263157894737,12014,001,2024_Jun_20_1903,MFTM_A_new1021,2021.2.3,59.472443739126206,
,,,,,,,,stim/Instruction_adaptive.png,conditions/adaptive.xlsx,test,0.6,0.6,0.6,-0.6,-0.6,right,R,,,,,0,1,1,1,0,76,76,82,,,,,,,,,,,,,,,,,,,,,,,,,,,,,,,,,,,,,,,,,,,,455.9072106999811,None,right,1,1.4399043000303209,456.40803789999336,458.01001389999874,456.40803789999336,457.509183200018,456.40803789999336,457.509183200018,456.40803789999336,457.509183200018,456.40803789999336,457.509183200018,456.40803789999336,457.509183200018,457.49226780002937,457.9932048000046,457.49226780002937,457.9932048000046,457.49226780002937,457.9932048000046,457.49226780002937,457.9932048000046,457.49226780002937,457.9932048000046,457.49226780002937,457.9932048000046,457.49226780002937,457.9932048000046,457.49226780002937,457.9932048000046,456.40803789999336,None,457.9932048000046,459.39512280002236,1.1000000000000008,459.41174650000175,None,460.1629127000342,None,,,,,,,[[1.4]],2.610000000000002,0.7142857142857143,12014,001,2024_Jun_20_1903,MFTM_A_new1021,2021.2.3,59.472443739126206,
,,,,,,,,stim/Instruction_adaptive.png,conditions/adaptive.xlsx,test,-0.6,-0.6,-0.6,0.6,0.6,left,L,,,,,0,1,1,1,0,77,77,43,,,,,,,,,,,,,,,,,,,,,,,,,,,,,,,,,,,,,,,,,,,,460.6637384999776,None,left,1,1.107630499987863,461.1646127999993,462.7507578000077,461.1646127999993,462.24940790003166,461.1646127999993,462.24940790003166,461.1646127999993,462.24940790003166,461.1646127999993,462.24940790003166,461.1646127999993,462.24940790003166,462.2328107000212,462.73345100000734,462.2328107000212,462.73345100000734,462.2328107000212,462.73345100000734,462.2328107000212,462.73345100000734,462.2328107000212,462.73345100000734,462.2328107000212,462.73345100000734,462.2328107000212,462.73345100000734,462.2328107000212,462.73345100000734,461.1646127999993,None,462.73345100000734,464.15231049997965,1.0800000000000007,464.1688582000206,None,464.92015800002264,None,,,,,,,[[1.42]],2.640000000000002,0.717948717948718,12014,001,2024_Jun_20_1903,MFTM_A_new1021,2021.2.3,59.472443739126206,
,,,,,,,,stim/Instruction_adaptive.png,conditions/adaptive.xlsx,test,0.6,0.6,0.6,-0.6,-0.6,right,R,,,,,0,1,1,1,0,78,78,34,,,,,,,,,,,,,,,,,,,,,,,,,,,,,,,,,,,,,,,,,,,,465.4214524999843,None,left,0,1.5665881999884732,465.92181620001793,467.49056569999084,465.92181620001793,466.98988810001174,465.92181620001793,466.98988810001174,465.92181620001793,466.98988810001174,465.92181620001793,466.98988810001174,465.92181620001793,466.98988810001174,466.97341600002255,467.47375539998757,466.97341600002255,467.47375539998757,466.97341600002255,467.47375539998757,466.97341600002255,467.47375539998757,466.97341600002255,467.47375539998757,466.97341600002255,467.47375539998757,466.97341600002255,467.47375539998757,466.97341600002255,467.47375539998757,465.92181620001793,None,467.47375539998757,None,1.0600000000000007,468.92547379998723,None,469.6775659000268,None,,,,,,,[[1.44]],2.5500000000000016,0.7088607594936709,12014,001,2024_Jun_20_1903,MFTM_A_new1021,2021.2.3,59.472443739126206,
,,,,,,,,stim/Instruction_adaptive.png,conditions/adaptive.xlsx,test,0.6,0.6,0.6,-0.6,-0.6,right,R,,,,,0,1,1,1,0,79,79,18,,,,,,,,,,,,,,,,,,,,,,,,,,,,,,,,,,,,,,,,,,,,470.1785482999985,None,right,1,1.9133065000060014,470.6789101000177,472.3145338000031,470.6789101000177,471.8140022000298,470.6789101000177,471.8140022000298,470.6789101000177,471.8140022000298,470.6789101000177,471.8140022000298,470.6789101000177,471.8140022000298,471.780533400015,472.2811878999928,471.780533400015,472.2811878999928,471.780533400015,472.2811878999928,471.780533400015,472.2811878999928,471.780533400015,472.2811878999928,471.780533400015,472.2811878999928,471.780533400015,472.2811878999928,471.780533400015,472.2811878999928,470.6789101000177,None,472.2811878999928,473.66673659998924,1.1200000000000008,473.6834537999821,None,474.4346557999961,None,,,,,,,[[1.38]],2.580000000000002,0.7125,12014,001,2024_Jun_20_1903,MFTM_A_new1021,2021.2.3,59.472443739126206,
,,,,,,,,stim/Instruction_adaptive.png,conditions/adaptive.xlsx,test,0.6,0.6,0.6,-0.6,-0.6,right,R,,,,,0,1,1,1,0,80,80,62,,,,,,,,,,,,,,,,,,,,,,,,,,,,,,,,,,,,,,,,,,,,474.9353249000269,None,right,1,1.492411400016863,475.4360020000022,477.0384497999912,475.4360020000022,476.5376956000109,475.4360020000022,476.5376956000109,475.4360020000022,476.5376956000109,475.4360020000022,476.5376956000109,475.4360020000022,476.5376956000109,476.5210624000174,477.02179090003483,476.5210624000174,477.02179090003483,476.5210624000174,477.02179090003483,476.5210624000174,477.02179090003483,476.5210624000174,477.02179090003483,476.5210624000174,477.02179090003483,476.5210624000174,477.02179090003483,476.5210624000174,477.02179090003483,475.4360020000022,None,477.02179090003483,478.4239150999929,1.1000000000000008,478.4404397000326,None,479.1929677000153,None,,,,,,,[[1.4]],2.610000000000002,0.7160493827160493,12014,001,2024_Jun_20_1903,MFTM_A_new1021,2021.2.3,59.472443739126206,
,,,,,,,,stim/Instruction_adaptive.png,conditions/adaptive.xlsx,test,0.6,0.6,0.6,-0.6,-0.6,right,R,,,,,0,1,1,1,0,81,81,38,,,,,,,,,,,,,,,,,,,,,,,,,,,,,,,,,,,,,,,,,,,,479.6932437000214,None,right,1,1.5276239999802783,480.1930095999851,481.7787073000218,480.1930095999851,481.2781747999834,480.1930095999851,481.2781747999834,480.1930095999851,481.2781747999834,480.1930095999851,481.2781747999834,480.1930095999851,481.2781747999834,481.2614356999984,481.76210150000406,481.2614356999984,481.76210150000406,481.2614356999984,481.76210150000406,481.2614356999984,481.76210150000406,481.2614356999984,481.76210150000406,481.2614356999984,481.76210150000406,481.2614356999984,481.76210150000406,481.2614356999984,481.76210150000406,480.1930095999851,None,481.76210150000406,None,1.0800000000000007,483.1977541000233,None,483.9494576000143,None,,,,,,,[[1.42]],2.640000000000002,0.7195121951219512,12014,001,2024_Jun_20_1903,MFTM_A_new1021,2021.2.3,59.472443739126206,
,,,,,,,,stim/Instruction_adaptive.png,conditions/adaptive.xlsx,test,0.6,0.6,0.6,-0.6,-0.6,right,R,,,,,0,1,1,1,0,82,82,86,,,,,,,,,,,,,,,,,,,,,,,,,,,,,,,,,,,,,,,,,,,,484.44964990002336,None,right,1,1.426253599987831,484.95056219998514,486.5202065000194,484.95056219998514,486.0186134999967,484.95056219998514,486.0186134999967,484.95056219998514,486.0186134999967,484.95056219998514,486.0186134999967,484.95056219998514,486.0186134999967,485.98522790003335,486.4859642999945,485.98522790003335,486.4859642999945,485.98522790003335,486.4859642999945,485.98522790003335,486.4859642999945,485.98522790003335,486.4859642999945,485.98522790003335,486.4859642999945,485.98522790003335,486.4859642999945,485.98522790003335,486.4859642999945,484.95056219998514,None,486.4859642999945,487.9381505000056,1.0600000000000007,487.95553620002465,None,488.70613360003335,None,,,,,,,[[1.44]],2.6700000000000017,0.7228915662650602,12014,001,2024_Jun_20_1903,MFTM_A_new1021,2021.2.3,59.472443739126206,
,,,,,,,,stim/Instruction_adaptive.png,conditions/adaptive.xlsx,test,0.6,0.6,0.6,-0.6,-0.6,right,R,,,,,0,1,1,1,0,83,83,70,,,,,,,,,,,,,,,,,,,,,,,,,,,,,,,,,,,,,,,,,,,,489.20719849999296,None,right,1,1.6053949000197463,489.70750770001905,491.2432071000221,489.70750770001905,490.7426228999975,489.70750770001905,490.7426228999975,489.70750770001905,490.7426228999975,489.70750770001905,490.7426228999975,489.70750770001905,490.7426228999975,490.7257918000105,491.22641340002883,490.7257918000105,491.22641340002883,490.7257918000105,491.22641340002883,490.7257918000105,491.22641340002883,490.7257918000105,491.22641340002883,490.7257918000105,491.22641340002883,490.7257918000105,491.22641340002883,490.7257918000105,491.22641340002883,489.70750770001905,None,491.22641340002883,None,1.0300000000000007,492.71241370000644,None,493.46310910000466,None,,,,,,,[[1.47]],2.690000000000002,0.7261904761904762,12014,001,2024_Jun_20_1903,MFTM_A_new1021,2021.2.3,59.472443739126206,
,,,,,,,,stim/Instruction_adaptive.png,conditions/adaptive.xlsx,test,-0.6,-0.6,-0.6,0.6,0.6,left,L,,,,,0,1,1,1,0,84,84,7,,,,,,,,,,,,,,,,,,,,,,,,,,,,,,,,,,,,,,,,,,,,493.9639565999969,None,left,1,1.7445956000010483,494.46459889999824,495.9836409999989,494.46459889999824,495.4995759000303,494.46459889999824,495.4995759000303,494.46459889999824,495.4995759000303,494.46459889999824,495.4995759000303,494.46459889999824,495.4995759000303,495.46665439999197,495.96698540000943,495.46665439999197,495.96698540000943,495.46665439999197,495.96698540000943,495.46665439999197,495.96698540000943,495.46665439999197,495.96698540000943,495.46665439999197,495.96698540000943,495.46665439999197,495.96698540000943,495.46665439999197,495.96698540000943,494.46459889999824,None,495.96698540000943,497.453206199978,1.0200000000000007,497.4699528000201,None,498.220903599984,None,,,,,,,[1.47105882],2.720000000000002,0.7294117647058823,12014,001,2024_Jun_20_1903,MFTM_A_new1021,2021.2.3,59.472443739126206,
,,,,,,,,stim/Instruction_adaptive.png,conditions/adaptive.xlsx,test,0.6,0.6,0.6,-0.6,-0.6,right,R,,,,,0,1,1,1,0,85,85,22,,,,,,,,,,,,,,,,,,,,,,,,,,,,,,,,,,,,,,,,,,,,498.721170200035,None,right,1,1.29134910000721,499.22173270001076,500.7240849999944,499.22173270001076,500.22437379998155,499.22173270001076,500.22437379998155,499.22173270001076,500.22437379998155,499.22173270001076,500.22437379998155,499.22173270001076,500.22437379998155,500.2066855999874,500.70768540003337,500.2066855999874,500.70768540003337,500.2066855999874,500.70768540003337,500.2066855999874,500.70768540003337,500.2066855999874,500.70768540003337,500.2066855999874,500.70768540003337,500.2066855999874,500.70768540003337,500.2066855999874,500.70768540003337,499.22173270001076,None,500.70768540003337,None,1.0000000000000007,502.1931892000139,None,502.9440200999961,None,,,,,,,[1.47139535],2.740000000000002,0.7325581395348837,12014,001,2024_Jun_20_1903,MFTM_A_new1021,2021.2.3,59.472443739126206,
,,,,,,,,stim/Instruction_adaptive.png,conditions/adaptive.xlsx,test,0.6,0.6,0.6,-0.6,-0.6,right,R,,,,,0,1,1,1,0,86,86,96,,,,,,,,,,,,,,,,,,,,,,,,,,,,,,,,,,,,,,,,,,,,503.44564460002584,None,right,1,1.6478245999896899,503.9456530000316,505.4309089999879,503.9456530000316,504.93048320000526,503.9456530000316,504.93048320000526,503.9456530000316,504.93048320000526,503.9456530000316,504.93048320000526,503.9456530000316,504.93048320000526,504.9137971000164,505.4154147999943,504.9137971000164,505.4154147999943,504.9137971000164,505.4154147999943,504.9137971000164,505.4154147999943,504.9137971000164,505.4154147999943,504.9137971000164,505.4154147999943,504.9137971000164,505.4154147999943,504.9137971000164,505.4154147999943,503.9456530000316,None,505.4154147999943,None,0.9800000000000006,506.8998698000214,None,507.6513298000209,None,,,,,,,[1.47195402],2.760000000000002,0.735632183908046,12014,001,2024_Jun_20_1903,MFTM_A_new1021,2021.2.3,59.472443739126206,
,,,,,,,,stim/Instruction_adaptive.png,conditions/adaptive.xlsx,test,0.6,0.6,0.6,-0.6,-0.6,right,R,,,,,0,1,1,1,0,87,87,52,,,,,,,,,,,,,,,,,,,,,,,,,,,,,,,,,,,,,,,,,,,,508.15294780000113,None,left,0,1.3009713999927044,508.65272240003105,510.1383886000258,508.65272240003105,509.6375842000125,508.65272240003105,509.6375842000125,508.65272240003105,509.6375842000125,508.65272240003105,509.6375842000125,508.65272240003105,509.6375842000125,509.60429039999144,510.1048244999838,509.60429039999144,510.1048244999838,509.60429039999144,510.1048244999838,509.60429039999144,510.1048244999838,509.60429039999144,510.1048244999838,509.60429039999144,510.1048244999838,509.60429039999144,510.1048244999838,509.60429039999144,510.1048244999838,508.65272240003105,None,510.1048244999838,511.5904604999814,0.9700000000000006,511.60738040000433,None,512.3584711999865,None,,,,,,,[1.47261364],2.690000000000002,0.7272727272727273,12014,001,2024_Jun_20_1903,MFTM_A_new1021,2021.2.3,59.472443739126206,
,,,,,,,,stim/Instruction_adaptive.png,conditions/adaptive.xlsx,test,-0.6,-0.6,-0.6,0.6,0.6,left,L,,,,,0,1,1,1,0,88,88,65,,,,,,,,,,,,,,,,,,,,,,,,,,,,,,,,,,,,,,,,,,,,512.8598548999871,None,left,1,0.9696504000457935,513.3599073999794,514.8790292000049,513.3599073999794,514.3947272999794,513.3599073999794,514.3947272999794,513.3599073999794,514.3947272999794,513.3599073999794,514.3947272999794,513.3599073999794,514.3947272999794,514.3614235999994,514.8628120999783,514.3614235999994,514.8628120999783,514.3614235999994,514.8628120999783,514.3614235999994,514.8628120999783,514.3614235999994,514.8628120999783,514.3614235999994,514.8628120999783,514.3614235999994,514.8628120999783,514.3614235999994,514.8628120999783,513.3599073999794,None,514.8628120999783,516.3480738999788,1.0200000000000007,516.364242199983,None,517.1154850000166,None,,,,,,,[1.47269663],2.720000000000002,0.7303370786516854,12014,001,2024_Jun_20_1903,MFTM_A_new1021,2021.2.3,59.472443739126206,
,,,,,,,,stim/Instruction_adaptive.png,conditions/adaptive.xlsx,test,-0.6,-0.6,-0.6,0.6,0.6,left,L,,,,,0,1,1,1,0,89,89,35,,,,,,,,,,,,,,,,,,,,,,,,,,,,,,,,,,,,,,,,,,,,517.616450200032,None,left,1,1.3328547999844886,518.1170629999833,519.6191737999907,518.1170629999833,519.1185956000118,518.1170629999833,519.1185956000118,518.1170629999833,519.1185956000118,518.1170629999833,519.1185956000118,518.1170629999833,519.1185956000118,519.1018334000255,519.6026876000105,519.1018334000255,519.6026876000105,519.1018334000255,519.6026876000105,519.1018334000255,519.6026876000105,519.1018334000255,519.6026876000105,519.1018334000255,519.6026876000105,519.1018334000255,519.6026876000105,519.1018334000255,519.6026876000105,518.1170629999833,None,519.6026876000105,521.0891754000331,1.0000000000000007,521.1047024999862,None,521.8563412000076,None,,,,,,,[1.473],2.740000000000002,0.7333333333333333,12014,001,2024_Jun_20_1903,MFTM_A_new1021,2021.2.3,59.472443739126206,
,,,,,,,,stim/Instruction_adaptive.png,conditions/adaptive.xlsx,test,-0.6,-0.6,-0.6,0.6,0.6,left,L,,,,,0,1,1,1,0,90,90,87,,,,,,,,,,,,,,,,,,,,,,,,,,,,,,,,,,,,,,,,,,,,522.3570750000072,None,left,1,1.0410006999736652,522.8575074999826,524.3443019000115,522.8575074999826,523.8429939000052,522.8575074999826,523.8429939000052,522.8575074999826,523.8429939000052,522.8575074999826,523.8429939000052,522.8575074999826,523.8429939000052,523.8257257000078,524.326179900032,523.8257257000078,524.326179900032,523.8257257000078,524.326179900032,523.8257257000078,524.326179900032,523.8257257000078,524.326179900032,523.8257257000078,524.326179900032,523.8257257000078,524.326179900032,523.8257257000078,524.326179900032,522.8575074999826,None,524.326179900032,None,0.9800000000000006,525.8119051000103,None,526.5631393999793,None,,,,,,,[1.47351648],2.760000000000002,0.7362637362637363,12014,001,2024_Jun_20_1903,MFTM_A_new1021,2021.2.3,59.472443739126206,
,,,,,,,,stim/Instruction_adaptive.png,conditions/adaptive.xlsx,test,-0.6,-0.6,-0.6,0.6,0.6,left,L,,,,,0,1,1,1,0,91,91,79,,,,,,,,,,,,,,,,,,,,,,,,,,,,,,,,,,,,,,,,,,,,527.0645447000279,None,left,1,1.0933213999960572,527.5645682000322,529.0355596999871,527.5645682000322,528.5493036999833,527.5645682000322,528.5493036999833,527.5645682000322,528.5493036999833,527.5645682000322,528.5493036999833,527.5645682000322,528.5493036999833,528.5163549000281,529.0168546999921,528.5163549000281,529.0168546999921,528.5163549000281,529.0168546999921,528.5163549000281,529.0168546999921,528.5163549000281,529.0168546999921,528.5163549000281,529.0168546999921,528.5163549000281,529.0168546999921,528.5163549000281,529.0168546999921,527.5645682000322,None,529.0168546999921,530.5023867000127,0.9700000000000006,530.5191172999912,None,531.27057350002,None,,,,,,,[1.47413043],2.780000000000002,0.7391304347826086,12014,001,2024_Jun_20_1903,MFTM_A_new1021,2021.2.3,59.472443739126206,
,,,,,,,,stim/Instruction_adaptive.png,conditions/adaptive.xlsx,test,0.6,0.6,0.6,-0.6,-0.6,right,R,,,,,0,1,1,1,0,92,92,8,,,,,,,,,,,,,,,,,,,,,,,,,,,,,,,,,,,,,,,,,,,,531.7709376999992,None,right,1,1.1780703000258654,532.2718193000183,533.7407031999901,532.2718193000183,533.2398181000026,532.2718193000183,533.2398181000026,532.2718193000183,533.2398181000026,532.2718193000183,533.2398181000026,532.2718193000183,533.2398181000026,533.2065419999999,533.7071341000265,533.2065419999999,533.7071341000265,533.2065419999999,533.7071341000265,533.2065419999999,533.7071341000265,533.2065419999999,533.7071341000265,533.2065419999999,533.7071341000265,533.2065419999999,533.7071341000265,533.2065419999999,533.7071341000265,532.2718193000183,None,533.723700499977,None,0.9600000000000006,535.2094186000177,None,535.9607533999952,None,,,,,,,[1.47483871],2.8100000000000023,0.7419354838709677,12014,001,2024_Jun_20_1903,MFTM_A_new1021,2021.2.3,59.472443739126206,
