arrwidth1,arrwidth2,arrwidth3,arrwidth4,arrwidth5,keyb,type,orientation,instruction_image,block_filename,block_type,arrow11,arrow22,arrow33,arrow44,arrow55,keyb_3,orientation3,trials.thisRepN,trials.thisTrialN,trials.thisN,trials.thisIndex,trials_3.thisRepN,trials_3.thisTrialN,trials_3.thisN,trials_3.thisIndex,trials_2.thisRepN,trials_2.thisTrialN,trials_2.thisN,trials_2.thisIndex,welcome.started,welcome.stopped,key_resp.keys,key_resp.rt,key_resp.started,key_resp.stopped,instruction_example.started,instruction_example.stopped,key_resp_3.keys,key_resp_3.rt,key_resp_3.started,key_resp_3.stopped,instruction_task.started,instruction_task.stopped,key_resp_2.keys,key_resp_2.rt,key_resp_2.started,key_resp_2.stopped,text_2.started,text_2.stopped,A1.started,A1.stopped,A2.started,A2.stopped,A3.started,A3.stopped,A4.started,A4.stopped,A5.started,A5.stopped,key_resp_4.keys,key_resp_4.corr,key_resp_4.rt,key_resp_4.started,key_resp_4.stopped,fb.started,fb.stopped,instruction_block.started,instruction_block.stopped,key_resp_8.keys,key_resp_8.rt,key_resp_8.started,key_resp_8.stopped,text_8.started,text_8.stopped,key_resp_9.keys,key_resp_9.corr,key_resp_9.rt,text_5.started,text_5.stopped,A11_3.started,A11_3.stopped,A22_2.started,A22_2.stopped,A33_2.started,A33_2.stopped,A44_2.started,A44_2.stopped,A55_2.started,A55_2.stopped,M1_3.started,M1_3.stopped,M2_2.started,M2_2.stopped,M3_2.started,M3_2.stopped,M4_2.started,M4_2.stopped,M5_2.started,M5_2.stopped,M6_2.started,M6_2.stopped,M7_2.started,M7_2.stopped,M8_2.started,M8_2.stopped,key_resp_9.started,key_resp_9.stopped,fixation.started,fixation.stopped,ET,fb_3.started,fb_3.stopped,text_9.started,text_9.stopped,fb_4.started,fb_4.stopped,text_7.started,text_7.stopped,endtext.started,endtext.stopped,fixation_ITI,CCC,Acc,participant,session,date,expName,psychopyVersion,frameRate,
,,,,,,,,,,,,,,,,,,,,,,,,,,,,,,21.715302700002212,None,right,4.747188100009225,21.715302700002212,None,,,,,,,,,,,,,,,,,,,,,,,,,,,,,,,,,,,,,,,,,,,,,,,,,,,,,,,,,,,,,,,,,,,,,,,,,,,,,,,,,,,,,,,,,12015,001,2024_Jun_22_1900,MFTM_A_new1021,2021.2.3,60.10312494161422,
,,,,,,,,,,,,,,,,,,,,,,,,,,,,,,,,,,,,26.48903120000614,None,right,4.69397829999798,26.48903120000614,None,,,,,,,,,,,,,,,,,,,,,,,,,,,,,,,,,,,,,,,,,,,,,,,,,,,,,,,,,,,,,,,,,,,,,,,,,,,,,,,,,,,12015,001,2024_Jun_22_1900,MFTM_A_new1021,2021.2.3,60.10312494161422,
,,,,,,,,,,,,,,,,,,,,,,,,,,,,,,,,,,,,,,,,,,31.212712300010026,None,right,7.835047799992026,31.212712300010026,None,,,,,,,,,,,,,,,,,,,,,,,,,,,,,,,,,,,,,,,,,,,,,,,,,,,,,,,,,,,,,,,,,,,,,,,,,,,,,12015,001,2024_Jun_22_1900,MFTM_A_new1021,2021.2.3,60.10312494161422,
0.6,0.6,0.6,-0.6,-0.6,right,3:2,R,,,,,,,,,,,0,0,0,0,,,,,,,,,,,,,,,,,,,,,,,,,,,39.091467300007935,None,39.091467300007935,None,39.091467300007935,None,39.091467300007935,None,39.091467300007935,None,39.091467300007935,None,right,1,1.7155865999957314,39.091467300007935,None,40.84415320001426,None,,,,,,,,,,,,,,,,,,,,,,,,,,,,,,,,,,,,,,,,,,,,,,,,,,,,,,,,,,12015,001,2024_Jun_22_1900,MFTM_A_new1021,2021.2.3,60.10312494161422,
-0.6,-0.6,-0.6,0.6,0.6,left,3:2,L,,,,,,,,,,,0,1,1,1,,,,,,,,,,,,,,,,,,,,,,,,,,,41.59557640001003,None,41.59557640001003,None,41.59557640001003,None,41.59557640001003,None,41.59557640001003,None,41.59557640001003,None,left,1,1.1558044999983395,41.59557640001003,None,42.780296300014015,None,,,,,,,,,,,,,,,,,,,,,,,,,,,,,,,,,,,,,,,,,,,,,,,,,,,,,,,,,,12015,001,2024_Jun_22_1900,MFTM_A_new1021,2021.2.3,60.10312494161422,
0.6,0.6,0.6,-0.6,-0.6,right,3:2,R,,,,,,,,,,,1,0,2,0,,,,,,,,,,,,,,,,,,,,,,,,,,,43.5319223000115,None,43.5319223000115,None,43.5319223000115,None,43.5319223000115,None,43.5319223000115,None,43.5319223000115,None,right,1,1.0192673999990802,43.5319223000115,None,44.56629120001162,None,,,,,,,,,,,,,,,,,,,,,,,,,,,,,,,,,,,,,,,,,,,,,,,,,,,,,,,,,,12015,001,2024_Jun_22_1900,MFTM_A_new1021,2021.2.3,60.10312494161422,
-0.6,-0.6,-0.6,0.6,0.6,left,3:2,L,,,,,,,,,,,1,1,3,1,,,,,,,,,,,,,,,,,,,,,,,,,,,45.31742040000972,None,45.31742040000972,None,45.31742040000972,None,45.31742040000972,None,45.31742040000972,None,45.31742040000972,None,right,0,1.1859027999889804,45.31742040000972,None,46.518831800000044,None,,,,,,,,,,,,,,,,,,,,,,,,,,,,,,,,,,,,,,,,,,,,,,,,,,,,,,,,,,12015,001,2024_Jun_22_1900,MFTM_A_new1021,2021.2.3,60.10312494161422,
,,,,,,,,stim/Instruction_mask.png,conditions/adaptive.xlsx,practice,-0.6,-0.6,-0.6,0.6,0.6,left,L,,,,,0,0,0,0,0,0,0,3,,,,,,,,,,,,,,,,,,,,,,,,,,,,,,,,,,,,,,47.45401300000958,None,left,29.529934699996375,47.45401300000958,None,77.1004765000107,None,left,1,2.4110261000023456,77.53302820000681,None,77.53302820000681,80.53748070000438,77.53302820000681,80.53748070000438,77.53302820000681,80.53748070000438,77.53302820000681,80.53748070000438,77.53302820000681,80.53748070000438,80.52112200000556,81.0215809000074,80.52112200000556,81.0215809000074,80.52112200000556,81.0215809000074,80.52112200000556,81.0215809000074,80.52112200000556,81.0215809000074,80.52112200000556,81.0215809000074,80.52112200000556,81.0215809000074,80.52112200000556,81.0215809000074,77.53302820000681,None,81.0215809000074,81.0215809000074,3,81.03788420000637,None,81.78931280001416,None,,,,,,,,,,12015,001,2024_Jun_22_1900,MFTM_A_new1021,2021.2.3,60.10312494161422,
,,,,,,,,stim/Instruction_mask.png,conditions/adaptive.xlsx,practice,-0.6,-0.6,-0.6,0.6,0.6,left,L,,,,,0,0,0,0,0,1,1,71,,,,,,,,,,,,,,,,,,,,,,,,,,,,,,,,,,,,,,,,,,,,82.29004820001137,None,right,0,1.1453653999924427,82.79087610001443,84.7940884000127,82.79087610001443,84.2932262000104,82.79087610001443,84.2932262000104,82.79087610001443,84.2932262000104,82.79087610001443,84.2932262000104,82.79087610001443,84.2932262000104,84.2765245000046,84.77719080001407,84.2765245000046,84.77719080001407,84.2765245000046,84.77719080001407,84.2765245000046,84.77719080001407,84.2765245000046,84.77719080001407,84.2765245000046,84.77719080001407,84.2765245000046,84.77719080001407,84.2765245000046,84.77719080001407,82.79087610001443,None,84.77719080001407,86.2797336000076,1.5,86.29658800001198,None,87.04726170000504,None,,,,,,,,,,12015,001,2024_Jun_22_1900,MFTM_A_new1021,2021.2.3,60.10312494161422,
,,,,,,,,stim/Instruction_mask.png,conditions/adaptive.xlsx,practice,-0.6,-0.6,-0.6,0.6,0.6,left,L,,,,,0,0,0,0,0,2,2,69,,,,,,,,,,,,,,,,,,,,,,,,,,,,,,,,,,,,,,,,,,,,87.54862440000579,None,left,1,1.368273500003852,88.04903300000296,89.35129620000953,88.04903300000296,88.85003890001099,88.04903300000296,88.85003890001099,88.04903300000296,88.85003890001099,88.04903300000296,88.85003890001099,88.04903300000296,88.85003890001099,88.83355030001258,89.33467800001381,88.83355030001258,89.33467800001381,88.83355030001258,89.33467800001381,88.83355030001258,89.33467800001381,88.83355030001258,89.33467800001381,88.83355030001258,89.33467800001381,88.83355030001258,89.33467800001381,88.83355030001258,89.33467800001381,88.04903300000296,None,89.33467800001381,91.53763270001218,0.8,91.55432810001366,None,92.30551950000518,None,,,,,,,,,,12015,001,2024_Jun_22_1900,MFTM_A_new1021,2021.2.3,60.10312494161422,
,,,,,,,,stim/Instruction_mask.png,conditions/adaptive.xlsx,practice,-0.6,-0.6,-0.6,0.6,0.6,left,L,,,,,0,0,0,0,0,3,3,9,,,,,,,,,,,,,,,,,,,,,,,,,,,,,,,,,,,,,,,,,,,,92.80653540001367,None,right,0,0.542237000001478,93.30657420000352,94.05799110000953,93.30657420000352,93.55722790000436,93.30657420000352,93.55722790000436,93.30657420000352,93.55722790000436,93.30657420000352,93.55722790000436,93.30657420000352,93.55722790000436,93.540287300013,94.04132010000467,93.540287300013,94.04132010000467,93.540287300013,94.04132010000467,93.540287300013,94.04132010000467,93.540287300013,94.04132010000467,93.540287300013,94.04132010000467,93.540287300013,94.04132010000467,93.540287300013,94.04132010000467,93.30657420000352,None,94.04132010000467,96.79576670000097,3,96.81212530001358,None,97.56566880000173,None,,,,,,,,,,12015,001,2024_Jun_22_1900,MFTM_A_new1021,2021.2.3,60.10312494161422,
,,,,,,,,stim/Instruction_mask.png,conditions/adaptive.xlsx,practice,,,,,,,,,,,,0,0,0,0,,,,,,,,,,,,,,,,,,,,,,,,,,,,,,,,,,,,,,,,,,,,,,,,,,,,,,,,,,,,,,,,,,,,,,,,,,,,,,,,,,,,,,,,,,98.0977159000031,99.10028680000687,99.08229990000837,99.08229990000837,99.08229990000837,None,,,,12015,001,2024_Jun_22_1900,MFTM_A_new1021,2021.2.3,60.10312494161422,
,,,,,,,,stim/Instruction_adaptive.png,conditions/adaptive.xlsx,test,0.6,0.6,0.6,-0.6,-0.6,right,R,,,,,0,1,1,1,0,0,0,72,,,,,,,,,,,,,,,,,,,,,,,,,,,,,,,,,,,,,,102.20340100000612,None,space,22.81427089999488,102.20340100000612,None,125.07161560001259,None,right,1,1.4538018000021111,125.55589910001436,None,125.55589910001436,128.5604081000056,125.55589910001436,128.5604081000056,125.55589910001436,128.5604081000056,125.55589910001436,128.5604081000056,125.55589910001436,128.5604081000056,128.54344050001237,129.04442870001367,128.54344050001237,129.04442870001367,128.54344050001237,129.04442870001367,128.54344050001237,129.04442870001367,128.54344050001237,129.04442870001367,128.54344050001237,129.04442870001367,128.54344050001237,129.04442870001367,128.54344050001237,129.04442870001367,125.55589910001436,None,129.04442870001367,129.04442870001367,3,129.06070180000097,None,129.8122885000048,None,,,,,,,0,6.000000000000005,1.0,12015,001,2024_Jun_22_1900,MFTM_A_new1021,2021.2.3,60.10312494161422,
,,,,,,,,stim/Instruction_adaptive.png,conditions/adaptive.xlsx,test,-0.6,-0.6,-0.6,0.6,0.6,left,L,,,,,0,1,1,1,0,1,1,5,,,,,,,,,,,,,,,,,,,,,,,,,,,,,,,,,,,,,,,,,,,,130.31311350000033,None,left,1,1.260269000005792,130.8134490000084,131.56600000000617,130.8134490000084,131.0637635000021,130.8134490000084,131.0637635000021,130.8134490000084,131.0637635000021,130.8134490000084,131.0637635000021,130.8134490000084,131.0637635000021,131.04712500001187,131.54766910000762,131.04712500001187,131.54766910000762,131.04712500001187,131.54766910000762,131.04712500001187,131.54766910000762,131.04712500001187,131.54766910000762,131.04712500001187,131.54766910000762,131.04712500001187,131.54766910000762,131.04712500001187,131.54766910000762,130.8134490000084,None,131.54766910000762,132.4336473000003,0.25,132.44900400000915,None,133.20043290000467,None,,,,,,,[0.875],6.000000000000005,1.0,12015,001,2024_Jun_22_1900,MFTM_A_new1021,2021.2.3,60.10312494161422,
,,,,,,,,stim/Instruction_adaptive.png,conditions/adaptive.xlsx,test,0.6,0.6,0.6,-0.6,-0.6,right,R,,,,,0,1,1,1,0,2,2,20,,,,,,,,,,,,,,,,,,,,,,,,,,,,,,,,,,,,,,,,,,,,133.7008535000059,None,left,0,0.855961399996886,134.20190230000298,134.95334950000688,134.20190230000298,134.45249260000128,134.20190230000298,134.45249260000128,134.20190230000298,134.45249260000128,134.20190230000298,134.45249260000128,134.20190230000298,134.45249260000128,134.4361263000028,134.93686290000915,134.4361263000028,134.93686290000915,134.4361263000028,134.93686290000915,134.4361263000028,134.93686290000915,134.4361263000028,134.93686290000915,134.4361263000028,134.93686290000915,134.4361263000028,134.93686290000915,134.4361263000028,134.93686290000915,134.20190230000298,None,134.93686290000915,136.27184020000277,0.25,136.288237700006,None,137.0395806000015,None,,,,,,,[1.33333333],3.1800000000000024,0.6666666666666666,12015,001,2024_Jun_22_1900,MFTM_A_new1021,2021.2.3,60.10312494161422,
,,,,,,,,stim/Instruction_adaptive.png,conditions/adaptive.xlsx,test,0.6,0.6,0.6,-0.6,-0.6,right,R,,,,,0,1,1,1,0,3,3,52,,,,,,,,,,,,,,,,,,,,,,,,,,,,,,,,,,,,,,,,,,,,137.54127770000196,None,right,1,0.8888913999981014,138.04105320000963,139.2766343000112,138.04105320000963,138.7761378000141,138.04105320000963,138.7761378000141,138.04105320000963,138.7761378000141,138.04105320000963,138.7761378000141,138.04105320000963,138.7761378000141,138.75913610000862,139.2602237000101,138.75913610000862,139.2602237000101,138.75913610000862,139.2602237000101,138.75913610000862,139.2602237000101,138.75913610000862,139.2602237000101,138.75913610000862,139.2602237000101,138.75913610000862,139.2602237000101,138.75913610000862,139.2602237000101,138.04105320000963,None,139.2602237000101,140.7117173000006,0.7300000000000004,140.72862170000735,None,141.4795284000138,None,,,,,,,[1.4425],4.030000000000003,0.75,12015,001,2024_Jun_22_1900,MFTM_A_new1021,2021.2.3,60.10312494161422,
,,,,,,,,stim/Instruction_adaptive.png,conditions/adaptive.xlsx,test,0.6,0.6,0.6,-0.6,-0.6,right,R,,,,,0,1,1,1,0,4,4,14,,,,,,,,,,,,,,,,,,,,,,,,,,,,,,,,,,,,,,,,,,,,141.98046550000436,None,right,1,0.6733382999955211,142.4810249000002,143.38287390000187,142.4810249000002,142.88217970001278,142.4810249000002,142.88217970001278,142.4810249000002,142.88217970001278,142.4810249000002,142.88217970001278,142.4810249000002,142.88217970001278,142.86536740000884,143.36622280000302,142.86536740000884,143.36622280000302,142.86536740000884,143.36622280000302,142.86536740000884,143.36622280000302,142.86536740000884,143.36622280000302,142.86536740000884,143.36622280000302,142.86536740000884,143.36622280000302,142.86536740000884,143.36622280000302,142.4810249000002,None,143.36622280000302,144.95188770000823,0.40000000000000013,144.96819810000306,None,145.71927510001115,None,,,,,,,[1.574],4.550000000000003,0.8,12015,001,2024_Jun_22_1900,MFTM_A_new1021,2021.2.3,60.10312494161422,
,,,,,,,,stim/Instruction_adaptive.png,conditions/adaptive.xlsx,test,-0.6,-0.6,-0.6,0.6,0.6,left,L,,,,,0,1,1,1,0,5,5,17,,,,,,,,,,,,,,,,,,,,,,,,,,,,,,,,,,,,,,,,,,,,146.2203249000013,None,right,0,0.6095442999940133,146.72057250000944,147.50529740001366,146.72057250000944,147.0045439000096,146.72057250000944,147.0045439000096,146.72057250000944,147.0045439000096,146.72057250000944,147.0045439000096,146.72057250000944,147.0045439000096,146.98777520000294,147.48854050000955,146.98777520000294,147.48854050000955,146.98777520000294,147.48854050000955,146.98777520000294,147.48854050000955,146.98777520000294,147.48854050000955,146.98777520000294,147.48854050000955,146.98777520000294,147.48854050000955,146.98777520000294,147.48854050000955,146.72057250000944,None,147.48854050000955,149.1750364000036,0.28,149.19130420000874,None,149.94263260001026,None,,,,,,,[1.68166667],3.5900000000000025,0.6666666666666666,12015,001,2024_Jun_22_1900,MFTM_A_new1021,2021.2.3,60.10312494161422,
,,,,,,,,stim/Instruction_adaptive.png,conditions/adaptive.xlsx,test,0.6,0.6,0.6,-0.6,-0.6,right,R,,,,,0,1,1,1,0,6,6,80,,,,,,,,,,,,,,,,,,,,,,,,,,,,,,,,,,,,,,,,,,,,150.44337990001077,None,right,1,0.6748207999917213,150.94357790000504,151.99566510001023,150.94357790000504,151.49473210000724,150.94357790000504,151.49473210000724,150.94357790000504,151.49473210000724,150.94357790000504,151.49473210000724,150.94357790000504,151.49473210000724,151.47974710000562,151.97938980000617,151.47974710000562,151.97938980000617,151.47974710000562,151.97938980000617,151.47974710000562,151.97938980000617,151.47974710000562,151.97938980000617,151.47974710000562,151.97938980000617,151.47974710000562,151.97938980000617,151.47974710000562,151.97938980000617,150.94357790000504,None,151.97938980000617,None,0.5500000000000003,153.71404540000367,None,154.46607460000087,None,,,,,,,[1.72],4.0000000000000036,0.7142857142857143,12015,001,2024_Jun_22_1900,MFTM_A_new1021,2021.2.3,60.10312494161422,
,,,,,,,,stim/Instruction_adaptive.png,conditions/adaptive.xlsx,test,0.6,0.6,0.6,-0.6,-0.6,right,R,,,,,0,1,1,1,0,7,7,78,,,,,,,,,,,,,,,,,,,,,,,,,,,,,,,,,,,,,,,,,,,,154.96694560001197,None,right,1,0.7029077000042889,155.4675542000041,156.38577700000315,155.4675542000041,155.88455110001087,155.4675542000041,155.88455110001087,155.4675542000041,155.88455110001087,155.4675542000041,155.88455110001087,155.4675542000041,155.88455110001087,155.86797190000652,156.3690065000119,155.86797190000652,156.3690065000119,155.86797190000652,156.3690065000119,155.86797190000652,156.3690065000119,155.86797190000652,156.3690065000119,155.86797190000652,156.3690065000119,155.86797190000652,156.3690065000119,155.86797190000652,156.3690065000119,155.4675542000041,None,156.3690065000119,158.13819180001155,0.41000000000000014,158.15497480001068,None,158.90576530000544,None,,,,,,,[1.76625],4.290000000000004,0.75,12015,001,2024_Jun_22_1900,MFTM_A_new1021,2021.2.3,60.10312494161422,
,,,,,,,,stim/Instruction_adaptive.png,conditions/adaptive.xlsx,test,-0.6,-0.6,-0.6,0.6,0.6,left,L,,,,,0,1,1,1,0,8,8,11,,,,,,,,,,,,,,,,,,,,,,,,,,,,,,,,,,,,,,,,,,,,159.4071427000017,None,right,0,0.6790755999973044,159.907689700005,160.75865420000628,159.907689700005,160.25887990000774,159.907689700005,160.25887990000774,159.907689700005,160.25887990000774,159.907689700005,160.25887990000774,159.907689700005,160.25887990000774,160.22505550000642,160.72531930000696,160.22505550000642,160.72531930000696,160.22505550000642,160.72531930000696,160.22505550000642,160.72531930000696,160.22505550000642,160.72531930000696,160.22505550000642,160.72531930000696,160.22505550000642,160.72531930000696,160.22505550000642,160.72531930000696,159.907689700005,None,160.72531930000696,162.5445822000038,0.3400000000000001,162.56140010000672,None,163.31313160000718,None,,,,,,,[1.81],3.6200000000000028,0.6666666666666666,12015,001,2024_Jun_22_1900,MFTM_A_new1021,2021.2.3,60.10312494161422,
,,,,,,,,stim/Instruction_adaptive.png,conditions/adaptive.xlsx,test,0.6,0.6,0.6,-0.6,-0.6,right,R,,,,,0,1,1,1,0,9,9,70,,,,,,,,,,,,,,,,,,,,,,,,,,,,,,,,,,,,,,,,,,,,163.81352110000444,None,right,1,0.7129319999949075,164.31409250000434,165.36635390001175,164.31409250000434,164.86513560000458,164.31409250000434,164.86513560000458,164.31409250000434,164.86513560000458,164.31409250000434,164.86513560000458,164.31409250000434,164.86513560000458,164.831963500008,165.3324028000061,164.831963500008,165.3324028000061,164.831963500008,165.3324028000061,164.831963500008,165.3324028000061,164.831963500008,165.3324028000061,164.831963500008,165.3324028000061,164.831963500008,165.3324028000061,164.831963500008,165.3324028000061,164.31409250000434,None,165.3324028000061,167.16834270000982,0.5400000000000003,167.18495920000714,None,167.936586300013,None,,,,,,,[1.825],3.8900000000000032,0.7,12015,001,2024_Jun_22_1900,MFTM_A_new1021,2021.2.3,60.10312494161422,
,,,,,,,,stim/Instruction_adaptive.png,conditions/adaptive.xlsx,test,-0.6,-0.6,-0.6,0.6,0.6,left,L,,,,,0,1,1,1,0,10,10,43,,,,,,,,,,,,,,,,,,,,,,,,,,,,,,,,,,,,,,,,,,,,168.4371133000095,None,right,0,0.7531801000004634,168.93763510001008,169.8890562000015,168.93763510001008,169.38895800001046,168.93763510001008,169.38895800001046,168.93763510001008,169.38895800001046,168.93763510001008,169.38895800001046,168.93763510001008,169.38895800001046,169.35517040001287,169.8559352000011,169.35517040001287,169.8559352000011,169.35517040001287,169.8559352000011,169.35517040001287,169.8559352000011,169.35517040001287,169.8559352000011,169.35517040001287,169.8559352000011,169.35517040001287,169.8559352000011,169.35517040001287,169.8559352000011,168.93763510001008,None,169.8559352000011,171.70908820000477,0.44000000000000017,171.72519960001227,None,172.47664890000306,None,,,,,,,[1.84636364],3.2600000000000025,0.6363636363636364,12015,001,2024_Jun_22_1900,MFTM_A_new1021,2021.2.3,60.10312494161422,
,,,,,,,,stim/Instruction_adaptive.png,conditions/adaptive.xlsx,test,0.6,0.6,0.6,-0.6,-0.6,right,R,,,,,0,1,1,1,0,11,11,86,,,,,,,,,,,,,,,,,,,,,,,,,,,,,,,,,,,,,,,,,,,,172.97704010001326,None,left,0,0.8532241999928374,173.4779239000054,174.67972400000144,173.4779239000054,174.17939280001156,173.4779239000054,174.17939280001156,173.4779239000054,174.17939280001156,173.4779239000054,174.17939280001156,173.4779239000054,174.17939280001156,174.14587620001112,174.64645840000594,174.14587620001112,174.64645840000594,174.14587620001112,174.64645840000594,174.14587620001112,174.64645840000594,174.14587620001112,174.64645840000594,174.14587620001112,174.64645840000594,174.14587620001112,174.64645840000594,174.14587620001112,174.64645840000594,173.4779239000054,None,174.64645840000594,176.46639980000327,0.6900000000000004,176.48266170000716,None,177.23375560001296,None,,,,,,,[[1.81]],2.450000000000002,0.5833333333333334,12015,001,2024_Jun_22_1900,MFTM_A_new1021,2021.2.3,60.10312494161422,
,,,,,,,,stim/Instruction_adaptive.png,conditions/adaptive.xlsx,test,0.6,0.6,0.6,-0.6,-0.6,right,R,,,,,0,1,1,1,0,12,12,8,,,,,,,,,,,,,,,,,,,,,,,,,,,,,,,,,,,,,,,,,,,,177.7348159000103,None,right,1,0.6723176000086823,178.23506750000524,179.9381301000103,178.23506750000524,179.43723220001266,178.23506750000524,179.43723220001266,178.23506750000524,179.43723220001266,178.23506750000524,179.43723220001266,178.23506750000524,179.43723220001266,179.42058020000695,179.92134880000958,179.42058020000695,179.92134880000958,179.42058020000695,179.92134880000958,179.42058020000695,179.92134880000958,179.42058020000695,179.92134880000958,179.42058020000695,179.92134880000958,179.42058020000695,179.92134880000958,179.42058020000695,179.92134880000958,178.23506750000524,None,179.92134880000958,181.22283990000142,1.2000000000000008,181.23947470000712,None,181.99109190001036,None,,,,,,,[[1.3]],2.800000000000002,0.6153846153846154,12015,001,2024_Jun_22_1900,MFTM_A_new1021,2021.2.3,60.10312494161422,
,,,,,,,,stim/Instruction_adaptive.png,conditions/adaptive.xlsx,test,0.6,0.6,0.6,-0.6,-0.6,right,R,,,,,0,1,1,1,0,13,13,64,,,,,,,,,,,,,,,,,,,,,,,,,,,,,,,,,,,,,,,,,,,,182.4912503000087,None,right,1,0.8265241999906721,182.99275900000066,184.44453820001218,182.99275900000066,183.9439248000126,182.99275900000066,183.9439248000126,182.99275900000066,183.9439248000126,182.99275900000066,183.9439248000126,182.99275900000066,183.9439248000126,183.9103013000131,184.4112570000143,183.9103013000131,184.4112570000143,183.9103013000131,184.4112570000143,183.9103013000131,184.4112570000143,183.9103013000131,184.4112570000143,183.9103013000131,184.4112570000143,183.9103013000131,184.4112570000143,183.9103013000131,184.4112570000143,182.99275900000066,None,184.4112570000143,185.97996350000903,0.9400000000000006,185.99669470000663,None,186.74798310000915,None,,,,,,,[[1.56]],3.0500000000000025,0.6428571428571429,12015,001,2024_Jun_22_1900,MFTM_A_new1021,2021.2.3,60.10312494161422,
,,,,,,,,stim/Instruction_adaptive.png,conditions/adaptive.xlsx,test,0.6,0.6,0.6,-0.6,-0.6,right,R,,,,,0,1,1,1,0,14,14,48,,,,,,,,,,,,,,,,,,,,,,,,,,,,,,,,,,,,,,,,,,,,187.24871550001262,None,left,0,0.9585967000020901,187.74988750000193,189.05147150000266,187.74988750000193,188.55100250001124,187.74988750000193,188.55100250001124,187.74988750000193,188.55100250001124,187.74988750000193,188.55100250001124,187.74988750000193,188.55100250001124,188.51760690000083,189.01861160001135,188.51760690000083,189.01861160001135,188.51760690000083,189.01861160001135,188.51760690000083,189.01861160001135,188.51760690000083,189.01861160001135,188.51760690000083,189.01861160001135,188.51760690000083,189.01861160001135,188.51760690000083,189.01861160001135,187.74988750000193,None,189.01861160001135,190.73750630000723,0.7900000000000005,190.7536933000083,None,191.50512340001296,None,,,,,,,[[1.71]],2.450000000000002,0.6,12015,001,2024_Jun_22_1900,MFTM_A_new1021,2021.2.3,60.10312494161422,
,,,,,,,,stim/Instruction_adaptive.png,conditions/adaptive.xlsx,test,0.6,0.6,0.6,-0.6,-0.6,right,R,,,,,0,1,1,1,0,15,15,22,,,,,,,,,,,,,,,,,,,,,,,,,,,,,,,,,,,,,,,,,,,,192.0059922000073,None,right,1,1.209161499995389,192.50704410001345,194.2094589000044,192.50704410001345,193.70879920000152,192.50704410001345,193.70879920000152,192.50704410001345,193.70879920000152,192.50704410001345,193.70879920000152,192.50704410001345,193.70879920000152,193.69175660000474,194.19261520000873,193.69175660000474,194.19261520000873,193.69175660000474,194.19261520000873,193.69175660000474,194.19261520000873,193.69175660000474,194.19261520000873,193.69175660000474,194.19261520000873,193.69175660000474,194.19261520000873,193.69175660000474,194.19261520000873,192.50704410001345,None,194.19261520000873,195.49498040000617,1.2000000000000008,195.5109647000063,None,196.2639446000103,None,,,,,,,[[1.3]],2.700000000000002,0.625,12015,001,2024_Jun_22_1900,MFTM_A_new1021,2021.2.3,60.10312494161422,
,,,,,,,,stim/Instruction_adaptive.png,conditions/adaptive.xlsx,test,-0.6,-0.6,-0.6,0.6,0.6,left,L,,,,,0,1,1,1,0,16,16,13,,,,,,,,,,,,,,,,,,,,,,,,,,,,,,,,,,,,,,,,,,,,196.76362030000018,None,right,0,0.9956221999891568,197.26433850001195,198.78324110001267,197.26433850001195,198.28202150001016,197.26433850001195,198.28202150001016,197.26433850001195,198.28202150001016,197.26433850001195,198.28202150001016,197.26433850001195,198.28202150001016,198.2651867000095,198.76657050001086,198.2651867000095,198.76657050001086,198.2651867000095,198.76657050001086,198.2651867000095,198.76657050001086,198.2651867000095,198.76657050001086,198.2651867000095,198.76657050001086,198.2651867000095,198.76657050001086,198.2651867000095,198.76657050001086,197.26433850001195,None,198.76657050001086,None,1.0100000000000007,200.26816880000115,None,201.01936300001398,None,,,,,,,[[1.49]],2.0800000000000014,0.5882352941176471,12015,001,2024_Jun_22_1900,MFTM_A_new1021,2021.2.3,60.10312494161422,
,,,,,,,,stim/Instruction_adaptive.png,conditions/adaptive.xlsx,test,-0.6,-0.6,-0.6,0.6,0.6,left,L,,,,,0,1,1,1,0,17,17,75,,,,,,,,,,,,,,,,,,,,,,,,,,,,,,,,,,,,,,,,,,,,201.52080650000426,None,left,1,1.2623475000000326,202.02152050001314,204.0911325000052,202.02152050001314,203.58988580000005,202.02152050001314,203.58988580000005,202.02152050001314,203.58988580000005,202.02152050001314,203.58988580000005,202.02152050001314,203.58988580000005,203.5570366000029,204.0579018000135,203.5570366000029,204.0579018000135,203.5570366000029,204.0579018000135,203.5570366000029,204.0579018000135,203.5570366000029,204.0579018000135,203.5570366000029,204.0579018000135,203.5570366000029,204.0579018000135,203.5570366000029,204.0579018000135,202.02152050001314,None,204.0579018000135,205.00883610000892,1.5600000000000012,205.02560660000017,None,205.7767889000097,None,,,,,,,[[0.94]],2.3400000000000016,0.6111111111111112,12015,001,2024_Jun_22_1900,MFTM_A_new1021,2021.2.3,60.10312494161422,
,,,,,,,,stim/Instruction_adaptive.png,conditions/adaptive.xlsx,test,-0.6,-0.6,-0.6,0.6,0.6,left,L,,,,,0,1,1,1,0,18,18,65,,,,,,,,,,,,,,,,,,,,,,,,,,,,,,,,,,,,,,,,,,,,206.27797060000012,None,left,1,1.225876900003641,206.77833810000448,208.5815672000026,206.77833810000448,208.0801508000004,206.77833810000448,208.0801508000004,206.77833810000448,208.0801508000004,206.77833810000448,208.0801508000004,206.77833810000448,208.0801508000004,208.06366870000784,208.56427780000377,208.06366870000784,208.56427780000377,208.06366870000784,208.56427780000377,208.06366870000784,208.56427780000377,208.06366870000784,208.56427780000377,208.06366870000784,208.56427780000377,208.06366870000784,208.56427780000377,208.06366870000784,208.56427780000377,206.77833810000448,None,208.56427780000377,209.76669750000292,1.300000000000001,209.7828518000024,None,210.53419820001,None,,,,,,,[[1.2]],2.540000000000002,0.631578947368421,12015,001,2024_Jun_22_1900,MFTM_A_new1021,2021.2.3,60.10312494161422,
,,,,,,,,stim/Instruction_adaptive.png,conditions/adaptive.xlsx,test,0.6,0.6,0.6,-0.6,-0.6,right,R,,,,,0,1,1,1,0,19,19,58,,,,,,,,,,,,,,,,,,,,,,,,,,,,,,,,,,,,,,,,,,,,211.0349983000051,None,right,1,1.0288599999912549,211.5357723000052,213.1713432000106,211.5357723000052,212.6706366000144,211.5357723000052,212.6706366000144,211.5357723000052,212.6706366000144,211.5357723000052,212.6706366000144,211.5357723000052,212.6706366000144,212.6537062000134,213.15526020000107,212.6537062000134,213.15526020000107,212.6537062000134,213.15526020000107,212.6537062000134,213.15526020000107,212.6537062000134,213.15526020000107,212.6537062000134,213.15526020000107,212.6537062000134,213.15526020000107,212.6537062000134,213.15526020000107,211.5357723000052,None,213.15526020000107,None,1.1300000000000008,214.54004520000308,None,215.29146050001145,None,,,,,,,[[1.37]],2.690000000000002,0.65,12015,001,2024_Jun_22_1900,MFTM_A_new1021,2021.2.3,60.10312494161422,
,,,,,,,,stim/Instruction_adaptive.png,conditions/adaptive.xlsx,test,0.6,0.6,0.6,-0.6,-0.6,right,R,,,,,0,1,1,1,0,20,20,92,,,,,,,,,,,,,,,,,,,,,,,,,,,,,,,,,,,,,,,,,,,,215.79211040001246,None,right,1,1.2559957000048598,216.29263750000973,217.82828880001034,216.29263750000973,217.32746490000864,216.29263750000973,217.32746490000864,216.29263750000973,217.32746490000864,216.29263750000973,217.32746490000864,216.29263750000973,217.32746490000864,217.29426420001255,217.79480240000703,217.29426420001255,217.79480240000703,217.29426420001255,217.79480240000703,217.29426420001255,217.79480240000703,217.29426420001255,217.79480240000703,217.29426420001255,217.79480240000703,217.29426420001255,217.79480240000703,217.29426420001255,217.79480240000703,216.29263750000973,None,217.79480240000703,219.28079360000265,1.0200000000000007,219.29760340000212,None,220.0483294000005,None,,,,,,,[[1.48]],2.830000000000002,0.6666666666666666,12015,001,2024_Jun_22_1900,MFTM_A_new1021,2021.2.3,60.10312494161422,
,,,,,,,,stim/Instruction_adaptive.png,conditions/adaptive.xlsx,test,0.6,0.6,0.6,-0.6,-0.6,right,R,,,,,0,1,1,1,0,21,21,74,,,,,,,,,,,,,,,,,,,,,,,,,,,,,,,,,,,,,,,,,,,,220.5493162000057,None,right,1,0.9071779000078095,221.04959080000117,222.4856618000049,221.04959080000117,221.98459950000688,221.04959080000117,221.98459950000688,221.04959080000117,221.98459950000688,221.04959080000117,221.98459950000688,221.04959080000117,221.98459950000688,221.96784350000962,222.4686182000005,221.96784350000962,222.4686182000005,221.96784350000962,222.4686182000005,221.96784350000962,222.4686182000005,221.96784350000962,222.4686182000005,221.96784350000962,222.4686182000005,221.96784350000962,222.4686182000005,221.96784350000962,222.4686182000005,221.04959080000117,None,222.4686182000005,224.03789120000147,0.9300000000000006,224.05435860001307,None,224.80613620000076,None,,,,,,,[[1.57]],2.940000000000002,0.6818181818181818,12015,001,2024_Jun_22_1900,MFTM_A_new1021,2021.2.3,60.10312494161422,
,,,,,,,,stim/Instruction_adaptive.png,conditions/adaptive.xlsx,test,-0.6,-0.6,-0.6,0.6,0.6,left,L,,,,,0,1,1,1,0,22,22,1,,,,,,,,,,,,,,,,,,,,,,,,,,,,,,,,,,,,,,,,,,,,225.3062123000127,None,right,0,1.0458890000008978,225.80694660000154,227.17581900001096,225.80694660000154,226.67501420000917,225.80694660000154,226.67501420000917,225.80694660000154,226.67501420000917,225.80694660000154,226.67501420000917,225.80694660000154,226.67501420000917,226.64159490000748,227.1421490000066,226.64159490000748,227.1421490000066,226.64159490000748,227.1421490000066,226.64159490000748,227.1421490000066,226.64159490000748,227.1421490000066,226.64159490000748,227.1421490000066,226.64159490000748,227.1421490000066,226.64159490000748,227.1421490000066,225.80694660000154,None,227.1421490000066,228.79479670000728,0.8600000000000005,228.81133100000443,None,229.56317220001074,None,,,,,,,[1.63826087],2.6300000000000017,0.6521739130434783,12015,001,2024_Jun_22_1900,MFTM_A_new1021,2021.2.3,60.10312494161422,
,,,,,,,,stim/Instruction_adaptive.png,conditions/adaptive.xlsx,test,-0.6,-0.6,-0.6,0.6,0.6,left,L,,,,,0,1,1,1,0,23,23,99,,,,,,,,,,,,,,,,,,,,,,,,,,,,,,,,,,,,,,,,,,,,230.06361130000732,None,left,1,1.185030499997083,230.56403410001076,232.1331945000129,230.56403410001076,231.63275540000177,230.56403410001076,231.63275540000177,230.56403410001076,231.63275540000177,230.56403410001076,231.63275540000177,230.56403410001076,231.63275540000177,231.59946160000982,232.10025120001228,231.59946160000982,232.10025120001228,231.59946160000982,232.10025120001228,231.59946160000982,232.10025120001228,231.59946160000982,232.10025120001228,231.59946160000982,232.10025120001228,231.59946160000982,232.10025120001228,231.59946160000982,232.10025120001228,230.56403410001076,None,232.10025120001228,233.55222400001367,1.0600000000000007,233.56854820001172,None,234.31972530001076,None,,,,,,,[[1.44]],2.740000000000002,0.6666666666666666,12015,001,2024_Jun_22_1900,MFTM_A_new1021,2021.2.3,60.10312494161422,
,,,,,,,,stim/Instruction_adaptive.png,conditions/adaptive.xlsx,test,-0.6,-0.6,-0.6,0.6,0.6,left,L,,,,,0,1,1,1,0,24,24,51,,,,,,,,,,,,,,,,,,,,,,,,,,,,,,,,,,,,,,,,,,,,234.82087090000277,None,left,1,1.0271827000105986,235.32159700000193,236.80712000001222,235.32159700000193,236.30651960000978,235.32159700000193,236.30651960000978,235.32159700000193,236.30651960000978,235.32159700000193,236.30651960000978,235.32159700000193,236.30651960000978,236.28966840000066,236.79017010000825,236.28966840000066,236.79017010000825,236.28966840000066,236.79017010000825,236.28966840000066,236.79017010000825,236.28966840000066,236.79017010000825,236.28966840000066,236.79017010000825,236.28966840000066,236.79017010000825,236.28966840000066,236.79017010000825,235.32159700000193,None,236.79017010000825,238.3091601000051,0.9800000000000006,238.325851600006,None,239.07842250000976,None,,,,,,,[[1.52]],2.8500000000000023,0.68,12015,001,2024_Jun_22_1900,MFTM_A_new1021,2021.2.3,60.10312494161422,
,,,,,,,,stim/Instruction_adaptive.png,conditions/adaptive.xlsx,test,-0.6,-0.6,-0.6,0.6,0.6,left,L,,,,,0,1,1,1,0,25,25,79,,,,,,,,,,,,,,,,,,,,,,,,,,,,,,,,,,,,,,,,,,,,239.57799560000421,None,left,1,1.0054658000008203,240.07967470001313,241.49737870000536,240.07967470001313,240.996321300001,240.07967470001313,240.996321300001,240.07967470001313,240.996321300001,240.07967470001313,240.996321300001,240.07967470001313,240.996321300001,240.98020630000974,241.48119420000876,240.98020630000974,241.48119420000876,240.98020630000974,241.48119420000876,240.98020630000974,241.48119420000876,240.98020630000974,241.48119420000876,240.98020630000974,241.48119420000876,240.98020630000974,241.48119420000876,240.98020630000974,241.48119420000876,240.07967470001313,None,241.48119420000876,None,0.9100000000000006,243.08309130000998,None,243.8344095000066,None,,,,,,,[[1.59]],2.940000000000002,0.6923076923076923,12015,001,2024_Jun_22_1900,MFTM_A_new1021,2021.2.3,60.10312494161422,
,,,,,,,,stim/Instruction_adaptive.png,conditions/adaptive.xlsx,test,0.6,0.6,0.6,-0.6,-0.6,right,R,,,,,0,1,1,1,0,26,26,94,,,,,,,,,,,,,,,,,,,,,,,,,,,,,,,,,,,,,,,,,,,,244.33484200001112,None,right,1,0.6972775999893202,244.8360825000127,246.2046277000045,244.8360825000127,245.70398220000789,244.8360825000127,245.70398220000789,244.8360825000127,245.70398220000789,244.8360825000127,245.70398220000789,244.8360825000127,245.70398220000789,245.67029500000353,246.17147430000477,245.67029500000353,246.17147430000477,245.67029500000353,246.17147430000477,245.67029500000353,246.17147430000477,245.67029500000353,246.17147430000477,245.67029500000353,246.17147430000477,245.67029500000353,246.17147430000477,245.67029500000353,246.17147430000477,244.8360825000127,None,246.17147430000477,247.8073948000092,0.8600000000000005,247.82336390001,None,248.57504450000124,None,,,,,,,[1.62481481],3.0200000000000022,0.7037037037037037,12015,001,2024_Jun_22_1900,MFTM_A_new1021,2021.2.3,60.10312494161422,
,,,,,,,,stim/Instruction_adaptive.png,conditions/adaptive.xlsx,test,0.6,0.6,0.6,-0.6,-0.6,right,R,,,,,0,1,1,1,0,27,27,30,,,,,,,,,,,,,,,,,,,,,,,,,,,,,,,,,,,,,,,,,,,,249.07565590000013,None,right,1,1.053151699990849,249.57624490000308,250.89519490000384,249.57624490000308,250.39443590000155,249.57624490000308,250.39443590000155,249.57624490000308,250.39443590000155,249.57624490000308,250.39443590000155,249.57624490000308,250.39443590000155,250.37741930001357,250.87865440000314,250.37741930001357,250.87865440000314,250.37741930001357,250.87865440000314,250.37741930001357,250.87865440000314,250.37741930001357,250.87865440000314,250.37741930001357,250.87865440000314,250.37741930001357,250.87865440000314,250.37741930001357,250.87865440000314,249.57624490000308,None,250.87865440000314,None,0.8100000000000005,252.51422020001337,None,253.2654753000097,None,,,,,,,[1.62714286],3.1000000000000023,0.7142857142857143,12015,001,2024_Jun_22_1900,MFTM_A_new1021,2021.2.3,60.10312494161422,
,,,,,,,,stim/Instruction_adaptive.png,conditions/adaptive.xlsx,test,-0.6,-0.6,-0.6,0.6,0.6,left,L,,,,,0,1,1,1,0,28,28,3,,,,,,,,,,,,,,,,,,,,,,,,,,,,,,,,,,,,,,,,,,,,253.76679890000378,None,left,1,0.9313275000022259,254.2666581000085,255.53506220001145,254.2666581000085,255.05154070000572,254.2666581000085,255.05154070000572,254.2666581000085,255.05154070000572,254.2666581000085,255.05154070000572,254.2666581000085,255.05154070000572,255.0176674000104,255.51920190000965,255.0176674000104,255.51920190000965,255.0176674000104,255.51920190000965,255.0176674000104,255.51920190000965,255.0176674000104,255.51920190000965,255.0176674000104,255.51920190000965,255.0176674000104,255.51920190000965,255.0176674000104,255.51920190000965,254.2666581000085,None,255.51920190000965,257.1542843000061,0.7700000000000005,257.1709833000059,None,257.9221893000067,None,,,,,,,[1.63068966],3.1700000000000026,0.7241379310344828,12015,001,2024_Jun_22_1900,MFTM_A_new1021,2021.2.3,60.10312494161422,
,,,,,,,,stim/Instruction_adaptive.png,conditions/adaptive.xlsx,test,-0.6,-0.6,-0.6,0.6,0.6,left,L,,,,,0,1,1,1,0,29,29,29,,,,,,,,,,,,,,,,,,,,,,,,,,,,,,,,,,,,,,,,,,,,258.42302740000014,None,left,1,0.9542585000017425,258.92370690000826,260.1590724000125,258.92370690000826,259.65823120001005,258.92370690000826,259.65823120001005,258.92370690000826,259.65823120001005,258.92370690000826,259.65823120001005,258.92370690000826,259.65823120001005,259.6416570000001,260.14248750000843,259.6416570000001,260.14248750000843,259.6416570000001,260.14248750000843,259.6416570000001,260.14248750000843,259.6416570000001,260.14248750000843,259.6416570000001,260.14248750000843,259.6416570000001,260.14248750000843,259.6416570000001,260.14248750000843,258.92370690000826,None,260.14248750000843,261.77816910001275,0.7300000000000004,261.79450600000564,None,262.54617390000203,None,,,,,,,[1.63533333],3.2400000000000024,0.7333333333333333,12015,001,2024_Jun_22_1900,MFTM_A_new1021,2021.2.3,60.10312494161422,
,,,,,,,,stim/Instruction_adaptive.png,conditions/adaptive.xlsx,test,-0.6,-0.6,-0.6,0.6,0.6,left,L,,,,,0,1,1,1,0,30,30,83,,,,,,,,,,,,,,,,,,,,,,,,,,,,,,,,,,,,,,,,,,,,263.04644550000376,None,left,1,0.8910302000003867,263.5474263000069,264.7492971000029,263.5474263000069,264.24948700000823,263.5474263000069,264.24948700000823,263.5474263000069,264.24948700000823,263.5474263000069,264.24948700000823,263.5474263000069,264.24948700000823,264.23186880000867,264.7323737000115,264.23186880000867,264.7323737000115,264.23186880000867,264.7323737000115,264.23186880000867,264.7323737000115,264.23186880000867,264.7323737000115,264.23186880000867,264.7323737000115,264.23186880000867,264.7323737000115,264.23186880000867,264.7323737000115,263.5474263000069,None,264.7323737000115,266.38518280000426,0.7000000000000004,266.4019507000048,None,267.152682800006,None,,,,,,,[1.64064516],3.3000000000000025,0.7419354838709677,12015,001,2024_Jun_22_1900,MFTM_A_new1021,2021.2.3,60.10312494161422,
,,,,,,,,stim/Instruction_adaptive.png,conditions/adaptive.xlsx,test,-0.6,-0.6,-0.6,0.6,0.6,left,L,,,,,0,1,1,1,0,31,31,21,,,,,,,,,,,,,,,,,,,,,,,,,,,,,,,,,,,,,,,,,,,,267.6538753000059,None,left,1,0.7642115000053309,268.15402560000075,269.32264580001356,268.15402560000075,268.8387703000044,268.15402560000075,268.8387703000044,268.15402560000075,268.8387703000044,268.15402560000075,268.8387703000044,268.15402560000075,268.8387703000044,268.8055583000096,269.30665650000446,268.8055583000096,269.30665650000446,268.8055583000096,269.30665650000446,268.8055583000096,269.30665650000446,268.8055583000096,269.30665650000446,268.8055583000096,269.30665650000446,268.8055583000096,269.30665650000446,268.8055583000096,269.30665650000446,268.15402560000075,None,269.30665650000446,270.9591439000069,0.6700000000000004,270.9750423000078,None,271.72620020000613,None,,,,,,,[1.6465625],3.3600000000000025,0.75,12015,001,2024_Jun_22_1900,MFTM_A_new1021,2021.2.3,60.10312494161422,
,,,,,,,,stim/Instruction_adaptive.png,conditions/adaptive.xlsx,test,-0.6,-0.6,-0.6,0.6,0.6,left,L,,,,,0,1,1,1,0,32,32,97,,,,,,,,,,,,,,,,,,,,,,,,,,,,,,,,,,,,,,,,,,,,272.2269922000123,None,left,1,0.6783043000032194,272.7277466000087,273.8797373000125,272.7277466000087,273.37882790000003,272.7277466000087,273.37882790000003,272.7277466000087,273.37882790000003,272.7277466000087,273.37882790000003,272.7277466000087,273.37882790000003,273.34560390000115,273.8462115000002,273.34560390000115,273.8462115000002,273.34560390000115,273.8462115000002,273.34560390000115,273.8462115000002,273.34560390000115,273.8462115000002,273.34560390000115,273.8462115000002,273.34560390000115,273.8462115000002,273.34560390000115,273.8462115000002,272.7277466000087,None,273.8462115000002,275.4988913000125,0.6400000000000003,275.53216930000053,None,276.2831925000064,None,,,,,,,[1.6530303],3.4200000000000026,0.7575757575757576,12015,001,2024_Jun_22_1900,MFTM_A_new1021,2021.2.3,60.10312494161422,
,,,,,,,,stim/Instruction_adaptive.png,conditions/adaptive.xlsx,test,0.6,0.6,0.6,-0.6,-0.6,right,R,,,,,0,1,1,1,0,33,33,44,,,,,,,,,,,,,,,,,,,,,,,,,,,,,,,,,,,,,,,,,,,,276.78408820000186,None,left,0,0.8017533999955049,277.2847252000065,278.4043496000086,277.2847252000065,277.9026547000103,277.2847252000065,277.9026547000103,277.2847252000065,277.9026547000103,277.2847252000065,277.9026547000103,277.2847252000065,277.9026547000103,277.86905670000124,278.37024160000146,277.86905670000124,278.37024160000146,277.86905670000124,278.37024160000146,277.86905670000124,278.37024160000146,277.86905670000124,278.37024160000146,277.86905670000124,278.37024160000146,277.86905670000124,278.37024160000146,277.86905670000124,278.37024160000146,277.2847252000065,None,278.37024160000146,280.03902370001015,0.6100000000000003,280.0552455000143,None,280.80664060001436,None,,,,,,,[1.66],3.2600000000000025,0.7352941176470589,12015,001,2024_Jun_22_1900,MFTM_A_new1021,2021.2.3,60.10312494161422,
,,,,,,,,stim/Instruction_adaptive.png,conditions/adaptive.xlsx,test,0.6,0.6,0.6,-0.6,-0.6,right,R,,,,,0,1,1,1,0,34,34,82,,,,,,,,,,,,,,,,,,,,,,,,,,,,,,,,,,,,,,,,,,,,281.3079776000086,None,right,1,0.9822424000012688,281.8085768000019,283.0101963000052,281.8085768000019,282.50924680000753,281.8085768000019,282.50924680000753,281.8085768000019,282.50924680000753,281.8085768000019,282.50924680000753,281.8085768000019,282.50924680000753,282.47624810000707,282.97675650000747,282.47624810000707,282.97675650000747,282.47624810000707,282.97675650000747,282.47624810000707,282.97675650000747,282.47624810000707,282.97675650000747,282.47624810000707,282.97675650000747,282.47624810000707,282.97675650000747,282.47624810000707,282.97675650000747,281.8085768000019,None,282.97675650000747,284.64595750000444,0.6900000000000004,284.6624131000135,None,285.4137658000109,None,,,,,,,[1.66428571],3.3200000000000025,0.7428571428571429,12015,001,2024_Jun_22_1900,MFTM_A_new1021,2021.2.3,60.10312494161422,
,,,,,,,,stim/Instruction_adaptive.png,conditions/adaptive.xlsx,test,-0.6,-0.6,-0.6,0.6,0.6,left,L,,,,,0,1,1,1,0,35,35,91,,,,,,,,,,,,,,,,,,,,,,,,,,,,,,,,,,,,,,,,,,,,285.91442550001375,None,right,0,0.7913785999990068,286.41516709999996,287.58425040000293,286.41516709999996,287.08302060001006,286.41516709999996,287.08302060001006,286.41516709999996,287.08302060001006,286.41516709999996,287.08302060001006,286.41516709999996,287.08302060001006,287.066149700011,287.56713530000707,287.066149700011,287.56713530000707,287.066149700011,287.56713530000707,287.066149700011,287.56713530000707,287.066149700011,287.56713530000707,287.066149700011,287.56713530000707,287.066149700011,287.56713530000707,287.066149700011,287.56713530000707,286.41516709999996,None,287.56713530000707,289.2362723000115,0.6600000000000004,289.25266770001326,None,290.00411170000734,None,,,,,,,[1.66916667],3.1600000000000024,0.7222222222222222,12015,001,2024_Jun_22_1900,MFTM_A_new1021,2021.2.3,60.10312494161422,
,,,,,,,,stim/Instruction_adaptive.png,conditions/adaptive.xlsx,test,-0.6,-0.6,-0.6,0.6,0.6,left,L,,,,,0,1,1,1,0,36,36,41,,,,,,,,,,,,,,,,,,,,,,,,,,,,,,,,,,,,,,,,,,,,290.50507490000746,None,right,0,1.041256999989855,291.00556220000726,292.25743790001434,291.00556220000726,291.75725050001347,291.00556220000726,291.75725050001347,291.00556220000726,291.75725050001347,291.00556220000726,291.75725050001347,291.00556220000726,291.75725050001347,291.7234113000013,292.224572600011,291.7234113000013,292.224572600011,291.7234113000013,292.224572600011,291.7234113000013,292.224572600011,291.7234113000013,292.224572600011,291.7234113000013,292.224572600011,291.7234113000013,292.224572600011,291.7234113000013,292.224572600011,291.00556220000726,None,292.224572600011,293.9100471000129,0.7400000000000004,293.92698020000535,None,294.67768590000924,None,,,,,,,[1.67162162],2.990000000000002,0.7027027027027027,12015,001,2024_Jun_22_1900,MFTM_A_new1021,2021.2.3,60.10312494161422,
,,,,,,,,stim/Instruction_adaptive.png,conditions/adaptive.xlsx,test,0.6,0.6,0.6,-0.6,-0.6,right,R,,,,,0,1,1,1,0,37,37,10,,,,,,,,,,,,,,,,,,,,,,,,,,,,,,,,,,,,,,,,,,,,295.1785424000118,None,right,1,1.0476227000035578,295.67936790001113,297.01470410000184,295.67936790001113,296.5138016000128,295.67936790001113,296.5138016000128,295.67936790001113,296.5138016000128,295.67936790001113,296.5138016000128,295.67936790001113,296.5138016000128,296.4973432000115,296.99809090000053,296.4973432000115,296.99809090000053,296.4973432000115,296.99809090000053,296.4973432000115,296.99809090000053,296.4973432000115,296.99809090000053,296.4973432000115,296.99809090000053,296.4973432000115,296.99809090000053,296.4973432000115,296.99809090000053,295.67936790001113,None,296.99809090000053,298.66840290000255,0.8300000000000005,298.68368620000547,None,299.4351344000024,None,,,,,,,[[1.67]],3.0500000000000025,0.7105263157894737,12015,001,2024_Jun_22_1900,MFTM_A_new1021,2021.2.3,60.10312494161422,
,,,,,,,,stim/Instruction_adaptive.png,conditions/adaptive.xlsx,test,0.6,0.6,0.6,-0.6,-0.6,right,R,,,,,0,1,1,1,0,38,38,60,,,,,,,,,,,,,,,,,,,,,,,,,,,,,,,,,,,,,,,,,,,,299.9359622000047,None,left,0,1.2182216999935918,300.43678070000897,301.73910550000437,300.43678070000897,301.23793730000034,300.43678070000897,301.23793730000034,300.43678070000897,301.23793730000034,300.43678070000897,301.23793730000034,300.43678070000897,301.23793730000034,301.20444390000193,301.7052404000133,301.20444390000193,301.7052404000133,301.20444390000193,301.7052404000133,301.20444390000193,301.7052404000133,301.20444390000193,301.7052404000133,301.20444390000193,301.7052404000133,301.20444390000193,301.7052404000133,301.20444390000193,301.7052404000133,300.43678070000897,None,301.7052404000133,303.3910942000075,0.7900000000000005,303.4072970000125,None,304.1588773000112,None,,,,,,,[1.6725641],2.880000000000002,0.6923076923076923,12015,001,2024_Jun_22_1900,MFTM_A_new1021,2021.2.3,60.10312494161422,
,,,,,,,,stim/Instruction_adaptive.png,conditions/adaptive.xlsx,test,0.6,0.6,0.6,-0.6,-0.6,right,R,,,,,0,1,1,1,0,39,39,16,,,,,,,,,,,,,,,,,,,,,,,,,,,,,,,,,,,,,,,,,,,,304.6592532000068,None,right,1,0.9024082999967504,305.16052670001227,306.5622865000041,305.16052670001227,306.06168110000726,305.16052670001227,306.06168110000726,305.16052670001227,306.06168110000726,305.16052670001227,306.06168110000726,305.16052670001227,306.06168110000726,306.02837090000685,306.5290651000105,306.02837090000685,306.5290651000105,306.02837090000685,306.5290651000105,306.02837090000685,306.5290651000105,306.02837090000685,306.5290651000105,306.02837090000685,306.5290651000105,306.02837090000685,306.5290651000105,306.02837090000685,306.5290651000105,305.16052670001227,None,306.5290651000105,308.14815950000775,0.8900000000000006,308.1647600000142,None,308.9159512000042,None,,,,,,,[[1.61]],2.940000000000002,0.7,12015,001,2024_Jun_22_1900,MFTM_A_new1021,2021.2.3,60.10312494161422,
,,,,,,,,stim/Instruction_adaptive.png,conditions/adaptive.xlsx,test,-0.6,-0.6,-0.6,0.6,0.6,left,L,,,,,0,1,1,1,0,40,40,7,,,,,,,,,,,,,,,,,,,,,,,,,,,,,,,,,,,,,,,,,,,,309.4167019000015,None,left,1,0.7855267000122694,309.91766850001295,311.28674780001165,309.91766850001295,310.78533670000616,309.91766850001295,310.78533670000616,309.91766850001295,310.78533670000616,309.91766850001295,310.78533670000616,309.91766850001295,310.78533670000616,310.7522083000076,311.25334710000607,310.7522083000076,311.25334710000607,310.7522083000076,311.25334710000607,310.7522083000076,311.25334710000607,310.7522083000076,311.25334710000607,310.7522083000076,311.25334710000607,310.7522083000076,311.25334710000607,310.7522083000076,311.25334710000607,309.91766850001295,None,311.25334710000607,312.9056763000117,0.8600000000000005,312.9217678000132,None,313.6737914000114,None,,,,,,,[[1.64]],3.000000000000002,0.7073170731707317,12015,001,2024_Jun_22_1900,MFTM_A_new1021,2021.2.3,60.10312494161422,
,,,,,,,,stim/Instruction_adaptive.png,conditions/adaptive.xlsx,test,-0.6,-0.6,-0.6,0.6,0.6,left,L,,,,,0,1,1,1,0,41,41,95,,,,,,,,,,,,,,,,,,,,,,,,,,,,,,,,,,,,,,,,,,,,314.1741364000045,None,right,0,0.9804078000015579,314.6749845000013,316.01020950000384,314.6749845000013,315.50917630000913,314.6749845000013,315.50917630000913,314.6749845000013,315.50917630000913,314.6749845000013,315.50917630000913,314.6749845000013,315.50917630000913,315.47567770000023,315.97685710000223,315.47567770000023,315.97685710000223,315.47567770000023,315.97685710000223,315.47567770000023,315.97685710000223,315.47567770000023,315.97685710000223,315.47567770000023,315.97685710000223,315.47567770000023,315.97685710000223,315.47567770000023,315.97685710000223,314.6749845000013,None,315.97685710000223,317.66245920000074,0.8200000000000005,317.67873370001325,None,318.4304768000002,None,,,,,,,[1.67047619],2.840000000000002,0.6904761904761905,12015,001,2024_Jun_22_1900,MFTM_A_new1021,2021.2.3,60.10312494161422,
,,,,,,,,stim/Instruction_adaptive.png,conditions/adaptive.xlsx,test,-0.6,-0.6,-0.6,0.6,0.6,left,L,,,,,0,1,1,1,0,42,42,37,,,,,,,,,,,,,,,,,,,,,,,,,,,,,,,,,,,,,,,,,,,,318.9313506000035,None,right,0,1.016199300007429,319.4317297000089,320.8673467000044,319.4317297000089,320.36653930001194,319.4317297000089,320.36653930001194,319.4317297000089,320.36653930001194,319.4317297000089,320.36653930001194,319.4317297000089,320.36653930001194,320.33340250000765,320.8338347000099,320.33340250000765,320.8338347000099,320.33340250000765,320.8338347000099,320.33340250000765,320.8338347000099,320.33340250000765,320.8338347000099,320.33340250000765,320.8338347000099,320.33340250000765,320.8338347000099,320.33340250000765,320.8338347000099,319.4317297000089,None,320.8338347000099,322.4195774000109,0.9200000000000006,322.4361334000132,None,323.1877807000128,None,,,,,,,[[1.58]],2.660000000000002,0.6744186046511628,12015,001,2024_Jun_22_1900,MFTM_A_new1021,2021.2.3,60.10312494161422,
,,,,,,,,stim/Instruction_adaptive.png,conditions/adaptive.xlsx,test,-0.6,-0.6,-0.6,0.6,0.6,left,L,,,,,0,1,1,1,0,43,43,59,,,,,,,,,,,,,,,,,,,,,,,,,,,,,,,,,,,,,,,,,,,,323.6888287000038,None,left,1,1.2907482000009622,324.1890537000145,325.7411912000098,324.1890537000145,325.24119800000335,324.1890537000145,325.24119800000335,324.1890537000145,325.24119800000335,324.1890537000145,325.24119800000335,324.1890537000145,325.24119800000335,325.20724610000616,325.7082466000138,325.20724610000616,325.7082466000138,325.20724610000616,325.7082466000138,325.20724610000616,325.7082466000138,325.20724610000616,325.7082466000138,325.20724610000616,325.7082466000138,325.20724610000616,325.7082466000138,325.20724610000616,325.7082466000138,324.1890537000145,None,325.7082466000138,327.17683620000025,1.0400000000000007,327.19351050000114,None,327.94472600000154,None,,,,,,,[[1.46]],2.720000000000002,0.6818181818181818,12015,001,2024_Jun_22_1900,MFTM_A_new1021,2021.2.3,60.10312494161422,
,,,,,,,,stim/Instruction_adaptive.png,conditions/adaptive.xlsx,test,-0.6,-0.6,-0.6,0.6,0.6,left,L,,,,,0,1,1,1,0,44,44,27,,,,,,,,,,,,,,,,,,,,,,,,,,,,,,,,,,,,,,,,,,,,328.44605300000694,None,left,1,1.1891438999882666,328.9465801000042,330.44886280001083,328.9465801000042,329.94793390000996,328.9465801000042,329.94793390000996,328.9465801000042,329.94793390000996,328.9465801000042,329.94793390000996,328.9465801000042,329.94793390000996,329.93126350000966,330.43193400000746,329.93126350000966,330.43193400000746,329.93126350000966,330.43193400000746,329.93126350000966,330.43193400000746,329.93126350000966,330.43193400000746,329.93126350000966,330.43193400000746,329.93126350000966,330.43193400000746,329.93126350000966,330.43193400000746,328.9465801000042,None,330.43193400000746,331.93439800001215,1.0000000000000007,331.95145970000885,None,332.70181490000687,None,,,,,,,[[1.5]],2.780000000000002,0.6888888888888889,12015,001,2024_Jun_22_1900,MFTM_A_new1021,2021.2.3,60.10312494161422,
,,,,,,,,stim/Instruction_adaptive.png,conditions/adaptive.xlsx,test,0.6,0.6,0.6,-0.6,-0.6,right,R,,,,,0,1,1,1,0,45,45,90,,,,,,,,,,,,,,,,,,,,,,,,,,,,,,,,,,,,,,,,,,,,333.20256900000095,None,left,0,1.5855614999891259,333.7032358000142,335.17292850000376,333.7032358000142,334.67152550000174,333.7032358000142,334.67152550000174,333.7032358000142,334.67152550000174,333.7032358000142,334.67152550000174,333.7032358000142,334.67152550000174,334.6547655000031,335.1558778000035,334.6547655000031,335.1558778000035,334.6547655000031,335.1558778000035,334.6547655000031,335.1558778000035,334.6547655000031,335.1558778000035,334.6547655000031,335.1558778000035,334.6547655000031,335.1558778000035,334.6547655000031,335.1558778000035,333.7032358000142,None,335.13957110000774,336.6926181000017,0.9600000000000006,336.7074927000067,None,337.45919930000673,None,,,,,,,[[1.54]],2.610000000000002,0.6739130434782609,12015,001,2024_Jun_22_1900,MFTM_A_new1021,2021.2.3,60.10312494161422,
,,,,,,,,stim/Instruction_adaptive.png,conditions/adaptive.xlsx,test,0.6,0.6,0.6,-0.6,-0.6,right,R,,,,,0,1,1,1,0,46,46,4,,,,,,,,,,,,,,,,,,,,,,,,,,,,,,,,,,,,,,,,,,,,337.95997540000826,None,left,0,1.6925233999936609,338.46043780000764,340.04616860000533,338.46043780000764,339.54538320000574,338.46043780000764,339.54538320000574,338.46043780000764,339.54538320000574,338.46043780000764,339.54538320000574,338.46043780000764,339.54538320000574,339.52861980001035,340.0300600000046,339.52861980001035,340.0300600000046,339.52861980001035,340.0300600000046,339.52861980001035,340.0300600000046,339.52861980001035,340.0300600000046,339.52861980001035,340.0300600000046,339.52861980001035,340.0300600000046,339.52861980001035,340.0300600000046,338.46043780000764,None,340.0300600000046,None,1.0800000000000007,341.46506670000963,None,342.2162997000123,None,,,,,,,[[1.42]],2.4300000000000015,0.6595744680851063,12015,001,2024_Jun_22_1900,MFTM_A_new1021,2021.2.3,60.10312494161422,
,,,,,,,,stim/Instruction_adaptive.png,conditions/adaptive.xlsx,test,0.6,0.6,0.6,-0.6,-0.6,right,R,,,,,0,1,1,1,0,47,47,50,,,,,,,,,,,,,,,,,,,,,,,,,,,,,,,,,,,,,,,,,,,,342.71738280000864,None,left,0,1.527194199996302,343.21777120001207,344.9374158000137,343.21777120001207,344.4528393000073,343.21777120001207,344.4528393000073,343.21777120001207,344.4528393000073,343.21777120001207,344.4528393000073,343.21777120001207,344.4528393000073,344.4197353000054,344.9202127000026,344.4197353000054,344.9202127000026,344.4197353000054,344.9202127000026,344.4197353000054,344.9202127000026,344.4197353000054,344.9202127000026,344.4197353000054,344.9202127000026,344.4197353000054,344.9202127000026,344.4197353000054,344.9202127000026,343.21777120001207,None,344.9202127000026,346.2059400000144,1.2200000000000009,346.22230890000355,None,346.97395010000037,None,,,,,,,[[1.28]],2.2200000000000015,0.6458333333333334,12015,001,2024_Jun_22_1900,MFTM_A_new1021,2021.2.3,60.10312494161422,
,,,,,,,,stim/Instruction_adaptive.png,conditions/adaptive.xlsx,test,0.6,0.6,0.6,-0.6,-0.6,right,R,,,,,0,1,1,1,0,48,48,56,,,,,,,,,,,,,,,,,,,,,,,,,,,,,,,,,,,,,,,,,,,,347.4739810000028,None,left,0,1.7772019999974873,347.97509370000625,349.89482540001336,347.97509370000625,349.39373130000604,347.97509370000625,349.39373130000604,347.97509370000625,349.39373130000604,347.97509370000625,349.39373130000604,347.97509370000625,349.39373130000604,349.36076460000186,349.8612167000101,349.36076460000186,349.8612167000101,349.36076460000186,349.8612167000101,349.36076460000186,349.8612167000101,349.36076460000186,349.8612167000101,349.36076460000186,349.8612167000101,349.36076460000186,349.8612167000101,349.36076460000186,349.8612167000101,347.97509370000625,None,349.8612167000101,350.96269340001163,1.410000000000001,350.9794513000088,None,351.73055520000344,None,,,,,,,[[1.09]],1.9700000000000013,0.6326530612244898,12015,001,2024_Jun_22_1900,MFTM_A_new1021,2021.2.3,60.10312494161422,
,,,,,,,,stim/Instruction_adaptive.png,conditions/adaptive.xlsx,test,0.6,0.6,0.6,-0.6,-0.6,right,R,,,,,0,1,1,1,0,49,49,0,,,,,,,,,,,,,,,,,,,,,,,,,,,,,,,,,,,,,,,,,,,,352.2322000000131,None,right,1,1.1726694000099087,352.73186980000173,354.91936440000427,352.73186980000173,354.4178360000078,352.73186980000173,354.4178360000078,352.73186980000173,354.4178360000078,352.73186980000173,354.4178360000078,352.73186980000173,354.4178360000078,354.40149270000984,354.90215640001406,354.40149270000984,354.90215640001406,354.40149270000984,354.90215640001406,354.40149270000984,354.90215640001406,354.40149270000984,354.90215640001406,354.40149270000984,354.90215640001406,354.40149270000984,354.90215640001406,354.40149270000984,354.90215640001406,352.73186980000173,None,354.90215640001406,None,1.6800000000000013,355.73658790001355,None,356.4879090000031,None,,,,,,,[[0.82]],2.0600000000000014,0.64,12015,001,2024_Jun_22_1900,MFTM_A_new1021,2021.2.3,60.10312494161422,
,,,,,,,,stim/Instruction_adaptive.png,conditions/adaptive.xlsx,test,0.6,0.6,0.6,-0.6,-0.6,right,R,,,,,0,1,1,1,0,50,50,40,,,,,,,,,,,,,,,,,,,,,,,,,,,,,,,,,,,,,,,,,,,,356.9888418000046,None,right,1,0.9359756000048947,357.48915160000615,359.5770185000001,357.48915160000615,359.07503580000775,357.48915160000615,359.07503580000775,357.48915160000615,359.07503580000775,357.48915160000615,359.07503580000775,357.48915160000615,359.07503580000775,359.058303400001,359.55895460001193,359.058303400001,359.55895460001193,359.058303400001,359.55895460001193,359.058303400001,359.55895460001193,359.058303400001,359.55895460001193,359.058303400001,359.55895460001193,359.058303400001,359.55895460001193,359.058303400001,359.55895460001193,357.48915160000615,None,359.55895460001193,None,1.5800000000000012,360.493682100001,None,361.2453536000103,None,,,,,,,[[0.92]],2.1400000000000015,0.6470588235294118,12015,001,2024_Jun_22_1900,MFTM_A_new1021,2021.2.3,60.10312494161422,
,,,,,,,,stim/Instruction_adaptive.png,conditions/adaptive.xlsx,test,-0.6,-0.6,-0.6,0.6,0.6,left,L,,,,,0,1,1,1,0,51,51,73,,,,,,,,,,,,,,,,,,,,,,,,,,,,,,,,,,,,,,,,,,,,361.74625240000023,None,right,0,2.4189126000128454,362.24662300001364,364.2494227000134,362.24662300001364,363.7493445,362.24662300001364,363.7493445,362.24662300001364,363.7493445,362.24662300001364,363.7493445,362.24662300001364,363.7493445,363.71526040000026,364.21629600001324,363.71526040000026,364.21629600001324,363.71526040000026,364.21629600001324,363.71526040000026,364.21629600001324,363.71526040000026,364.21629600001324,363.71526040000026,364.21629600001324,363.71526040000026,364.21629600001324,363.71526040000026,364.21629600001324,362.24662300001364,None,364.21629600001324,365.23518790000526,1.490000000000001,365.2506496000133,None,366.0022506000096,None,,,,,,,[[1.01]],1.9100000000000013,0.6346153846153846,12015,001,2024_Jun_22_1900,MFTM_A_new1021,2021.2.3,60.10312494161422,
,,,,,,,,stim/Instruction_adaptive.png,conditions/adaptive.xlsx,test,0.6,0.6,0.6,-0.6,-0.6,right,R,,,,,0,1,1,1,0,52,52,6,,,,,,,,,,,,,,,,,,,,,,,,,,,,,,,,,,,,,,,,,,,,366.5031498000026,None,left,0,1.5413296000042465,367.0035410000128,369.25772320000397,367.0035410000128,368.7564652000001,367.0035410000128,368.7564652000001,367.0035410000128,368.7564652000001,367.0035410000128,368.7564652000001,367.0035410000128,368.7564652000001,368.7395752000011,369.24052870000014,368.7395752000011,369.24052870000014,368.7395752000011,369.24052870000014,368.7395752000011,369.24052870000014,368.7395752000011,369.24052870000014,368.7395752000011,369.24052870000014,368.7395752000011,369.24052870000014,368.7395752000011,369.24052870000014,367.0035410000128,None,369.24052870000014,369.99144660000456,1.7500000000000013,370.0082251000131,None,370.75971080000454,None,,,,,,,[[0.75]],1.630000000000001,0.6226415094339622,12015,001,2024_Jun_22_1900,MFTM_A_new1021,2021.2.3,60.10312494161422,
,,,,,,,,stim/Instruction_adaptive.png,conditions/adaptive.xlsx,test,0.6,0.6,0.6,-0.6,-0.6,right,R,,,,,0,1,1,1,0,53,53,98,,,,,,,,,,,,,,,,,,,,,,,,,,,,,,,,,,,,,,,,,,,,371.26028390000283,None,right,1,1.456510200005141,371.7608004000067,374.3984399000037,371.7608004000067,373.8975469000143,371.7608004000067,373.8975469000143,371.7608004000067,373.8975469000143,371.7608004000067,373.8975469000143,371.7608004000067,373.8975469000143,373.8809077000042,374.38165540000773,373.8809077000042,374.38165540000773,373.8809077000042,374.38165540000773,373.8809077000042,374.38165540000773,373.8809077000042,374.38165540000773,373.8809077000042,374.38165540000773,373.8809077000042,374.38165540000773,373.8809077000042,374.38165540000773,371.7608004000067,None,374.38165540000773,None,2.1300000000000017,374.7657151000021,None,375.51664680000977,None,,,,,,,[[0.37]],1.740000000000001,0.6296296296296297,12015,001,2024_Jun_22_1900,MFTM_A_new1021,2021.2.3,60.10312494161422,
,,,,,,,,stim/Instruction_adaptive.png,conditions/adaptive.xlsx,test,0.6,0.6,0.6,-0.6,-0.6,right,R,,,,,0,1,1,1,0,54,54,62,,,,,,,,,,,,,,,,,,,,,,,,,,,,,,,,,,,,,,,,,,,,376.018244100007,None,right,1,1.6276323000056436,376.5179482000094,378.98820830001205,376.5179482000094,378.4877092000097,376.5179482000094,378.4877092000097,376.5179482000094,378.4877092000097,376.5179482000094,378.4877092000097,376.5179482000094,378.4877092000097,378.47090000000026,378.9715680000081,378.47090000000026,378.9715680000081,378.47090000000026,378.9715680000081,378.47090000000026,378.9715680000081,378.47090000000026,378.9715680000081,378.47090000000026,378.9715680000081,378.47090000000026,378.9715680000081,378.47090000000026,378.9715680000081,376.5179482000094,None,378.9715680000081,379.5061865000025,1.9700000000000015,379.5224232000037,None,380.27366210000764,None,,,,,,,[[0.53]],1.8300000000000012,0.6363636363636364,12015,001,2024_Jun_22_1900,MFTM_A_new1021,2021.2.3,60.10312494161422,
,,,,,,,,stim/Instruction_adaptive.png,conditions/adaptive.xlsx,test,0.6,0.6,0.6,-0.6,-0.6,right,R,,,,,0,1,1,1,0,55,55,36,,,,,,,,,,,,,,,,,,,,,,,,,,,,,,,,,,,,,,,,,,,,380.77486510000017,None,right,1,1.541842100006761,381.27569520000543,383.62892880001164,381.27569520000543,383.1283678000036,381.27569520000543,383.1283678000036,381.27569520000543,383.1283678000036,381.27569520000543,383.1283678000036,381.27569520000543,383.1283678000036,383.11154860000534,383.61220410000533,383.11154860000534,383.61220410000533,383.11154860000534,383.61220410000533,383.11154860000534,383.61220410000533,383.11154860000534,383.61220410000533,383.11154860000534,383.61220410000533,383.11154860000534,383.61220410000533,383.11154860000534,383.61220410000533,381.27569520000543,None,383.61220410000533,384.26320660000783,1.8500000000000014,384.2795017000026,None,385.0313709000038,None,,,,,,,[[0.65]],1.9100000000000013,0.6428571428571429,12015,001,2024_Jun_22_1900,MFTM_A_new1021,2021.2.3,60.10312494161422,
,,,,,,,,stim/Instruction_adaptive.png,conditions/adaptive.xlsx,test,-0.6,-0.6,-0.6,0.6,0.6,left,L,,,,,0,1,1,1,0,56,56,25,,,,,,,,,,,,,,,,,,,,,,,,,,,,,,,,,,,,,,,,,,,,385.5319390000077,None,right,0,1.3852521999942837,386.0324624000059,388.28586540000106,386.0324624000059,387.78492790000746,386.0324624000059,387.78492790000746,386.0324624000059,387.78492790000746,386.0324624000059,387.78492790000746,386.0324624000059,387.78492790000746,387.76820150000276,388.2691727000056,387.76820150000276,388.2691727000056,387.76820150000276,388.2691727000056,387.76820150000276,388.2691727000056,387.76820150000276,388.2691727000056,387.76820150000276,388.2691727000056,387.76820150000276,388.2691727000056,387.76820150000276,388.2691727000056,386.0324624000059,None,388.2691727000056,389.0206334000104,1.7500000000000013,389.0366908000142,None,389.78861610000604,None,,,,,,,[[0.75]],1.680000000000001,0.631578947368421,12015,001,2024_Jun_22_1900,MFTM_A_new1021,2021.2.3,60.10312494161422,
,,,,,,,,stim/Instruction_adaptive.png,conditions/adaptive.xlsx,test,0.6,0.6,0.6,-0.6,-0.6,right,R,,,,,0,1,1,1,0,57,57,34,,,,,,,,,,,,,,,,,,,,,,,,,,,,,,,,,,,,,,,,,,,,390.2888826000126,None,right,1,1.1958124000084354,390.78983430001244,393.34496670000954,390.78983430001244,392.8427246000065,390.78983430001244,392.8427246000065,390.78983430001244,392.8427246000065,390.78983430001244,392.8427246000065,390.78983430001244,392.8427246000065,392.82595640000363,393.32660070000566,392.82595640000363,393.32660070000566,392.82595640000363,393.32660070000566,392.82595640000363,393.32660070000566,392.82595640000363,393.32660070000566,392.82595640000363,393.32660070000566,392.82595640000363,393.32660070000566,392.82595640000363,393.32660070000566,390.78983430001244,None,393.32660070000566,393.7772748000134,2.0500000000000016,393.793932200002,None,394.5458831000142,None,,,,,,,[[0.45]],1.7700000000000011,0.6379310344827587,12015,001,2024_Jun_22_1900,MFTM_A_new1021,2021.2.3,60.10312494161422,
,,,,,,,,stim/Instruction_adaptive.png,conditions/adaptive.xlsx,test,-0.6,-0.6,-0.6,0.6,0.6,left,L,,,,,0,1,1,1,0,58,58,9,,,,,,,,,,,,,,,,,,,,,,,,,,,,,,,,,,,,,,,,,,,,395.04655700000876,None,left,1,1.390659600001527,395.54714010001044,397.9838075000007,395.54714010001044,397.4831572000112,395.54714010001044,397.4831572000112,395.54714010001044,397.4831572000112,395.54714010001044,397.4831572000112,395.54714010001044,397.4831572000112,397.46618470000976,397.9676373000111,397.46618470000976,397.9676373000111,397.46618470000976,397.9676373000111,397.46618470000976,397.9676373000111,397.46618470000976,397.9676373000111,397.46618470000976,397.9676373000111,397.46618470000976,397.9676373000111,397.46618470000976,397.9676373000111,395.54714010001044,None,397.9502965000138,398.5346669000137,1.9300000000000015,398.5513185000018,None,399.3026557000121,None,,,,,,,[[0.57]],1.8400000000000012,0.6440677966101694,12015,001,2024_Jun_22_1900,MFTM_A_new1021,2021.2.3,60.10312494161422,
,,,,,,,,stim/Instruction_adaptive.png,conditions/adaptive.xlsx,test,0.6,0.6,0.6,-0.6,-0.6,right,R,,,,,0,1,1,1,0,59,59,68,,,,,,,,,,,,,,,,,,,,,,,,,,,,,,,,,,,,,,,,,,,,399.8034665000014,None,right,1,0.9942548999970313,400.30378430000565,402.65781460001017,400.30378430000565,402.15678960000514,400.30378430000565,402.15678960000514,400.30378430000565,402.15678960000514,400.30378430000565,402.15678960000514,400.30378430000565,402.15678960000514,402.1232551000139,402.62435630000255,402.1232551000139,402.62435630000255,402.1232551000139,402.62435630000255,402.1232551000139,402.62435630000255,402.1232551000139,402.62435630000255,402.1232551000139,402.62435630000255,402.1232551000139,402.62435630000255,402.1232551000139,402.62435630000255,400.30378430000565,None,402.62435630000255,403.2917856000131,1.8400000000000014,403.30846500000916,None,404.0599555000081,None,,,,,,,[[0.66]],1.9100000000000013,0.65,12015,001,2024_Jun_22_1900,MFTM_A_new1021,2021.2.3,60.10312494161422,
,,,,,,,,stim/Instruction_adaptive.png,conditions/adaptive.xlsx,test,0.6,0.6,0.6,-0.6,-0.6,right,R,,,,,0,1,1,1,0,60,60,38,,,,,,,,,,,,,,,,,,,,,,,,,,,,,,,,,,,,,,,,,,,,404.5609182000044,None,right,1,1.05280109999876,405.0614993000054,407.3147551000002,405.0614993000054,406.8135549000144,405.0614993000054,406.8135549000144,405.0614993000054,406.8135549000144,405.0614993000054,406.8135549000144,405.0614993000054,406.8135549000144,406.7973794000136,407.2982001000055,406.7973794000136,407.2982001000055,406.7973794000136,407.2982001000055,406.7973794000136,407.2982001000055,406.7973794000136,407.2982001000055,406.7973794000136,407.2982001000055,406.7973794000136,407.2982001000055,406.7973794000136,407.2982001000055,405.0614993000054,None,407.2982001000055,408.0495915000065,1.7500000000000013,408.06562790001044,None,408.8171411000076,None,,,,,,,[[0.75]],1.9800000000000013,0.6557377049180327,12015,001,2024_Jun_22_1900,MFTM_A_new1021,2021.2.3,60.10312494161422,
,,,,,,,,stim/Instruction_adaptive.png,conditions/adaptive.xlsx,test,0.6,0.6,0.6,-0.6,-0.6,right,R,,,,,0,1,1,1,0,61,61,46,,,,,,,,,,,,,,,,,,,,,,,,,,,,,,,,,,,,,,,,,,,,409.31795630000124,None,right,1,1.4561287999968044,409.81822430000466,411.98899340000935,409.81822430000466,411.48782030001166,409.81822430000466,411.48782030001166,409.81822430000466,411.48782030001166,409.81822430000466,411.48782030001166,409.81822430000466,411.48782030001166,411.4710131000029,411.97152600000845,411.4710131000029,411.97152600000845,411.4710131000029,411.97152600000845,411.4710131000029,411.97152600000845,411.4710131000029,411.97152600000845,411.4710131000029,411.97152600000845,411.4710131000029,411.97152600000845,411.4710131000029,411.97152600000845,409.81822430000466,None,411.97152600000845,412.807939300008,1.6700000000000013,412.8229113000125,None,413.5740352000139,None,,,,,,,[[0.83]],2.030000000000001,0.6612903225806451,12015,001,2024_Jun_22_1900,MFTM_A_new1021,2021.2.3,60.10312494161422,
,,,,,,,,stim/Instruction_adaptive.png,conditions/adaptive.xlsx,test,-0.6,-0.6,-0.6,0.6,0.6,left,L,,,,,0,1,1,1,0,62,62,77,,,,,,,,,,,,,,,,,,,,,,,,,,,,,,,,,,,,,,,,,,,,414.0749311000109,None,left,1,0.9469211999967229,414.5755889000138,416.6954672000138,414.5755889000138,416.19444730000396,414.5755889000138,416.19444730000396,414.5755889000138,416.19444730000396,414.5755889000138,416.19444730000396,414.5755889000138,416.19444730000396,416.1615131000144,416.66251520000515,416.1615131000144,416.66251520000515,416.1615131000144,416.66251520000515,416.1615131000144,416.66251520000515,416.1615131000144,416.66251520000515,416.1615131000144,416.66251520000515,416.1615131000144,416.66251520000515,416.1615131000144,416.66251520000515,414.5755889000138,None,416.66251520000515,417.56347020000976,1.6100000000000012,417.58044810000865,None,418.3322695000097,None,,,,,,,[[0.89]],2.0900000000000016,0.6666666666666666,12015,001,2024_Jun_22_1900,MFTM_A_new1021,2021.2.3,60.10312494161422,
,,,,,,,,stim/Instruction_adaptive.png,conditions/adaptive.xlsx,test,0.6,0.6,0.6,-0.6,-0.6,right,R,,,,,0,1,1,1,0,63,63,66,,,,,,,,,,,,,,,,,,,,,,,,,,,,,,,,,,,,,,,,,,,,418.8321516000142,None,left,0,1.6458162000053562,419.33260080000036,421.3856805000105,419.33260080000036,420.8854730000021,419.33260080000036,420.8854730000021,419.33260080000036,420.8854730000021,419.33260080000036,420.8854730000021,419.33260080000036,420.8854730000021,420.8696869000123,421.36944520000543,420.8696869000123,421.36944520000543,420.8696869000123,421.36944520000543,420.8696869000123,421.36944520000543,420.8696869000123,421.36944520000543,420.8696869000123,421.36944520000543,420.8696869000123,421.36944520000543,420.8696869000123,421.36944520000543,419.33260080000036,None,421.36944520000543,422.32066380001197,1.5500000000000012,422.33658690001175,None,423.08894970000256,None,,,,,,,[[0.95]],1.9300000000000013,0.65625,12015,001,2024_Jun_22_1900,MFTM_A_new1021,2021.2.3,60.10312494161422,
,,,,,,,,stim/Instruction_adaptive.png,conditions/adaptive.xlsx,test,-0.6,-0.6,-0.6,0.6,0.6,left,L,,,,,0,1,1,1,0,64,64,61,,,,,,,,,,,,,,,,,,,,,,,,,,,,,,,,,,,,,,,,,,,,423.5892142000084,None,right,0,1.0018342999974266,424.08987100000377,426.3268296000024,424.08987100000377,425.82612480000535,424.08987100000377,425.82612480000535,424.08987100000377,425.82612480000535,424.08987100000377,425.82612480000535,424.08987100000377,425.82612480000535,425.809534,426.3101454000134,425.809534,426.3101454000134,425.809534,426.3101454000134,425.809534,426.3101454000134,425.809534,426.3101454000134,425.809534,426.3101454000134,425.809534,426.3101454000134,425.809534,426.3101454000134,424.08987100000377,None,426.3101454000134,None,1.7300000000000013,427.09426410000015,None,427.84552010000334,None,,,,,,,[[0.77]],1.7600000000000011,0.6461538461538462,12015,001,2024_Jun_22_1900,MFTM_A_new1021,2021.2.3,60.10312494161422,
,,,,,,,,stim/Instruction_adaptive.png,conditions/adaptive.xlsx,test,-0.6,-0.6,-0.6,0.6,0.6,left,L,,,,,0,1,1,1,0,65,65,23,,,,,,,,,,,,,,,,,,,,,,,,,,,,,,,,,,,,,,,,,,,,428.3470148000051,None,right,0,1.2281182000006083,428.8469349000079,431.3009830000083,428.8469349000079,430.8005462000001,428.8469349000079,430.8005462000001,428.8469349000079,430.8005462000001,428.8469349000079,430.8005462000001,428.8469349000079,430.8005462000001,430.7668476000108,431.2676291000098,430.7668476000108,431.2676291000098,430.7668476000108,431.2676291000098,430.7668476000108,431.2676291000098,430.7668476000108,431.2676291000098,430.7668476000108,431.2676291000098,430.7668476000108,431.2676291000098,430.7668476000108,431.2676291000098,428.8469349000079,None,431.2676291000098,431.8347460000077,1.9400000000000015,431.85144590001437,None,432.60264980001375,None,,,,,,,[[0.56]],1.560000000000001,0.6363636363636364,12015,001,2024_Jun_22_1900,MFTM_A_new1021,2021.2.3,60.10312494161422,
,,,,,,,,stim/Instruction_adaptive.png,conditions/adaptive.xlsx,test,-0.6,-0.6,-0.6,0.6,0.6,left,L,,,,,0,1,1,1,0,66,66,71,,,,,,,,,,,,,,,,,,,,,,,,,,,,,,,,,,,,,,,,,,,,433.1038014000078,None,right,0,1.0548235000023851,433.6044636000006,436.34227510000346,433.6044636000006,435.84085540000524,433.6044636000006,435.84085540000524,433.6044636000006,435.84085540000524,433.6044636000006,435.84085540000524,433.6044636000006,435.84085540000524,435.80745820001175,436.30895540000347,435.80745820001175,436.30895540000347,435.80745820001175,436.30895540000347,435.80745820001175,436.30895540000347,435.80745820001175,436.30895540000347,435.80745820001175,436.30895540000347,435.80745820001175,436.30895540000347,435.80745820001175,436.30895540000347,433.6044636000006,None,436.30895540000347,436.59601200000907,2.2300000000000018,436.6081460000132,None,437.36017510000966,None,,,,,,,[[0.27]],1.3300000000000007,0.6268656716417911,12015,001,2024_Jun_22_1900,MFTM_A_new1021,2021.2.3,60.10312494161422,
,,,,,,,,stim/Instruction_adaptive.png,conditions/adaptive.xlsx,test,0.6,0.6,0.6,-0.6,-0.6,right,R,,,,,0,1,1,1,0,67,67,84,,,,,,,,,,,,,,,,,,,,,,,,,,,,,,,,,,,,,,,,,,,,437.8606058000005,None,right,1,1.6423312000115402,438.36127740000666,None,438.36127740000666,440.9823505000095,438.36127740000666,440.9823505000095,438.36127740000666,440.9823505000095,438.36127740000666,440.9823505000095,438.36127740000666,440.9823505000095,440.96557120000944,441.46664880000753,440.96557120000944,441.46664880000753,440.96557120000944,441.46664880000753,440.96557120000944,441.46664880000753,440.96557120000944,441.46664880000753,440.96557120000944,441.46664880000753,440.96557120000944,441.46664880000753,440.96557120000944,441.46664880000753,438.36127740000666,None,441.46664880000753,441.46664880000753,2.620000000000002,441.48325860001205,None,442.2341643000109,None,,,,,,,0,1.4100000000000008,0.6323529411764706,12015,001,2024_Jun_22_1900,MFTM_A_new1021,2021.2.3,60.10312494161422,
,,,,,,,,stim/Instruction_adaptive.png,conditions/adaptive.xlsx,test,0.6,0.6,0.6,-0.6,-0.6,right,R,,,,,0,1,1,1,0,68,68,28,,,,,,,,,,,,,,,,,,,,,,,,,,,,,,,,,,,,,,,,,,,,442.7352855000063,None,right,1,2.0398360999970464,443.23545690000174,446.2234854000126,443.23545690000174,445.7228457000019,443.23545690000174,445.7228457000019,443.23545690000174,445.7228457000019,443.23545690000174,445.7228457000019,443.23545690000174,445.7228457000019,445.6892441000091,446.1902582000039,445.6892441000091,446.1902582000039,445.6892441000091,446.1902582000039,445.6892441000091,446.1902582000039,445.6892441000091,446.1902582000039,445.6892441000091,446.1902582000039,445.6892441000091,446.1902582000039,445.6892441000091,446.1902582000039,443.23545690000174,None,446.1902582000039,446.2234854000126,2.480000000000002,446.24002600001404,None,446.9913264000061,None,,,,,,,[[0.02]],1.4900000000000009,0.6376811594202898,12015,001,2024_Jun_22_1900,MFTM_A_new1021,2021.2.3,60.10312494161422,
,,,,,,,,stim/Instruction_adaptive.png,conditions/adaptive.xlsx,test,-0.6,-0.6,-0.6,0.6,0.6,left,L,,,,,0,1,1,1,0,69,69,85,,,,,,,,,,,,,,,,,,,,,,,,,,,,,,,,,,,,,,,,,,,,447.4924653000053,None,left,1,2.5869999999995343,447.99287680001,450.8475192000042,447.99287680001,450.34630350000225,447.99287680001,450.34630350000225,447.99287680001,450.34630350000225,447.99287680001,450.34630350000225,447.99287680001,450.34630350000225,450.3134781000117,450.81383080000523,450.3134781000117,450.81383080000523,450.3134781000117,450.81383080000523,450.3134781000117,450.81383080000523,450.3134781000117,450.81383080000523,450.3134781000117,450.81383080000523,450.3134781000117,450.81383080000523,450.3134781000117,450.81383080000523,447.99287680001,None,450.81383080000523,450.98101220000535,2.3400000000000016,450.99727890000213,None,451.7489076000056,None,,,,,,,[[0.16]],1.560000000000001,0.6428571428571429,12015,001,2024_Jun_22_1900,MFTM_A_new1021,2021.2.3,60.10312494161422,
,,,,,,,,stim/Instruction_adaptive.png,conditions/adaptive.xlsx,test,-0.6,-0.6,-0.6,0.6,0.6,left,L,,,,,0,1,1,1,0,70,70,45,,,,,,,,,,,,,,,,,,,,,,,,,,,,,,,,,,,,,,,,,,,,452.24912610001047,None,left,1,1.7497309999889694,452.7500180000061,455.4873923000123,452.7500180000061,454.9864981000137,452.7500180000061,454.9864981000137,452.7500180000061,454.9864981000137,452.7500180000061,454.9864981000137,452.7500180000061,454.9864981000137,454.95309490000363,455.4541864000057,454.95309490000363,455.4541864000057,454.95309490000363,455.4541864000057,454.95309490000363,455.4541864000057,454.95309490000363,455.4541864000057,454.95309490000363,455.4541864000057,454.95309490000363,455.4541864000057,454.95309490000363,455.4541864000057,452.7500180000061,None,455.4541864000057,455.73826270000427,2.2300000000000018,455.7550547000137,None,456.5055262000096,None,,,,,,,[[0.27]],1.620000000000001,0.647887323943662,12015,001,2024_Jun_22_1900,MFTM_A_new1021,2021.2.3,60.10312494161422,
,,,,,,,,stim/Instruction_adaptive.png,conditions/adaptive.xlsx,test,-0.6,-0.6,-0.6,0.6,0.6,left,L,,,,,0,1,1,1,0,71,71,49,,,,,,,,,,,,,,,,,,,,,,,,,,,,,,,,,,,,,,,,,,,,457.00660710000375,None,left,1,1.080941400010488,457.5072715000133,460.16102540001157,457.5072715000133,459.6601478000084,457.5072715000133,459.6601478000084,457.5072715000133,459.6601478000084,457.5072715000133,459.6601478000084,457.5072715000133,459.6601478000084,459.6272405000054,460.12796250000247,459.6272405000054,460.12796250000247,459.6272405000054,460.12796250000247,459.6272405000054,460.12796250000247,459.6272405000054,460.12796250000247,459.6272405000054,460.12796250000247,459.6272405000054,460.12796250000247,459.6272405000054,460.12796250000247,457.5072715000133,None,460.12796250000247,460.4952496000042,2.1400000000000015,460.512475800002,None,461.26349790001404,None,,,,,,,[[0.36]],1.680000000000001,0.6527777777777778,12015,001,2024_Jun_22_1900,MFTM_A_new1021,2021.2.3,60.10312494161422,
,,,,,,,,stim/Instruction_adaptive.png,conditions/adaptive.xlsx,test,-0.6,-0.6,-0.6,0.6,0.6,left,L,,,,,0,1,1,1,0,72,72,53,,,,,,,,,,,,,,,,,,,,,,,,,,,,,,,,,,,,,,,,,,,,461.7636921000085,None,left,1,1.6839103999955114,462.26408400000946,464.8188327000098,462.26408400000946,464.3174818000116,462.26408400000946,464.3174818000116,462.26408400000946,464.3174818000116,462.26408400000946,464.3174818000116,462.26408400000946,464.3174818000116,464.30108410000685,464.8016248000058,464.30108410000685,464.8016248000058,464.30108410000685,464.8016248000058,464.30108410000685,464.8016248000058,464.30108410000685,464.8016248000058,464.30108410000685,464.8016248000058,464.30108410000685,464.8016248000058,464.30108410000685,464.8016248000058,462.26408400000946,None,464.8016248000058,465.2533732000011,2.0500000000000016,465.2686519000126,None,466.0205663000088,None,,,,,,,[[0.45]],1.730000000000001,0.6575342465753424,12015,001,2024_Jun_22_1900,MFTM_A_new1021,2021.2.3,60.10312494161422,
,,,,,,,,stim/Instruction_adaptive.png,conditions/adaptive.xlsx,test,0.6,0.6,0.6,-0.6,-0.6,right,R,,,,,0,1,1,1,0,73,73,42,,,,,,,,,,,,,,,,,,,,,,,,,,,,,,,,,,,,,,,,,,,,466.52075960001093,None,right,1,1.7830851000035182,467.02122670000244,469.5087096000061,467.02122670000244,469.0079972000094,467.02122670000244,469.0079972000094,467.02122670000244,469.0079972000094,467.02122670000244,469.0079972000094,467.02122670000244,469.0079972000094,468.9910673000122,469.49212130000524,468.9910673000122,469.49212130000524,468.9910673000122,469.49212130000524,468.9910673000122,469.49212130000524,468.9910673000122,469.49212130000524,468.9910673000122,469.49212130000524,468.9910673000122,469.49212130000524,468.9910673000122,469.49212130000524,467.02122670000244,None,469.49212130000524,None,1.9800000000000015,470.0259674000117,None,470.77744130000065,None,,,,,,,[[0.52]],1.7900000000000011,0.6621621621621622,12015,001,2024_Jun_22_1900,MFTM_A_new1021,2021.2.3,60.10312494161422,
,,,,,,,,stim/Instruction_adaptive.png,conditions/adaptive.xlsx,test,0.6,0.6,0.6,-0.6,-0.6,right,R,,,,,0,1,1,1,0,74,74,18,,,,,,,,,,,,,,,,,,,,,,,,,,,,,,,,,,,,,,,,,,,,471.2778864000138,None,right,1,1.7614870999968844,471.77875020001375,474.182429700013,471.77875020001375,473.6816649000102,471.77875020001375,473.6816649000102,471.77875020001375,473.6816649000102,471.77875020001375,473.6816649000102,471.77875020001375,473.6816649000102,473.6647621000011,474.1661232000042,473.6647621000011,474.1661232000042,473.6647621000011,474.1661232000042,473.6647621000011,474.1661232000042,473.6647621000011,474.1661232000042,473.6647621000011,474.1661232000042,473.6647621000011,474.1661232000042,473.6647621000011,474.1661232000042,471.77875020001375,None,474.1661232000042,474.7669373000099,1.9000000000000015,474.7832455000025,None,475.53483130001405,None,,,,,,,[[0.6]],1.8300000000000012,0.6666666666666666,12015,001,2024_Jun_22_1900,MFTM_A_new1021,2021.2.3,60.10312494161422,
,,,,,,,,stim/Instruction_adaptive.png,conditions/adaptive.xlsx,test,-0.6,-0.6,-0.6,0.6,0.6,left,L,,,,,0,1,1,1,0,75,75,67,,,,,,,,,,,,,,,,,,,,,,,,,,,,,,,,,,,,,,,,,,,,476.0348898000084,None,left,1,1.5166897000017343,476.53562680000323,478.8893573000096,476.53562680000323,478.3883458000055,476.53562680000323,478.3883458000055,476.53562680000323,478.3883458000055,476.53562680000323,478.3883458000055,476.53562680000323,478.3883458000055,478.371753000014,478.87276300000667,478.371753000014,478.87276300000667,478.371753000014,478.87276300000667,478.371753000014,478.87276300000667,478.371753000014,478.87276300000667,478.371753000014,478.87276300000667,478.371753000014,478.87276300000667,478.371753000014,478.87276300000667,476.53562680000323,None,478.87276300000667,479.52527380001266,1.8500000000000014,479.54022010001063,None,480.29200250000576,None,,,,,,,[[0.65]],1.8800000000000012,0.6710526315789473,12015,001,2024_Jun_22_1900,MFTM_A_new1021,2021.2.3,60.10312494161422,
,,,,,,,,stim/Instruction_adaptive.png,conditions/adaptive.xlsx,test,0.6,0.6,0.6,-0.6,-0.6,right,R,,,,,0,1,1,1,0,76,76,32,,,,,,,,,,,,,,,,,,,,,,,,,,,,,,,,,,,,,,,,,,,,480.7925193000119,None,right,1,1.3753498999867588,481.29315500000666,483.59645580001234,481.29315500000666,483.0959764000145,481.29315500000666,483.0959764000145,481.29315500000666,483.0959764000145,481.29315500000666,483.0959764000145,481.29315500000666,483.0959764000145,483.0622899000009,483.56327020000026,483.0622899000009,483.56327020000026,483.0622899000009,483.56327020000026,483.0622899000009,483.56327020000026,483.0622899000009,483.56327020000026,483.0622899000009,483.56327020000026,483.0622899000009,483.56327020000026,483.0622899000009,483.56327020000026,481.29315500000666,None,483.56327020000026,484.28147260000696,1.7900000000000014,484.2975066000072,None,485.04902660001244,None,,,,,,,[[0.71]],1.9200000000000013,0.6753246753246753,12015,001,2024_Jun_22_1900,MFTM_A_new1021,2021.2.3,60.10312494161422,
,,,,,,,,stim/Instruction_adaptive.png,conditions/adaptive.xlsx,test,-0.6,-0.6,-0.6,0.6,0.6,left,L,,,,,0,1,1,1,0,77,77,81,,,,,,,,,,,,,,,,,,,,,,,,,,,,,,,,,,,,,,,,,,,,485.54963040001167,None,right,0,1.635463600003277,486.05000700001256,488.30360310000833,486.05000700001256,487.8030773000064,486.05000700001256,487.8030773000064,486.05000700001256,487.8030773000064,486.05000700001256,487.8030773000064,486.05000700001256,487.8030773000064,487.76931290001085,488.27071320000687,487.76931290001085,488.27071320000687,487.76931290001085,488.27071320000687,487.76931290001085,488.27071320000687,487.76931290001085,488.27071320000687,487.76931290001085,488.27071320000687,487.76931290001085,488.27071320000687,487.76931290001085,488.27071320000687,486.05000700001256,None,488.27071320000687,489.03870650001045,1.7400000000000013,489.05447860001004,None,489.8061226000136,None,,,,,,,[[0.76]],1.8000000000000012,0.6666666666666666,12015,001,2024_Jun_22_1900,MFTM_A_new1021,2021.2.3,60.10312494161422,
,,,,,,,,stim/Instruction_adaptive.png,conditions/adaptive.xlsx,test,-0.6,-0.6,-0.6,0.6,0.6,left,L,,,,,0,1,1,1,0,78,78,87,,,,,,,,,,,,,,,,,,,,,,,,,,,,,,,,,,,,,,,,,,,,490.30685360000643,None,left,1,1.84497000000556,490.80762280001363,493.2116435000062,490.80762280001363,492.71052220001,490.80762280001363,492.71052220001,490.80762280001363,492.71052220001,490.80762280001363,492.71052220001,490.80762280001363,492.71052220001,492.67671220000193,493.1778495000035,492.67671220000193,493.1778495000035,492.67671220000193,493.1778495000035,492.67671220000193,493.1778495000035,492.67671220000193,493.1778495000035,492.67671220000193,493.1778495000035,492.67671220000193,493.1778495000035,492.67671220000193,493.1778495000035,490.80762280001363,None,493.1778495000035,493.7950787000009,1.8900000000000015,493.8118275000015,None,494.56385880000016,None,,,,,,,[[0.61]],1.8400000000000012,0.6708860759493671,12015,001,2024_Jun_22_1900,MFTM_A_new1021,2021.2.3,60.10312494161422,
,,,,,,,,stim/Instruction_adaptive.png,conditions/adaptive.xlsx,test,0.6,0.6,0.6,-0.6,-0.6,right,R,,,,,0,1,1,1,0,79,79,88,,,,,,,,,,,,,,,,,,,,,,,,,,,,,,,,,,,,,,,,,,,,495.063722100007,None,right,1,2.024333099994692,495.5646051000076,497.9181871000037,495.5646051000076,497.4180970000016,495.5646051000076,497.4180970000016,495.5646051000076,497.4180970000016,495.5646051000076,497.4180970000016,495.5646051000076,497.4180970000016,497.384149000005,497.8846746000054,497.384149000005,497.8846746000054,497.384149000005,497.8846746000054,497.384149000005,497.8846746000054,497.384149000005,497.8846746000054,497.384149000005,497.8846746000054,497.384149000005,497.8846746000054,497.384149000005,497.8846746000054,495.5646051000076,None,497.8846746000054,498.5526722000068,1.8400000000000014,498.56908700001077,None,499.32074110000394,None,,,,,,,[[0.66]],1.8800000000000012,0.675,12015,001,2024_Jun_22_1900,MFTM_A_new1021,2021.2.3,60.10312494161422,
,,,,,,,,stim/Instruction_adaptive.png,conditions/adaptive.xlsx,test,0.6,0.6,0.6,-0.6,-0.6,right,R,,,,,0,1,1,1,0,80,80,26,,,,,,,,,,,,,,,,,,,,,,,,,,,,,,,,,,,,,,,,,,,,499.82138300000224,None,right,1,1.2756248000077903,500.32204290000664,502.6251183000131,500.32204290000664,502.12472100000014,500.32204290000664,502.12472100000014,500.32204290000664,502.12472100000014,500.32204290000664,502.12472100000014,500.32204290000664,502.12472100000014,502.09122950000165,502.59155610000016,502.09122950000165,502.59155610000016,502.09122950000165,502.59155610000016,502.09122950000165,502.59155610000016,502.09122950000165,502.59155610000016,502.09122950000165,502.59155610000016,502.09122950000165,502.59155610000016,502.09122950000165,502.59155610000016,500.32204290000664,None,502.59155610000016,503.3093101000122,1.7900000000000014,503.32619890000205,None,504.07732770001167,None,,,,,,,[[0.71]],1.9200000000000013,0.6790123456790124,12015,001,2024_Jun_22_1900,MFTM_A_new1021,2021.2.3,60.10312494161422,
,,,,,,,,stim/Instruction_adaptive.png,conditions/adaptive.xlsx,test,0.6,0.6,0.6,-0.6,-0.6,right,R,,,,,0,1,1,1,0,81,81,12,,,,,,,,,,,,,,,,,,,,,,,,,,,,,,,,,,,,,,,,,,,,504.5790871000063,None,right,1,1.2139544999954524,505.0793557000143,507.3329220000014,505.0793557000143,506.8317656000145,505.0793557000143,506.8317656000145,505.0793557000143,506.8317656000145,505.0793557000143,506.8317656000145,505.0793557000143,506.8317656000145,506.79843860000256,507.29945640001097,506.79843860000256,507.29945640001097,506.79843860000256,507.29945640001097,506.79843860000256,507.29945640001097,506.79843860000256,507.29945640001097,506.79843860000256,507.29945640001097,506.79843860000256,507.29945640001097,506.79843860000256,507.29945640001097,505.0793557000143,None,507.29945640001097,508.06732600000396,1.7400000000000013,508.0832961000124,None,508.83445180000854,None,,,,,,,[[0.76]],1.9600000000000013,0.6829268292682927,12015,001,2024_Jun_22_1900,MFTM_A_new1021,2021.2.3,60.10312494161422,
,,,,,,,,stim/Instruction_adaptive.png,conditions/adaptive.xlsx,test,0.6,0.6,0.6,-0.6,-0.6,right,R,,,,,0,1,1,1,0,82,82,76,,,,,,,,,,,,,,,,,,,,,,,,,,,,,,,,,,,,,,,,,,,,509.33585160000075,None,right,1,1.1693574999953853,509.8361307000014,512.0398294000042,509.8361307000014,511.53865380000207,509.8361307000014,511.53865380000207,509.8361307000014,511.53865380000207,509.8361307000014,511.53865380000207,509.8361307000014,511.53865380000207,511.50573380000424,512.0059586000134,511.50573380000424,512.0059586000134,511.50573380000424,512.0059586000134,511.50573380000424,512.0059586000134,511.50573380000424,512.0059586000134,511.50573380000424,512.0059586000134,511.50573380000424,512.0059586000134,511.50573380000424,512.0059586000134,509.8361307000014,None,512.0059586000134,512.8238618000032,1.6900000000000013,512.8407761000126,None,513.5919259000075,None,,,,,,,[[0.81]],1.9900000000000013,0.6867469879518072,12015,001,2024_Jun_22_1900,MFTM_A_new1021,2021.2.3,60.10312494161422,
,,,,,,,,stim/Instruction_adaptive.png,conditions/adaptive.xlsx,test,-0.6,-0.6,-0.6,0.6,0.6,left,L,,,,,0,1,1,1,0,83,83,15,,,,,,,,,,,,,,,,,,,,,,,,,,,,,,,,,,,,,,,,,,,,514.0929449000105,None,left,1,1.155888799999957,514.593529500009,516.7663160000084,514.593529500009,516.2637534000096,514.593529500009,516.2637534000096,514.593529500009,516.2637534000096,514.593529500009,516.2637534000096,514.593529500009,516.2637534000096,516.2291680000053,516.7300925000018,516.2291680000053,516.7300925000018,516.2291680000053,516.7300925000018,516.2291680000053,516.7300925000018,516.2291680000053,516.7300925000018,516.2291680000053,516.7300925000018,516.2291680000053,516.7300925000018,516.2291680000053,516.7300925000018,514.593529500009,None,516.7300925000018,517.582298600013,1.6600000000000013,517.5979085000145,None,518.3487021000037,None,,,,,,,[[0.84]],2.0200000000000014,0.6904761904761905,12015,001,2024_Jun_22_1900,MFTM_A_new1021,2021.2.3,60.10312494161422,
,,,,,,,,stim/Instruction_adaptive.png,conditions/adaptive.xlsx,test,-0.6,-0.6,-0.6,0.6,0.6,left,L,,,,,0,1,1,1,0,84,84,19,,,,,,,,,,,,,,,,,,,,,,,,,,,,,,,,,,,,,,,,,,,,518.8499829000066,None,left,1,1.1590314000059152,519.3504694000003,521.4717003000114,519.3504694000003,520.9696702000074,519.3504694000003,520.9696702000074,519.3504694000003,520.9696702000074,519.3504694000003,520.9696702000074,519.3504694000003,520.9696702000074,520.9531036000117,521.4537342000112,520.9531036000117,521.4537342000112,520.9531036000117,521.4537342000112,520.9531036000117,521.4537342000112,520.9531036000117,521.4537342000112,520.9531036000117,521.4537342000112,520.9531036000117,521.4537342000112,520.9531036000117,521.4537342000112,519.3504694000003,None,521.4537342000112,522.3383460000041,1.6200000000000012,522.3550448000024,None,523.106008600007,None,,,,,,,[[0.88]],2.0600000000000014,0.6941176470588235,12015,001,2024_Jun_22_1900,MFTM_A_new1021,2021.2.3,60.10312494161422,
,,,,,,,,stim/Instruction_adaptive.png,conditions/adaptive.xlsx,test,-0.6,-0.6,-0.6,0.6,0.6,left,L,,,,,0,1,1,1,0,85,85,57,,,,,,,,,,,,,,,,,,,,,,,,,,,,,,,,,,,,,,,,,,,,523.6074181000004,None,right,0,1.1701591000019107,524.1076333000092,526.1941508000018,524.1076333000092,525.6933151000121,524.1076333000092,525.6933151000121,524.1076333000092,525.6933151000121,524.1076333000092,525.6933151000121,524.1076333000092,525.6933151000121,525.6767895000085,526.1778998000082,525.6767895000085,526.1778998000082,525.6767895000085,526.1778998000082,525.6767895000085,526.1778998000082,525.6767895000085,526.1778998000082,525.6767895000085,526.1778998000082,525.6767895000085,526.1778998000082,525.6767895000085,526.1778998000082,524.1076333000092,None,526.1778998000082,None,1.5800000000000012,527.1302466000052,None,527.8820749000006,None,,,,,,,[[0.92]],1.9600000000000013,0.686046511627907,12015,001,2024_Jun_22_1900,MFTM_A_new1021,2021.2.3,60.10312494161422,
,,,,,,,,stim/Instruction_adaptive.png,conditions/adaptive.xlsx,test,-0.6,-0.6,-0.6,0.6,0.6,left,L,,,,,0,1,1,1,0,86,86,47,,,,,,,,,,,,,,,,,,,,,,,,,,,,,,,,,,,,,,,,,,,,528.3824676000077,None,right,0,1.4929075999971246,528.88151810001,531.084967200004,528.88151810001,530.5841063000116,528.88151810001,530.5841063000116,528.88151810001,530.5841063000116,528.88151810001,530.5841063000116,528.88151810001,530.5841063000116,530.5508403000131,531.0516510000016,530.5508403000131,531.0516510000016,530.5508403000131,531.0516510000016,530.5508403000131,531.0516510000016,530.5508403000131,531.0516510000016,530.5508403000131,531.0516510000016,530.5508403000131,531.0516510000016,530.5508403000131,531.0516510000016,528.88151810001,None,531.0516510000016,531.8694241000048,1.6900000000000013,531.8861419000023,None,532.6375431000051,None,,,,,,,[[0.81]],1.8600000000000012,0.6781609195402298,12015,001,2024_Jun_22_1900,MFTM_A_new1021,2021.2.3,60.10312494161422,
,,,,,,,,stim/Instruction_adaptive.png,conditions/adaptive.xlsx,test,0.6,0.6,0.6,-0.6,-0.6,right,R,,,,,0,1,1,1,0,87,87,2,,,,,,,,,,,,,,,,,,,,,,,,,,,,,,,,,,,,,,,,,,,,533.1383144000138,None,right,1,1.4952234999946086,533.6388765000011,535.959082500005,533.6388765000011,535.4582518000097,533.6388765000011,535.4582518000097,533.6388765000011,535.4582518000097,533.6388765000011,535.4582518000097,533.6388765000011,535.4582518000097,535.4248267000075,535.9258290000143,535.4248267000075,535.9258290000143,535.4248267000075,535.9258290000143,535.4248267000075,535.9258290000143,535.4248267000075,535.9258290000143,535.4248267000075,535.9258290000143,535.4248267000075,535.9258290000143,535.4248267000075,535.9258290000143,533.6388765000011,None,535.9258290000143,536.627058500002,1.8100000000000014,536.6439499000116,None,537.3944365000061,None,,,,,,,[[0.69]],1.9000000000000012,0.6818181818181818,12015,001,2024_Jun_22_1900,MFTM_A_new1021,2021.2.3,60.10312494161422,
,,,,,,,,stim/Instruction_adaptive.png,conditions/adaptive.xlsx,test,0.6,0.6,0.6,-0.6,-0.6,right,R,,,,,0,1,1,1,0,88,88,96,,,,,,,,,,,,,,,,,,,,,,,,,,,,,,,,,,,,,,,,,,,,537.8951154000097,None,right,1,1.5705139999918174,538.3957706000074,540.6663736000046,538.3957706000074,540.1656187000044,538.3957706000074,540.1656187000044,538.3957706000074,540.1656187000044,538.3957706000074,540.1656187000044,538.3957706000074,540.1656187000044,540.1486012000096,540.6496518000058,540.1486012000096,540.6496518000058,540.1486012000096,540.6496518000058,540.1486012000096,540.6496518000058,540.1486012000096,540.6496518000058,540.1486012000096,540.6496518000058,540.1486012000096,540.6496518000058,540.1486012000096,540.6496518000058,538.3957706000074,None,540.6496518000058,None,1.7600000000000013,541.4010102000029,None,542.1523433000111,None,,,,,,,[[0.74]],1.9300000000000013,0.6853932584269663,12015,001,2024_Jun_22_1900,MFTM_A_new1021,2021.2.3,60.10312494161422,
,,,,,,,,stim/Instruction_adaptive.png,conditions/adaptive.xlsx,test,-0.6,-0.6,-0.6,0.6,0.6,left,L,,,,,0,1,1,1,0,89,89,69,,,,,,,,,,,,,,,,,,,,,,,,,,,,,,,,,,,,,,,,,,,,542.6522064000019,None,left,1,1.2856356999982381,543.1532762000134,545.3899847000139,543.1532762000134,544.8891719000094,543.1532762000134,544.8891719000094,543.1532762000134,544.8891719000094,543.1532762000134,544.8891719000094,543.1532762000134,544.8891719000094,544.872460100014,545.3730231000081,544.872460100014,545.3730231000081,544.872460100014,545.3730231000081,544.872460100014,545.3730231000081,544.872460100014,545.3730231000081,544.872460100014,545.3730231000081,544.872460100014,545.3730231000081,544.872460100014,545.3730231000081,543.1532762000134,None,545.3730231000081,None,1.7300000000000013,546.1577294000017,None,546.9090464000037,None,,,,,,,[[0.77]],1.9600000000000013,0.6888888888888889,12015,001,2024_Jun_22_1900,MFTM_A_new1021,2021.2.3,60.10312494161422,
,,,,,,,,stim/Instruction_adaptive.png,conditions/adaptive.xlsx,test,-0.6,-0.6,-0.6,0.6,0.6,left,L,,,,,0,1,1,1,0,90,90,33,,,,,,,,,,,,,,,,,,,,,,,,,,,,,,,,,,,,,,,,,,,,547.4094464000082,None,right,0,0.9203220000053989,547.9102215000021,550.1142083000013,547.9102215000021,549.6139139000006,547.9102215000021,549.6139139000006,547.9102215000021,549.6139139000006,547.9102215000021,549.6139139000006,547.9102215000021,549.6139139000006,549.5798135000077,550.0802813000046,549.5798135000077,550.0802813000046,549.5798135000077,550.0802813000046,549.5798135000077,550.0802813000046,549.5798135000077,550.0802813000046,549.5798135000077,550.0802813000046,549.5798135000077,550.0802813000046,549.5798135000077,550.0802813000046,547.9102215000021,None,550.0802813000046,550.8983786000026,1.6900000000000013,550.9152361000015,None,551.666426300013,None,,,,,,,[[0.81]],1.8700000000000012,0.6813186813186813,12015,001,2024_Jun_22_1900,MFTM_A_new1021,2021.2.3,60.10312494161422,
,,,,,,,,stim/Instruction_adaptive.png,conditions/adaptive.xlsx,test,-0.6,-0.6,-0.6,0.6,0.6,left,L,,,,,0,1,1,1,0,91,91,93,,,,,,,,,,,,,,,,,,,,,,,,,,,,,,,,,,,,,,,,,,,,552.1670191000012,None,left,1,1.5628770000039367,552.6675260000047,554.9712535000144,552.6675260000047,554.4705178000004,552.6675260000047,554.4705178000004,552.6675260000047,554.4705178000004,552.6675260000047,554.4705178000004,552.6675260000047,554.4705178000004,554.453555,554.9541976000037,554.453555,554.9541976000037,554.453555,554.9541976000037,554.453555,554.9541976000037,554.453555,554.9541976000037,554.453555,554.9541976000037,554.453555,554.9541976000037,554.453555,554.9541976000037,552.6675260000047,None,554.9541976000037,555.6552722000051,1.8000000000000014,555.6720600000117,None,556.4232053000014,None,,,,,,,[[0.7]],1.9000000000000012,0.6847826086956522,12015,001,2024_Jun_22_1900,MFTM_A_new1021,2021.2.3,60.10312494161422,
,,,,,,,,stim/Instruction_adaptive.png,conditions/adaptive.xlsx,test,-0.6,-0.6,-0.6,0.6,0.6,left,L,,,,,0,1,1,1,0,92,92,89,,,,,,,,,,,,,,,,,,,,,,,,,,,,,,,,,,,,,,,,,,,,556.9241860000038,None,left,1,1.8700184000044828,557.4248915000062,559.6948921000003,557.4248915000062,559.1940586000128,557.4248915000062,559.1940586000128,557.4248915000062,559.1940586000128,557.4248915000062,559.1940586000128,557.4248915000062,559.1940586000128,559.1605616000015,559.6615981000068,559.1605616000015,559.6615981000068,559.1605616000015,559.6615981000068,559.1605616000015,559.6615981000068,559.1605616000015,559.6615981000068,559.1605616000015,559.6615981000068,559.1605616000015,559.6615981000068,559.1605616000015,559.6615981000068,557.4248915000062,None,559.6615981000068,560.4125913000025,1.7600000000000013,560.4291205000045,None,561.1807498000126,None,,,,,,,[[0.74]],1.9300000000000013,0.6881720430107527,12015,001,2024_Jun_22_1900,MFTM_A_new1021,2021.2.3,60.10312494161422,
,,,,,,,,stim/Instruction_adaptive.png,conditions/adaptive.xlsx,test,0.6,0.6,0.6,-0.6,-0.6,right,R,,,,,0,1,1,1,0,93,93,24,,,,,,,,,,,,,,,,,,,,,,,,,,,,,,,,,,,,,,,,,,,,561.6820632000017,None,right,1,1.665507500001695,562.1817385000031,564.4188244000106,562.1817385000031,563.9177599000104,562.1817385000031,563.9177599000104,562.1817385000031,563.9177599000104,562.1817385000031,563.9177599000104,562.1817385000031,563.9177599000104,563.8848408000049,564.385283200012,563.8848408000049,564.385283200012,563.8848408000049,564.385283200012,563.8848408000049,564.385283200012,563.8848408000049,564.385283200012,563.8848408000049,564.385283200012,563.8848408000049,564.385283200012,563.8848408000049,564.385283200012,562.1817385000031,None,564.385283200012,565.1698832000111,1.7300000000000013,565.1862730000139,None,565.9376660000125,None,,,,,,,[[0.77]],1.9600000000000013,0.6914893617021277,12015,001,2024_Jun_22_1900,MFTM_A_new1021,2021.2.3,60.10312494161422,
