arrwidth1,arrwidth2,arrwidth3,arrwidth4,arrwidth5,keyb,type,orientation,instruction_image,block_filename,block_type,arrow11,arrow22,arrow33,arrow44,arrow55,keyb_3,orientation3,trials.thisRepN,trials.thisTrialN,trials.thisN,trials.thisIndex,trials_3.thisRepN,trials_3.thisTrialN,trials_3.thisN,trials_3.thisIndex,trials_2.thisRepN,trials_2.thisTrialN,trials_2.thisN,trials_2.thisIndex,welcome.started,welcome.stopped,key_resp.keys,key_resp.rt,key_resp.started,key_resp.stopped,instruction_example.started,instruction_example.stopped,key_resp_3.keys,key_resp_3.rt,key_resp_3.started,key_resp_3.stopped,instruction_task.started,instruction_task.stopped,key_resp_2.keys,key_resp_2.rt,key_resp_2.started,key_resp_2.stopped,text_2.started,text_2.stopped,A1.started,A1.stopped,A2.started,A2.stopped,A3.started,A3.stopped,A4.started,A4.stopped,A5.started,A5.stopped,key_resp_4.keys,key_resp_4.corr,key_resp_4.rt,key_resp_4.started,key_resp_4.stopped,fb.started,fb.stopped,instruction_block.started,instruction_block.stopped,key_resp_8.keys,key_resp_8.rt,key_resp_8.started,key_resp_8.stopped,text_8.started,text_8.stopped,key_resp_9.keys,key_resp_9.corr,key_resp_9.rt,text_5.started,text_5.stopped,A11_3.started,A11_3.stopped,A22_2.started,A22_2.stopped,A33_2.started,A33_2.stopped,A44_2.started,A44_2.stopped,A55_2.started,A55_2.stopped,M1_3.started,M1_3.stopped,M2_2.started,M2_2.stopped,M3_2.started,M3_2.stopped,M4_2.started,M4_2.stopped,M5_2.started,M5_2.stopped,M6_2.started,M6_2.stopped,M7_2.started,M7_2.stopped,M8_2.started,M8_2.stopped,key_resp_9.started,key_resp_9.stopped,fixation.started,fixation.stopped,ET,fb_3.started,fb_3.stopped,text_9.started,text_9.stopped,fb_4.started,fb_4.stopped,text_7.started,text_7.stopped,endtext.started,endtext.stopped,fixation_ITI,CCC,Acc,participant,session,date,expName,psychopyVersion,frameRate,
,,,,,,,,,,,,,,,,,,,,,,,,,,,,,,10.051061799999843,None,right,4.127441500000714,10.051061799999843,None,,,,,,,,,,,,,,,,,,,,,,,,,,,,,,,,,,,,,,,,,,,,,,,,,,,,,,,,,,,,,,,,,,,,,,,,,,,,,,,,,,,,,,,,,12010,001,2024_Jun_15_1926,MFTM_A_new1021,2021.2.3,59.5357166670381,
,,,,,,,,,,,,,,,,,,,,,,,,,,,,,,,,,,,,14.207257800000662,None,right,0.09488520000013523,14.207257800000662,None,,,,,,,,,,,,,,,,,,,,,,,,,,,,,,,,,,,,,,,,,,,,,,,,,,,,,,,,,,,,,,,,,,,,,,,,,,,,,,,,,,,12010,001,2024_Jun_15_1926,MFTM_A_new1021,2021.2.3,59.5357166670381,
,,,,,,,,,,,,,,,,,,,,,,,,,,,,,,,,,,,,,,,,,,14.3238508000004,None,left,9.32671560000017,14.3238508000004,None,,,,,,,,,,,,,,,,,,,,,,,,,,,,,,,,,,,,,,,,,,,,,,,,,,,,,,,,,,,,,,,,,,,,,,,,,,,,,12010,001,2024_Jun_15_1926,MFTM_A_new1021,2021.2.3,59.5357166670381,
0.6,0.6,0.6,-0.6,-0.6,right,3:2,R,,,,,,,,,,,0,0,0,0,,,,,,,,,,,,,,,,,,,,,,,,,,,23.689687300000514,None,23.689687300000514,None,23.689687300000514,None,23.689687300000514,None,23.689687300000514,None,23.689687300000514,None,right,1,1.2169007000002239,23.689687300000514,None,24.940236000000368,None,,,,,,,,,,,,,,,,,,,,,,,,,,,,,,,,,,,,,,,,,,,,,,,,,,,,,,,,,,12010,001,2024_Jun_15_1926,MFTM_A_new1021,2021.2.3,59.5357166670381,
-0.6,-0.6,-0.6,0.6,0.6,left,3:2,L,,,,,,,,,,,0,1,1,1,,,,,,,,,,,,,,,,,,,,,,,,,,,25.692161599999963,None,25.692161599999963,None,25.692161599999963,None,25.692161599999963,None,25.692161599999963,None,25.692161599999963,None,left,1,0.8138201000001573,25.692161599999963,None,26.525840700000117,None,,,,,,,,,,,,,,,,,,,,,,,,,,,,,,,,,,,,,,,,,,,,,,,,,,,,,,,,,,12010,001,2024_Jun_15_1926,MFTM_A_new1021,2021.2.3,59.5357166670381,
0.6,0.6,0.6,-0.6,-0.6,right,3:2,R,,,,,,,,,,,1,0,2,0,,,,,,,,,,,,,,,,,,,,,,,,,,,27.27799270000014,None,27.27799270000014,None,27.27799270000014,None,27.27799270000014,None,27.27799270000014,None,27.27799270000014,None,right,1,0.6284488999999667,27.27799270000014,None,27.927917800000614,None,,,,,,,,,,,,,,,,,,,,,,,,,,,,,,,,,,,,,,,,,,,,,,,,,,,,,,,,,,12010,001,2024_Jun_15_1926,MFTM_A_new1021,2021.2.3,59.5357166670381,
-0.6,-0.6,-0.6,0.6,0.6,left,3:2,L,,,,,,,,,,,1,1,3,1,,,,,,,,,,,,,,,,,,,,,,,,,,,28.679250500000308,None,28.679250500000308,None,28.679250500000308,None,28.679250500000308,None,28.679250500000308,None,28.679250500000308,None,left,1,0.7468536999995194,28.679250500000308,None,29.446862300000248,None,,,,,,,,,,,,,,,,,,,,,,,,,,,,,,,,,,,,,,,,,,,,,,,,,,,,,,,,,,12010,001,2024_Jun_15_1926,MFTM_A_new1021,2021.2.3,59.5357166670381,
,,,,,,,,stim/Instruction_mask.png,conditions/adaptive.xlsx,practice,-0.6,-0.6,-0.6,0.6,0.6,left,L,,,,,0,0,0,0,0,0,0,99,,,,,,,,,,,,,,,,,,,,,,,,,,,,,,,,,,,,,,30.481522900000527,None,right,14.18511690000014,30.481522900000527,None,44.75294290000056,None,left,1,3.1195582000000286,45.20384460000059,None,45.20384460000059,48.208382700000584,45.20384460000059,48.208382700000584,45.20384460000059,48.208382700000584,45.20384460000059,48.208382700000584,45.20384460000059,48.208382700000584,48.191988700000365,48.692848000000595,48.191988700000365,48.692848000000595,48.191988700000365,48.692848000000595,48.191988700000365,48.692848000000595,48.191988700000365,48.692848000000595,48.191988700000365,48.692848000000595,48.191988700000365,48.692848000000595,48.191988700000365,48.692848000000595,45.20384460000059,None,48.692848000000595,48.692848000000595,3,48.70953999999983,None,49.46073820000038,None,,,,,,,,,,12010,001,2024_Jun_15_1926,MFTM_A_new1021,2021.2.3,59.5357166670381,
,,,,,,,,stim/Instruction_mask.png,conditions/adaptive.xlsx,practice,-0.6,-0.6,-0.6,0.6,0.6,left,L,,,,,0,0,0,0,0,1,1,59,,,,,,,,,,,,,,,,,,,,,,,,,,,,,,,,,,,,,,,,,,,,49.96076730000004,None,left,1,0.9486777000001894,50.46218080000017,52.46513899999991,50.46218080000017,51.96536490000017,50.46218080000017,51.96536490000017,50.46218080000017,51.96536490000017,50.46218080000017,51.96536490000017,50.46218080000017,51.96536490000017,51.947523300000285,52.44893310000043,51.947523300000285,52.44893310000043,51.947523300000285,52.44893310000043,51.947523300000285,52.44893310000043,51.947523300000285,52.44893310000043,51.947523300000285,52.44893310000043,51.947523300000285,52.44893310000043,51.947523300000285,52.44893310000043,50.46218080000017,None,52.44893310000043,53.95040750000044,1.5,53.96696130000055,None,54.71898940000028,None,,,,,,,,,,12010,001,2024_Jun_15_1926,MFTM_A_new1021,2021.2.3,59.5357166670381,
,,,,,,,,stim/Instruction_mask.png,conditions/adaptive.xlsx,practice,0.6,0.6,0.6,-0.6,-0.6,right,R,,,,,0,0,0,0,0,2,2,6,,,,,,,,,,,,,,,,,,,,,,,,,,,,,,,,,,,,,,,,,,,,55.218989500000134,None,right,1,0.498181800000566,55.72066290000021,57.02220290000059,55.72066290000021,56.52086440000039,55.72066290000021,56.52086440000039,55.72066290000021,56.52086440000039,55.72066290000021,56.52086440000039,55.72066290000021,56.52086440000039,56.505907200000365,57.00558700000056,56.505907200000365,57.00558700000056,56.505907200000365,57.00558700000056,56.505907200000365,57.00558700000056,56.505907200000365,57.00558700000056,56.505907200000365,57.00558700000056,56.505907200000365,57.00558700000056,56.505907200000365,57.00558700000056,55.72066290000021,None,57.00558700000056,59.20933049999985,0.8,59.22495170000002,None,59.97597540000061,None,,,,,,,,,,12010,001,2024_Jun_15_1926,MFTM_A_new1021,2021.2.3,59.5357166670381,
,,,,,,,,stim/Instruction_mask.png,conditions/adaptive.xlsx,practice,-0.6,-0.6,-0.6,0.6,0.6,left,L,,,,,0,0,0,0,0,3,3,71,,,,,,,,,,,,,,,,,,,,,,,,,,,,,,,,,,,,,,,,,,,,60.477916599999844,None,left,1,0.6656025000002046,60.97806279999986,61.72885910000059,60.97806279999986,61.22892890000003,60.97806279999986,61.22892890000003,60.97806279999986,61.22892890000003,60.97806279999986,61.22892890000003,60.97806279999986,61.22892890000003,61.21256799999992,61.712700300000506,61.21256799999992,61.712700300000506,61.21256799999992,61.712700300000506,61.21256799999992,61.712700300000506,61.21256799999992,61.712700300000506,61.21256799999992,61.712700300000506,61.21256799999992,61.712700300000506,61.21256799999992,61.712700300000506,60.97806279999986,None,61.712700300000506,64.46716910000032,3,64.48355770000035,None,65.2342534999998,None,,,,,,,,,,12010,001,2024_Jun_15_1926,MFTM_A_new1021,2021.2.3,59.5357166670381,
,,,,,,,,stim/Instruction_mask.png,conditions/adaptive.xlsx,practice,,,,,,,,,,,,0,0,0,0,,,,,,,,,,,,,,,,,,,,,,,,,,,,,,,,,,,,,,,,,,,,,,,,,,,,,,,,,,,,,,,,,,,,,,,,,,,,,,,,,,,,,,,,,,65.75170750000052,66.75380480000058,66.72057370000039,66.72057370000039,66.72057370000039,None,,,,12010,001,2024_Jun_15_1926,MFTM_A_new1021,2021.2.3,59.5357166670381,
,,,,,,,,stim/Instruction_adaptive.png,conditions/adaptive.xlsx,test,-0.6,-0.6,-0.6,0.6,0.6,left,L,,,,,0,1,1,1,0,0,0,73,,,,,,,,,,,,,,,,,,,,,,,,,,,,,,,,,,,,,,69.90825889999996,None,right,11.383798799999568,69.90825889999996,None,81.34315930000048,None,right,0,0.7535906000002797,81.82614300000023,None,81.82614300000023,84.83041030000004,81.82614300000023,84.83041030000004,81.82614300000023,84.83041030000004,81.82614300000023,84.83041030000004,81.82614300000023,84.83041030000004,84.81370349999997,85.31445890000032,84.81370349999997,85.31445890000032,84.81370349999997,85.31445890000032,84.81370349999997,85.31445890000032,84.81370349999997,85.31445890000032,84.81370349999997,85.31445890000032,84.81370349999997,85.31445890000032,84.81370349999997,85.31445890000032,81.82614300000023,None,85.31445890000032,85.31445890000032,3,85.3309747000003,None,86.08222089999981,None,,,,,,,0,0.5,0.0,12010,001,2024_Jun_15_1926,MFTM_A_new1021,2021.2.3,59.5357166670381,
,,,,,,,,stim/Instruction_adaptive.png,conditions/adaptive.xlsx,test,0.6,0.6,0.6,-0.6,-0.6,right,R,,,,,0,1,1,1,0,1,1,82,,,,,,,,,,,,,,,,,,,,,,,,,,,,,,,,,,,,,,,,,,,,86.58277720000024,None,right,1,1.0561569999999847,87.08399550000013,None,87.08399550000013,90.08831240000018,87.08399550000013,90.08831240000018,87.08399550000013,90.08831240000018,87.08399550000013,90.08831240000018,87.08399550000013,90.08831240000018,90.07157800000004,90.57320849999996,90.07157800000004,90.57320849999996,90.07157800000004,90.57320849999996,90.07157800000004,90.57320849999996,90.07157800000004,90.57320849999996,90.07157800000004,90.57320849999996,90.07157800000004,90.57320849999996,90.07157800000004,90.57320849999996,87.08399550000013,None,90.57320849999996,90.57320849999996,3.0000000000000027,90.58908090000023,None,91.33996579999985,None,,,,,,,0,0.5,0.5,12010,001,2024_Jun_15_1926,MFTM_A_new1021,2021.2.3,59.5357166670381,
,,,,,,,,stim/Instruction_adaptive.png,conditions/adaptive.xlsx,test,0.6,0.6,0.6,-0.6,-0.6,right,R,,,,,0,1,1,1,0,2,2,76,,,,,,,,,,,,,,,,,,,,,,,,,,,,,,,,,,,,,,,,,,,,91.84169750000001,None,right,1,0.8063061000002563,92.34187340000062,None,92.34187340000062,95.34628520000024,92.34187340000062,95.34628520000024,92.34187340000062,95.34628520000024,92.34187340000062,95.34628520000024,92.34187340000062,95.34628520000024,95.32960280000043,95.83032270000058,95.32960280000043,95.83032270000058,95.32960280000043,95.83032270000058,95.32960280000043,95.83032270000058,95.32960280000043,95.83032270000058,95.32960280000043,95.83032270000058,95.32960280000043,95.83032270000058,95.32960280000043,95.83032270000058,92.34187340000062,None,95.83032270000058,95.83032270000058,3.0000000000000027,95.84708039999987,None,96.59911079999983,None,,,,,,,0,0.5,0.6666666666666666,12010,001,2024_Jun_15_1926,MFTM_A_new1021,2021.2.3,59.5357166670381,
,,,,,,,,stim/Instruction_adaptive.png,conditions/adaptive.xlsx,test,-0.6,-0.6,-0.6,0.6,0.6,left,L,,,,,0,1,1,1,0,3,3,17,,,,,,,,,,,,,,,,,,,,,,,,,,,,,,,,,,,,,,,,,,,,97.10028330000023,None,left,1,1.1960798999998588,97.60049059999983,None,97.60049059999983,100.60499440000058,97.60049059999983,100.60499440000058,97.60049059999983,100.60499440000058,97.60049059999983,100.60499440000058,97.60049059999983,100.60499440000058,100.58745530000033,101.08812260000013,100.58745530000033,101.08812260000013,100.58745530000033,101.08812260000013,100.58745530000033,101.08812260000013,100.58745530000033,101.08812260000013,100.58745530000033,101.08812260000013,100.58745530000033,101.08812260000013,100.58745530000033,101.08812260000013,97.60049059999983,None,101.08812260000013,101.08812260000013,3.0000000000000027,101.1063079000005,None,101.85742500000015,None,,,,,,,0,1.1300000000000006,0.75,12010,001,2024_Jun_15_1926,MFTM_A_new1021,2021.2.3,59.5357166670381,
,,,,,,,,stim/Instruction_adaptive.png,conditions/adaptive.xlsx,test,-0.6,-0.6,-0.6,0.6,0.6,left,L,,,,,0,1,1,1,0,4,4,37,,,,,,,,,,,,,,,,,,,,,,,,,,,,,,,,,,,,,,,,,,,,102.3579279000005,None,left,1,2.811076199999661,102.85763270000007,None,102.85763270000007,105.86214100000052,102.85763270000007,105.86214100000052,102.85763270000007,105.86214100000052,102.85763270000007,105.86214100000052,102.85763270000007,105.86214100000052,105.84541600000011,106.34625210000013,105.84541600000011,106.34625210000013,105.84541600000011,106.34625210000013,105.84541600000011,106.34625210000013,105.84541600000011,106.34625210000013,105.84541600000011,106.34625210000013,105.84541600000011,106.34625210000013,105.84541600000011,106.34625210000013,102.85763270000007,None,106.34625210000013,106.34625210000013,3.0000000000000027,106.36275170000044,None,107.11438530000032,None,,,,,,,0,1.540000000000001,0.8,12010,001,2024_Jun_15_1926,MFTM_A_new1021,2021.2.3,59.5357166670381,
,,,,,,,,stim/Instruction_adaptive.png,conditions/adaptive.xlsx,test,-0.6,-0.6,-0.6,0.6,0.6,left,L,,,,,0,1,1,1,0,5,5,49,,,,,,,,,,,,,,,,,,,,,,,,,,,,,,,,,,,,,,,,,,,,107.61513490000016,None,left,1,1.7371328000008361,108.11609600000065,None,108.11609600000065,110.38563539999996,108.11609600000065,110.38563539999996,108.11609600000065,110.38563539999996,108.11609600000065,110.38563539999996,108.11609600000065,110.38563539999996,110.35230180000053,110.85280640000019,110.35230180000053,110.85280640000019,110.35230180000053,110.85280640000019,110.35230180000053,110.85280640000019,110.35230180000053,110.85280640000019,110.35230180000053,110.85280640000019,110.35230180000053,110.85280640000019,110.35230180000053,110.85280640000019,108.11609600000065,None,110.85280640000019,110.85280640000019,2.2600000000000016,110.8866581000002,None,111.63801539999986,None,,,,,,,0,1.8100000000000012,0.8333333333333334,12010,001,2024_Jun_15_1926,MFTM_A_new1021,2021.2.3,59.5357166670381,
,,,,,,,,stim/Instruction_adaptive.png,conditions/adaptive.xlsx,test,-0.6,-0.6,-0.6,0.6,0.6,left,L,,,,,0,1,1,1,0,6,6,29,,,,,,,,,,,,,,,,,,,,,,,,,,,,,,,,,,,,,,,,,,,,112.13898690000042,None,left,1,0.5653001000000586,112.63988680000057,None,112.63988680000057,114.52509590000045,112.63988680000057,114.52509590000045,112.63988680000057,114.52509590000045,112.63988680000057,114.52509590000045,112.63988680000057,114.52509590000045,114.49259859999984,114.99239040000066,114.49259859999984,114.99239040000066,114.49259859999984,114.99239040000066,114.49259859999984,114.99239040000066,114.49259859999984,114.99239040000066,114.49259859999984,114.99239040000066,114.49259859999984,114.99239040000066,114.49259859999984,114.99239040000066,112.63988680000057,None,114.99239040000066,114.99239040000066,1.8800000000000014,115.0257216,None,115.77680039999996,None,,,,,,,0,2.0200000000000014,0.8571428571428571,12010,001,2024_Jun_15_1926,MFTM_A_new1021,2021.2.3,59.5357166670381,
,,,,,,,,stim/Instruction_adaptive.png,conditions/adaptive.xlsx,test,-0.6,-0.6,-0.6,0.6,0.6,left,L,,,,,0,1,1,1,0,7,7,19,,,,,,,,,,,,,,,,,,,,,,,,,,,,,,,,,,,,,,,,,,,,116.27769059999991,None,left,1,0.5702615000000151,116.77850900000067,None,116.77850900000067,118.39766270000018,116.77850900000067,118.39766270000018,116.77850900000067,118.39766270000018,116.77850900000067,118.39766270000018,116.77850900000067,118.39766270000018,118.38094210000054,118.88179440000022,118.38094210000054,118.88179440000022,118.38094210000054,118.88179440000022,118.38094210000054,118.88179440000022,118.38094210000054,118.88179440000022,118.38094210000054,118.88179440000022,118.38094210000054,118.88179440000022,118.38094210000054,118.88179440000022,116.77850900000067,None,118.88179440000022,118.88179440000022,1.6200000000000012,118.89912580000055,None,119.64963070000067,None,,,,,,,0,2.2000000000000015,0.875,12010,001,2024_Jun_15_1926,MFTM_A_new1021,2021.2.3,59.5357166670381,
,,,,,,,,stim/Instruction_adaptive.png,conditions/adaptive.xlsx,test,0.6,0.6,0.6,-0.6,-0.6,right,R,,,,,0,1,1,1,0,8,8,4,,,,,,,,,,,,,,,,,,,,,,,,,,,,,,,,,,,,,,,,,,,,120.15076730000055,None,left,0,0.7928101999996215,120.65213600000061,122.58854880000035,120.65213600000061,122.08659760000046,120.65213600000061,122.08659760000046,120.65213600000061,122.08659760000046,120.65213600000061,122.08659760000046,120.65213600000061,122.08659760000046,122.07056350000039,122.57076280000001,122.07056350000039,122.57076280000001,122.07056350000039,122.57076280000001,122.07056350000039,122.57076280000001,122.07056350000039,122.57076280000001,122.07056350000039,122.57076280000001,122.07056350000039,122.57076280000001,122.07056350000039,122.57076280000001,120.65213600000061,None,122.57076280000001,122.60495489999994,1.430000000000001,122.6200402000004,None,123.37188539999988,None,,,,,,,[0.03444444],1.750000000000001,0.7777777777777778,12010,001,2024_Jun_15_1926,MFTM_A_new1021,2021.2.3,59.5357166670381,
,,,,,,,,stim/Instruction_adaptive.png,conditions/adaptive.xlsx,test,0.6,0.6,0.6,-0.6,-0.6,right,R,,,,,0,1,1,1,0,9,9,0,,,,,,,,,,,,,,,,,,,,,,,,,,,,,,,,,,,,,,,,,,,,123.87265829999978,None,left,0,0.7906407000000399,124.37434870000016,126.84414110000034,124.37434870000016,126.34443920000012,124.37434870000016,126.34443920000012,124.37434870000016,126.34443920000012,124.37434870000016,126.34443920000012,124.37434870000016,126.34443920000012,126.3262792000005,126.8270523000001,126.3262792000005,126.8270523000001,126.3262792000005,126.8270523000001,126.3262792000005,126.8270523000001,126.3262792000005,126.8270523000001,126.3262792000005,126.8270523000001,126.3262792000005,126.8270523000001,126.3262792000005,126.8270523000001,124.37434870000016,None,126.81046419999984,126.89461430000028,1.9600000000000015,126.92706650000036,None,127.67830890000005,None,,,,,,,[0.085],1.2200000000000006,0.7,12010,001,2024_Jun_15_1926,MFTM_A_new1021,2021.2.3,59.5357166670381,
,,,,,,,,stim/Instruction_adaptive.png,conditions/adaptive.xlsx,test,-0.6,-0.6,-0.6,0.6,0.6,left,L,,,,,0,1,1,1,0,10,10,95,,,,,,,,,,,,,,,,,,,,,,,,,,,,,,,,,,,,,,,,,,,,128.17995940000037,None,left,1,1.3648904000001494,128.6801559000005,None,128.6801559000005,131.5016341999999,128.6801559000005,131.5016341999999,128.6801559000005,131.5016341999999,128.6801559000005,131.5016341999999,128.6801559000005,131.5016341999999,131.48565510000026,131.98482690000037,131.48565510000026,131.98482690000037,131.48565510000026,131.98482690000037,131.48565510000026,131.98482690000037,131.48565510000026,131.98482690000037,131.48565510000026,131.98482690000037,131.48565510000026,131.98482690000037,131.48565510000026,131.98482690000037,128.6801559000005,None,131.98482690000037,131.98482690000037,2.820000000000002,132.00179630000002,None,132.75263770000038,None,,,,,,,0,1.4300000000000008,0.7272727272727273,12010,001,2024_Jun_15_1926,MFTM_A_new1021,2021.2.3,59.5357166670381,
,,,,,,,,stim/Instruction_adaptive.png,conditions/adaptive.xlsx,test,0.6,0.6,0.6,-0.6,-0.6,right,R,,,,,0,1,1,1,0,11,11,52,,,,,,,,,,,,,,,,,,,,,,,,,,,,,,,,,,,,,,,,,,,,133.25440270000036,None,right,1,0.7380764999998064,133.7553699,136.70942190000005,133.7553699,136.2077317000003,133.7553699,136.2077317000003,133.7553699,136.2077317000003,133.7553699,136.2077317000003,133.7553699,136.2077317000003,136.1754933000002,136.67506420000063,136.1754933000002,136.67506420000063,136.1754933000002,136.67506420000063,136.1754933000002,136.67506420000063,136.1754933000002,136.67506420000063,136.1754933000002,136.67506420000063,136.1754933000002,136.67506420000063,136.1754933000002,136.67506420000063,133.7553699,None,136.67506420000063,136.72531190000063,2.440000000000002,136.75870180000038,None,137.51042870000038,None,,,,,,,[0.04916667],1.610000000000001,0.75,12010,001,2024_Jun_15_1926,MFTM_A_new1021,2021.2.3,59.5357166670381,
,,,,,,,,stim/Instruction_adaptive.png,conditions/adaptive.xlsx,test,-0.6,-0.6,-0.6,0.6,0.6,left,L,,,,,0,1,1,1,0,12,12,85,,,,,,,,,,,,,,,,,,,,,,,,,,,,,,,,,,,,,,,,,,,,138.01126740000018,None,left,1,1.3090088999997533,138.51258690000031,141.18205240000043,138.51258690000031,140.68102830000043,138.51258690000031,140.68102830000043,138.51258690000031,140.68102830000043,138.51258690000031,140.68102830000043,138.51258690000031,140.68102830000043,140.6479250000002,141.1486229000002,140.6479250000002,141.1486229000002,140.6479250000002,141.1486229000002,140.6479250000002,141.1486229000002,140.6479250000002,141.1486229000002,140.6479250000002,141.1486229000002,140.6479250000002,141.1486229000002,140.6479250000002,141.1486229000002,138.51258690000031,None,141.1486229000002,141.23196009999992,2.160000000000002,141.24858680000034,None,142.00038310000036,None,,,,,,,[0.07153846],1.750000000000001,0.7692307692307693,12010,001,2024_Jun_15_1926,MFTM_A_new1021,2021.2.3,59.5357166670381,
,,,,,,,,stim/Instruction_adaptive.png,conditions/adaptive.xlsx,test,0.6,0.6,0.6,-0.6,-0.6,right,R,,,,,0,1,1,1,0,13,13,66,,,,,,,,,,,,,,,,,,,,,,,,,,,,,,,,,,,,,,,,,,,,142.50127359999988,None,right,1,1.763923800000157,143.0014753000005,145.4716797000001,143.0014753000005,144.97116069999993,143.0014753000005,144.97116069999993,143.0014753000005,144.97116069999993,143.0014753000005,144.97116069999993,143.0014753000005,144.97116069999993,144.93772270000045,145.4384031999998,144.93772270000045,145.4384031999998,144.93772270000045,145.4384031999998,144.93772270000045,145.4384031999998,144.93772270000045,145.4384031999998,144.93772270000045,145.4384031999998,144.93772270000045,145.4384031999998,144.93772270000045,145.4384031999998,143.0014753000005,None,145.4384031999998,145.5553276999999,1.9600000000000015,145.5720067000002,None,146.32394010000007,None,,,,,,,[0.105],1.8700000000000012,0.7857142857142857,12010,001,2024_Jun_15_1926,MFTM_A_new1021,2021.2.3,59.5357166670381,
,,,,,,,,stim/Instruction_adaptive.png,conditions/adaptive.xlsx,test,0.6,0.6,0.6,-0.6,-0.6,right,R,,,,,0,1,1,1,0,14,14,58,,,,,,,,,,,,,,,,,,,,,,,,,,,,,,,,,,,,,,,,,,,,146.82442679999986,None,right,1,0.8645826000001762,147.32493299999987,149.6288897000004,147.32493299999987,149.12726530000054,147.32493299999987,149.12726530000054,147.32493299999987,149.12726530000054,147.32493299999987,149.12726530000054,147.32493299999987,149.12726530000054,149.11148200000025,149.61215420000008,149.11148200000025,149.61215420000008,149.11148200000025,149.61215420000008,149.11148200000025,149.61215420000008,149.11148200000025,149.61215420000008,149.11148200000025,149.61215420000008,149.11148200000025,149.61215420000008,149.11148200000025,149.61215420000008,147.32493299999987,None,149.61215420000008,149.76242920000004,1.8000000000000014,149.77913080000053,None,150.5295003000001,None,,,,,,,[0.14466667],1.9800000000000013,0.8,12010,001,2024_Jun_15_1926,MFTM_A_new1021,2021.2.3,59.5357166670381,
,,,,,,,,stim/Instruction_adaptive.png,conditions/adaptive.xlsx,test,0.6,0.6,0.6,-0.6,-0.6,right,R,,,,,0,1,1,1,0,15,15,48,,,,,,,,,,,,,,,,,,,,,,,,,,,,,,,,,,,,,,,,,,,,151.03004349999992,None,right,1,1.4192628999999215,151.53096470000037,153.70166719999997,151.53096470000037,153.20023709999987,151.53096470000037,153.20023709999987,151.53096470000037,153.20023709999987,151.53096470000037,153.20023709999987,151.53096470000037,153.20023709999987,153.18349040000066,153.68497710000065,153.18349040000066,153.68497710000065,153.18349040000066,153.68497710000065,153.18349040000066,153.68497710000065,153.18349040000066,153.68497710000065,153.18349040000066,153.68497710000065,153.18349040000066,153.68497710000065,153.18349040000066,153.68497710000065,151.53096470000037,None,153.68497710000065,153.88437890000023,1.6700000000000013,153.90106699999978,None,154.6537173000006,None,,,,,,,[0.1875],2.0800000000000014,0.8125,12010,001,2024_Jun_15_1926,MFTM_A_new1021,2021.2.3,59.5357166670381,
,,,,,,,,stim/Instruction_adaptive.png,conditions/adaptive.xlsx,test,0.6,0.6,0.6,-0.6,-0.6,right,R,,,,,0,1,1,1,0,16,16,12,,,,,,,,,,,,,,,,,,,,,,,,,,,,,,,,,,,,,,,,,,,,155.1534787999999,None,right,1,0.7913709000004019,155.65445420000015,157.72451480000018,155.65445420000015,157.22418470000048,155.65445420000015,157.22418470000048,155.65445420000015,157.22418470000048,155.65445420000015,157.22418470000048,155.65445420000015,157.22418470000048,157.19059639999978,157.69029310000042,157.19059639999978,157.69029310000042,157.19059639999978,157.69029310000042,157.19059639999978,157.69029310000042,157.19059639999978,157.69029310000042,157.19059639999978,157.69029310000042,157.19059639999978,157.69029310000042,157.19059639999978,157.69029310000042,155.65445420000015,None,157.69029310000042,157.9248232,1.5600000000000012,157.95830170000045,None,158.70875460000025,None,,,,,,,[0.23176471],2.1700000000000017,0.8235294117647058,12010,001,2024_Jun_15_1926,MFTM_A_new1021,2021.2.3,59.5357166670381,
,,,,,,,,stim/Instruction_adaptive.png,conditions/adaptive.xlsx,test,-0.6,-0.6,-0.6,0.6,0.6,left,L,,,,,0,1,1,1,0,17,17,79,,,,,,,,,,,,,,,,,,,,,,,,,,,,,,,,,,,,,,,,,,,,159.2099177,None,left,1,1.440244200000052,159.70983250000063,161.68002270000034,159.70983250000063,161.1788379999998,159.70983250000063,161.1788379999998,159.70983250000063,161.1788379999998,159.70983250000063,161.1788379999998,159.70983250000063,161.1788379999998,161.16215290000036,161.66280600000027,161.16215290000036,161.66280600000027,161.16215290000036,161.66280600000027,161.16215290000036,161.66280600000027,161.16215290000036,161.66280600000027,161.16215290000036,161.66280600000027,161.16215290000036,161.66280600000027,161.16215290000036,161.66280600000027,159.70983250000063,None,161.66280600000027,None,1.460000000000001,161.94667389999995,None,162.6976120999998,None,,,,,,,[0.27666667],2.2500000000000018,0.8333333333333334,12010,001,2024_Jun_15_1926,MFTM_A_new1021,2021.2.3,59.5357166670381,
,,,,,,,,stim/Instruction_adaptive.png,conditions/adaptive.xlsx,test,-0.6,-0.6,-0.6,0.6,0.6,left,L,,,,,0,1,1,1,0,18,18,15,,,,,,,,,,,,,,,,,,,,,,,,,,,,,,,,,,,,,,,,,,,,163.19857469999988,None,left,1,0.5789002000001346,163.6992277999998,165.58555950000027,163.6992277999998,165.08453220000047,163.6992277999998,165.08453220000047,163.6992277999998,165.08453220000047,163.6992277999998,165.08453220000047,163.6992277999998,165.08453220000047,165.06795020000027,165.56967760000043,165.06795020000027,165.56967760000043,165.06795020000027,165.56967760000043,165.06795020000027,165.56967760000043,165.06795020000027,165.56967760000043,165.06795020000027,165.56967760000043,165.06795020000027,165.56967760000043,165.06795020000027,165.56967760000043,163.6992277999998,None,165.56967760000043,None,1.380000000000001,165.90268780000042,None,166.65380210000058,None,,,,,,,[0.32105263],2.330000000000002,0.8421052631578947,12010,001,2024_Jun_15_1926,MFTM_A_new1021,2021.2.3,59.5357166670381,
,,,,,,,,stim/Instruction_adaptive.png,conditions/adaptive.xlsx,test,-0.6,-0.6,-0.6,0.6,0.6,left,L,,,,,0,1,1,1,0,19,19,33,,,,,,,,,,,,,,,,,,,,,,,,,,,,,,,,,,,,,,,,,,,,167.1545931999999,None,left,1,0.5361917000000176,167.65513350000037,169.47544990000006,167.65513350000037,168.97392820000005,167.65513350000037,168.97392820000005,167.65513350000037,168.97392820000005,167.65513350000037,168.97392820000005,167.65513350000037,168.97392820000005,168.94198490000053,169.4413596000004,168.94198490000053,169.4413596000004,168.94198490000053,169.4413596000004,168.94198490000053,169.4413596000004,168.94198490000053,169.4413596000004,168.94198490000053,169.4413596000004,168.94198490000053,169.4413596000004,168.94198490000053,169.4413596000004,167.65513350000037,None,169.4413596000004,169.8097459999999,1.310000000000001,169.84231910000017,None,170.59304470000006,None,,,,,,,[0.3645],2.4000000000000017,0.85,12010,001,2024_Jun_15_1926,MFTM_A_new1021,2021.2.3,59.5357166670381,
,,,,,,,,stim/Instruction_adaptive.png,conditions/adaptive.xlsx,test,-0.6,-0.6,-0.6,0.6,0.6,left,L,,,,,0,1,1,1,0,20,20,61,,,,,,,,,,,,,,,,,,,,,,,,,,,,,,,,,,,,,,,,,,,,171.09379309999986,None,right,0,0.8119959999994535,171.59446280000066,173.3481225000005,171.59446280000066,172.84723769999982,171.59446280000066,172.84723769999982,171.59446280000066,172.84723769999982,171.59446280000066,172.84723769999982,171.59446280000066,172.84723769999982,172.8307021999999,173.33124060000046,172.8307021999999,173.33124060000046,172.8307021999999,173.33124060000046,172.8307021999999,173.33124060000046,172.8307021999999,173.33124060000046,172.8307021999999,173.33124060000046,172.8307021999999,173.33124060000046,172.8307021999999,173.33124060000046,171.59446280000066,None,173.33124060000046,173.74974350000048,1.2500000000000009,173.76440820000062,None,174.51630060000025,None,,,,,,,[0.40666667],2.2000000000000015,0.8095238095238095,12010,001,2024_Jun_15_1926,MFTM_A_new1021,2021.2.3,59.5357166670381,
,,,,,,,,stim/Instruction_adaptive.png,conditions/adaptive.xlsx,test,-0.6,-0.6,-0.6,0.6,0.6,left,L,,,,,0,1,1,1,0,21,21,13,,,,,,,,,,,,,,,,,,,,,,,,,,,,,,,,,,,,,,,,,,,,175.01632140000038,None,left,1,0.7772281999996267,175.5171117,177.45372250000037,175.5171117,176.95265389999986,175.5171117,176.95265389999986,175.5171117,176.95265389999986,175.5171117,176.95265389999986,175.5171117,176.95265389999986,176.93626060000042,177.43669000000045,176.93626060000042,177.43669000000045,176.93626060000042,177.43669000000045,176.93626060000042,177.43669000000045,176.93626060000042,177.43669000000045,176.93626060000042,177.43669000000045,176.93626060000042,177.43669000000045,176.93626060000042,177.43669000000045,175.5171117,None,177.43669000000045,None,1.430000000000001,177.88740320000034,None,178.6384853999998,None,,,,,,,[0.43681818],2.2700000000000014,0.8181818181818182,12010,001,2024_Jun_15_1926,MFTM_A_new1021,2021.2.3,59.5357166670381,
,,,,,,,,stim/Instruction_adaptive.png,conditions/adaptive.xlsx,test,-0.6,-0.6,-0.6,0.6,0.6,left,L,,,,,0,1,1,1,0,22,22,87,,,,,,,,,,,,,,,,,,,,,,,,,,,,,,,,,,,,,,,,,,,,179.13937460000034,None,right,0,0.709737899999709,179.64086230000066,181.50966710000012,179.64086230000066,181.00869469999998,179.64086230000066,181.00869469999998,179.64086230000066,181.00869469999998,179.64086230000066,181.00869469999998,179.64086230000066,181.00869469999998,180.9761312999999,181.4766878999999,180.9761312999999,181.4766878999999,180.9761312999999,181.4766878999999,180.9761312999999,181.4766878999999,180.9761312999999,181.4766878999999,180.9761312999999,181.4766878999999,180.9761312999999,181.4766878999999,180.9761312999999,181.4766878999999,179.64086230000066,None,181.4766878999999,181.9441852,1.360000000000001,181.9766894000004,None,182.72852070000044,None,,,,,,,[0.4673913],2.070000000000001,0.782608695652174,12010,001,2024_Jun_15_1926,MFTM_A_new1021,2021.2.3,59.5357166670381,
,,,,,,,,stim/Instruction_adaptive.png,conditions/adaptive.xlsx,test,0.6,0.6,0.6,-0.6,-0.6,right,R,,,,,0,1,1,1,0,23,23,2,,,,,,,,,,,,,,,,,,,,,,,,,,,,,,,,,,,,,,,,,,,,183.2287464000001,None,right,1,0.7563150000005407,183.73024020000048,185.81583349999983,183.73024020000048,185.31509939999978,183.73024020000048,185.31509939999978,183.73024020000048,185.31509939999978,183.73024020000048,185.31509939999978,183.73024020000048,185.31509939999978,185.28195360000063,185.78245180000067,185.28195360000063,185.78245180000067,185.28195360000063,185.78245180000067,185.28195360000063,185.78245180000067,185.28195360000063,185.78245180000067,185.28195360000063,185.78245180000067,185.28195360000063,185.78245180000067,185.28195360000063,185.78245180000067,183.73024020000048,None,185.78245180000067,186.28329029999986,1.5700000000000012,186.30008140000064,None,187.0511178000006,None,,,,,,,[0.48666667],2.1400000000000015,0.7916666666666666,12010,001,2024_Jun_15_1926,MFTM_A_new1021,2021.2.3,59.5357166670381,
,,,,,,,,stim/Instruction_adaptive.png,conditions/adaptive.xlsx,test,-0.6,-0.6,-0.6,0.6,0.6,left,L,,,,,0,1,1,1,0,24,24,9,,,,,,,,,,,,,,,,,,,,,,,,,,,,,,,,,,,,,,,,,,,,187.55239419999998,None,left,1,0.6417903000001388,188.05288480000036,190.05553450000025,188.05288480000036,189.55491820000043,188.05288480000036,189.55491820000043,188.05288480000036,189.55491820000043,188.05288480000036,189.55491820000043,188.05288480000036,189.55491820000043,189.52253180000025,190.0222345000002,189.52253180000025,190.0222345000002,189.52253180000025,190.0222345000002,189.52253180000025,190.0222345000002,189.52253180000025,190.0222345000002,189.52253180000025,190.0222345000002,189.52253180000025,190.0222345000002,189.52253180000025,190.0222345000002,188.05288480000036,None,190.0222345000002,190.5403296000004,1.490000000000001,190.55648160000055,None,191.30732590000025,None,,,,,,,[0.5076],2.2100000000000017,0.8,12010,001,2024_Jun_15_1926,MFTM_A_new1021,2021.2.3,59.5357166670381,
,,,,,,,,stim/Instruction_adaptive.png,conditions/adaptive.xlsx,test,0.6,0.6,0.6,-0.6,-0.6,right,R,,,,,0,1,1,1,0,25,25,16,,,,,,,,,,,,,,,,,,,,,,,,,,,,,,,,,,,,,,,,,,,,191.80847619999986,None,right,1,0.8019091999994998,192.30912179999996,194.22866020000038,192.30912179999996,193.74503000000004,192.30912179999996,193.74503000000004,192.30912179999996,193.74503000000004,192.30912179999996,193.74503000000004,192.30912179999996,193.74503000000004,193.71126189999995,194.21273890000066,193.71126189999995,194.21273890000066,193.71126189999995,194.21273890000066,193.71126189999995,194.21273890000066,193.71126189999995,194.21273890000066,193.71126189999995,194.21273890000066,193.71126189999995,194.21273890000066,193.71126189999995,194.21273890000066,192.30912179999996,None,194.21273890000066,194.7472447,1.420000000000001,194.76424860000043,None,195.51384270000017,None,,,,,,,[0.52961538],2.2700000000000014,0.8076923076923077,12010,001,2024_Jun_15_1926,MFTM_A_new1021,2021.2.3,59.5357166670381,
,,,,,,,,stim/Instruction_adaptive.png,conditions/adaptive.xlsx,test,-0.6,-0.6,-0.6,0.6,0.6,left,L,,,,,0,1,1,1,0,26,26,31,,,,,,,,,,,,,,,,,,,,,,,,,,,,,,,,,,,,,,,,,,,,196.01550250000037,None,left,1,1.5553285999994841,196.51573370000006,198.38568140000007,196.51573370000006,197.88431330000003,196.51573370000006,197.88431330000003,196.51573370000006,197.88431330000003,196.51573370000006,197.88431330000003,196.51573370000006,197.88431330000003,197.85081290000016,198.35192929999994,197.85081290000016,198.35192929999994,197.85081290000016,198.35192929999994,197.85081290000016,198.35192929999994,197.85081290000016,198.35192929999994,197.85081290000016,198.35192929999994,197.85081290000016,198.35192929999994,197.85081290000016,198.35192929999994,196.51573370000006,None,198.35192929999994,198.91905230000066,1.360000000000001,198.9357326999998,None,199.6874241000005,None,,,,,,,[0.55222222],2.330000000000002,0.8148148148148148,12010,001,2024_Jun_15_1926,MFTM_A_new1021,2021.2.3,59.5357166670381,
,,,,,,,,stim/Instruction_adaptive.png,conditions/adaptive.xlsx,test,0.6,0.6,0.6,-0.6,-0.6,right,R,,,,,0,1,1,1,0,27,27,90,,,,,,,,,,,,,,,,,,,,,,,,,,,,,,,,,,,,,,,,,,,,200.1876868999998,None,right,1,0.7745055999994293,200.68837090000034,202.50847770000018,200.68837090000034,202.00787200000013,200.68837090000034,202.00787200000013,200.68837090000034,202.00787200000013,200.68837090000034,202.00787200000013,200.68837090000034,202.00787200000013,201.97369640000034,202.47452599999997,201.97369640000034,202.47452599999997,201.97369640000034,202.47452599999997,201.97369640000034,202.47452599999997,201.97369640000034,202.47452599999997,201.97369640000034,202.47452599999997,201.97369640000034,202.47452599999997,201.97369640000034,202.47452599999997,200.68837090000034,None,202.47452599999997,203.05849769999986,1.310000000000001,203.0755624000003,None,203.8264162000005,None,,,,,,,[0.575],2.3900000000000015,0.8214285714285714,12010,001,2024_Jun_15_1926,MFTM_A_new1021,2021.2.3,59.5357166670381,
,,,,,,,,stim/Instruction_adaptive.png,conditions/adaptive.xlsx,test,-0.6,-0.6,-0.6,0.6,0.6,left,L,,,,,0,1,1,1,0,28,28,59,,,,,,,,,,,,,,,,,,,,,,,,,,,,,,,,,,,,,,,,,,,,204.32826490000025,None,right,0,0.8506566000005478,204.82903429999988,206.59720360000028,204.82903429999988,206.09699480000018,204.82903429999988,206.09699480000018,204.82903429999988,206.09699480000018,204.82903429999988,206.09699480000018,204.82903429999988,206.09699480000018,206.06340050000017,206.5639669000002,206.06340050000017,206.5639669000002,206.06340050000017,206.5639669000002,206.06340050000017,206.5639669000002,206.06340050000017,206.5639669000002,206.06340050000017,206.5639669000002,206.06340050000017,206.5639669000002,206.06340050000017,206.5639669000002,204.82903429999988,None,206.5639669000002,207.16492500000004,1.260000000000001,207.19859929999984,None,207.95008099999995,None,,,,,,,[0.59793103],2.2300000000000013,0.7931034482758621,12010,001,2024_Jun_15_1926,MFTM_A_new1021,2021.2.3,59.5357166670381,
,,,,,,,,stim/Instruction_adaptive.png,conditions/adaptive.xlsx,test,0.6,0.6,0.6,-0.6,-0.6,right,R,,,,,0,1,1,1,0,29,29,6,,,,,,,,,,,,,,,,,,,,,,,,,,,,,,,,,,,,,,,,,,,,208.45011410000006,None,right,1,1.7915181999997003,208.95188890000009,210.85451890000058,208.95188890000009,210.3533819000004,208.95188890000009,210.3533819000004,208.95188890000009,210.3533819000004,208.95188890000009,210.3533819000004,208.95188890000009,210.3533819000004,210.33635140000024,210.8372433000004,210.33635140000024,210.8372433000004,210.33635140000024,210.8372433000004,210.33635140000024,210.8372433000004,210.33635140000024,210.8372433000004,210.33635140000024,210.8372433000004,210.33635140000024,210.8372433000004,210.33635140000024,210.8372433000004,208.95188890000009,None,210.8372433000004,211.45525989999987,1.400000000000001,211.47113470000022,None,212.2223885000003,None,,,,,,,[0.61466667],2.2800000000000016,0.8,12010,001,2024_Jun_15_1926,MFTM_A_new1021,2021.2.3,59.5357166670381,
,,,,,,,,stim/Instruction_adaptive.png,conditions/adaptive.xlsx,test,0.6,0.6,0.6,-0.6,-0.6,right,R,,,,,0,1,1,1,0,30,30,70,,,,,,,,,,,,,,,,,,,,,,,,,,,,,,,,,,,,,,,,,,,,212.72325350000028,None,left,0,1.2634620999997423,213.22447900000043,215.07763419999992,213.22447900000043,214.57639170000039,213.22447900000043,214.57639170000039,213.22447900000043,214.57639170000039,213.22447900000043,214.57639170000039,213.22447900000043,214.57639170000039,214.55945220000012,215.06081369999993,214.55945220000012,215.06081369999993,214.55945220000012,215.06081369999993,214.55945220000012,215.06081369999993,214.55945220000012,215.06081369999993,214.55945220000012,215.06081369999993,214.55945220000012,215.06081369999993,214.55945220000012,215.06081369999993,213.22447900000043,None,215.06081369999993,215.6943712000002,1.350000000000001,215.71100430000024,None,216.4630369000006,None,,,,,,,[0.63193548],2.1300000000000017,0.7741935483870968,12010,001,2024_Jun_15_1926,MFTM_A_new1021,2021.2.3,59.5357166670381,
,,,,,,,,stim/Instruction_adaptive.png,conditions/adaptive.xlsx,test,0.6,0.6,0.6,-0.6,-0.6,right,R,,,,,0,1,1,1,0,31,31,22,,,,,,,,,,,,,,,,,,,,,,,,,,,,,,,,,,,,,,,,,,,,216.96295480000026,None,left,0,0.8165027999993981,217.4637818000001,219.46688559999984,217.4637818000001,218.9666416,217.4637818000001,218.9666416,217.4637818000001,218.9666416,217.4637818000001,218.9666416,217.4637818000001,218.9666416,218.95009879999998,219.45096340000055,218.95009879999998,219.45096340000055,218.95009879999998,219.45096340000055,218.95009879999998,219.45096340000055,218.95009879999998,219.45096340000055,218.95009879999998,219.45096340000055,218.95009879999998,219.45096340000055,218.95009879999998,219.45096340000055,217.4637818000001,None,219.45096340000055,220.10088129999986,1.500000000000001,220.11756250000053,None,220.86896830000023,None,,,,,,,[0.6434375],1.9600000000000013,0.75,12010,001,2024_Jun_15_1926,MFTM_A_new1021,2021.2.3,59.5357166670381,
,,,,,,,,stim/Instruction_adaptive.png,conditions/adaptive.xlsx,test,0.6,0.6,0.6,-0.6,-0.6,right,R,,,,,0,1,1,1,0,32,32,32,,,,,,,,,,,,,,,,,,,,,,,,,,,,,,,,,,,,,,,,,,,,221.3710762999999,None,left,0,0.7129715999999462,221.87122530000033,224.07401420000042,221.87122530000033,223.5729747000005,221.87122530000033,223.5729747000005,221.87122530000033,223.5729747000005,221.87122530000033,223.5729747000005,221.87122530000033,223.5729747000005,223.54024579999987,224.04046460000063,223.54024579999987,224.04046460000063,223.54024579999987,224.04046460000063,223.54024579999987,224.04046460000063,223.54024579999987,224.04046460000063,223.54024579999987,224.04046460000063,223.54024579999987,224.04046460000063,223.54024579999987,224.04046460000063,221.87122530000033,None,224.04046460000063,224.69227390000015,1.6900000000000013,224.70791240000017,None,225.4590764000004,None,,,,,,,[0.64848485],1.7800000000000011,0.7272727272727273,12010,001,2024_Jun_15_1926,MFTM_A_new1021,2021.2.3,59.5357166670381,
,,,,,,,,stim/Instruction_adaptive.png,conditions/adaptive.xlsx,test,-0.6,-0.6,-0.6,0.6,0.6,left,L,,,,,0,1,1,1,0,33,33,75,,,,,,,,,,,,,,,,,,,,,,,,,,,,,,,,,,,,,,,,,,,,225.96042880000005,None,left,1,0.6589479000003848,226.4607532,228.88094900000033,226.4607532,228.3805911999998,226.4607532,228.3805911999998,226.4607532,228.3805911999998,226.4607532,228.3805911999998,226.4607532,228.3805911999998,228.36433510000006,228.86500179999985,228.36433510000006,228.86500179999985,228.36433510000006,228.86500179999985,228.36433510000006,228.86500179999985,228.36433510000006,228.86500179999985,228.36433510000006,228.86500179999985,228.36433510000006,228.86500179999985,228.36433510000006,228.86500179999985,226.4607532,None,228.86500179999985,229.44856620000064,1.9200000000000015,229.46507689999999,None,230.21723030000067,None,,,,,,,[[0.58]],1.8500000000000012,0.7352941176470589,12010,001,2024_Jun_15_1926,MFTM_A_new1021,2021.2.3,59.5357166670381,
,,,,,,,,stim/Instruction_adaptive.png,conditions/adaptive.xlsx,test,-0.6,-0.6,-0.6,0.6,0.6,left,L,,,,,0,1,1,1,0,34,34,51,,,,,,,,,,,,,,,,,,,,,,,,,,,,,,,,,,,,,,,,,,,,230.7179225,None,left,1,0.7420986999995876,231.21772320000036,233.5387178000001,231.21772320000036,233.03790440000012,231.21772320000036,233.03790440000012,231.21772320000036,233.03790440000012,231.21772320000036,233.03790440000012,231.21772320000036,233.03790440000012,233.02088120000008,233.5225543000006,233.02088120000008,233.5225543000006,233.02088120000008,233.5225543000006,233.02088120000008,233.5225543000006,233.02088120000008,233.5225543000006,233.02088120000008,233.5225543000006,233.02088120000008,233.5225543000006,233.02088120000008,233.5225543000006,231.21772320000036,None,233.5225543000006,234.1726720000006,1.8200000000000014,234.18989180000062,None,234.9401413000005,None,,,,,,,[0.64742857],1.9100000000000013,0.7428571428571429,12010,001,2024_Jun_15_1926,MFTM_A_new1021,2021.2.3,59.5357166670381,
,,,,,,,,stim/Instruction_adaptive.png,conditions/adaptive.xlsx,test,0.6,0.6,0.6,-0.6,-0.6,right,R,,,,,0,1,1,1,0,35,35,78,,,,,,,,,,,,,,,,,,,,,,,,,,,,,,,,,,,,,,,,,,,,235.44090159999996,None,left,0,0.8736533999999665,235.9423714000004,238.1956936000006,235.9423714000004,237.69438440000067,235.9423714000004,237.69438440000067,235.9423714000004,237.69438440000067,235.9423714000004,237.69438440000067,235.9423714000004,237.69438440000067,237.6776694,238.17910740000025,237.6776694,238.17910740000025,237.6776694,238.17910740000025,237.6776694,238.17910740000025,237.6776694,238.17910740000025,237.6776694,238.17910740000025,237.6776694,238.17910740000025,237.6776694,238.17910740000025,235.9423714000004,None,238.17910740000025,238.8305758000006,1.7500000000000013,238.84580880000067,None,239.59776710000006,None,,,,,,,[0.65027778],1.730000000000001,0.7222222222222222,12010,001,2024_Jun_15_1926,MFTM_A_new1021,2021.2.3,59.5357166670381,
,,,,,,,,stim/Instruction_adaptive.png,conditions/adaptive.xlsx,test,-0.6,-0.6,-0.6,0.6,0.6,left,L,,,,,0,1,1,1,0,36,36,25,,,,,,,,,,,,,,,,,,,,,,,,,,,,,,,,,,,,,,,,,,,,240.0986542999999,None,left,1,1.5857290999992983,240.5986836000002,243.0863801000005,240.5986836000002,242.58499200000006,240.5986836000002,242.58499200000006,240.5986836000002,242.58499200000006,240.5986836000002,242.58499200000006,240.5986836000002,242.58499200000006,242.5687839000002,243.07002660000035,242.5687839000002,243.07002660000035,242.5687839000002,243.07002660000035,242.5687839000002,243.07002660000035,242.5687839000002,243.07002660000035,242.5687839000002,243.07002660000035,242.5687839000002,243.07002660000035,242.5687839000002,243.07002660000035,240.5986836000002,None,243.07002660000035,None,1.9800000000000015,243.60297170000013,None,244.3543507000004,None,,,,,,,[[0.52]],1.8000000000000012,0.7297297297297297,12010,001,2024_Jun_15_1926,MFTM_A_new1021,2021.2.3,59.5357166670381,
,,,,,,,,stim/Instruction_adaptive.png,conditions/adaptive.xlsx,test,0.6,0.6,0.6,-0.6,-0.6,right,R,,,,,0,1,1,1,0,37,37,14,,,,,,,,,,,,,,,,,,,,,,,,,,,,,,,,,,,,,,,,,,,,244.85529159999987,None,right,1,1.2126066999999239,245.35568469999998,247.76044869999987,245.35568469999998,247.25964199999999,245.35568469999998,247.25964199999999,245.35568469999998,247.25964199999999,245.35568469999998,247.25964199999999,245.35568469999998,247.25964199999999,247.22549290000006,247.7263877000005,247.22549290000006,247.7263877000005,247.22549290000006,247.7263877000005,247.22549290000006,247.7263877000005,247.22549290000006,247.7263877000005,247.22549290000006,247.7263877000005,247.22549290000006,247.7263877000005,247.22549290000006,247.7263877000005,245.35568469999998,None,247.7263877000005,248.3443612000001,1.8900000000000015,248.36001000000033,None,249.11228160000064,None,,,,,,,[[0.61]],1.8500000000000012,0.7368421052631579,12010,001,2024_Jun_15_1926,MFTM_A_new1021,2021.2.3,59.5357166670381,
,,,,,,,,stim/Instruction_adaptive.png,conditions/adaptive.xlsx,test,0.6,0.6,0.6,-0.6,-0.6,right,R,,,,,0,1,1,1,0,38,38,26,,,,,,,,,,,,,,,,,,,,,,,,,,,,,,,,,,,,,,,,,,,,249.6122690000002,None,right,1,1.167395800000122,250.1132834,252.43335350000052,250.1132834,251.93228140000065,250.1132834,251.93228140000065,250.1132834,251.93228140000065,250.1132834,251.93228140000065,250.1132834,251.93228140000065,251.91642409999986,252.4164552000002,251.91642409999986,252.4164552000002,251.91642409999986,252.4164552000002,251.91642409999986,252.4164552000002,251.91642409999986,252.4164552000002,251.91642409999986,252.4164552000002,251.91642409999986,252.4164552000002,251.91642409999986,252.4164552000002,250.1132834,None,252.4164552000002,253.06800490000023,1.8200000000000014,253.08488380000017,None,253.83583230000022,None,,,,,,,[0.64666667],1.9100000000000013,0.7435897435897436,12010,001,2024_Jun_15_1926,MFTM_A_new1021,2021.2.3,59.5357166670381,
,,,,,,,,stim/Instruction_adaptive.png,conditions/adaptive.xlsx,test,0.6,0.6,0.6,-0.6,-0.6,right,R,,,,,0,1,1,1,0,39,39,30,,,,,,,,,,,,,,,,,,,,,,,,,,,,,,,,,,,,,,,,,,,,254.3365635,None,right,1,0.9322520999994595,254.83665800000017,257.0901270000004,254.83665800000017,256.5908675999999,254.83665800000017,256.5908675999999,254.83665800000017,256.5908675999999,254.83665800000017,256.5908675999999,254.83665800000017,256.5908675999999,256.57271670000046,257.0739119,256.57271670000046,257.0739119,256.57271670000046,257.0739119,256.57271670000046,257.0739119,256.57271670000046,257.0739119,256.57271670000046,257.0739119,256.57271670000046,257.0739119,256.57271670000046,257.0739119,254.83665800000017,None,257.0739119,257.72518579999996,1.7500000000000013,257.74105940000027,None,258.4934238000005,None,,,,,,,[0.64925],1.9600000000000013,0.75,12010,001,2024_Jun_15_1926,MFTM_A_new1021,2021.2.3,59.5357166670381,
,,,,,,,,stim/Instruction_adaptive.png,conditions/adaptive.xlsx,test,0.6,0.6,0.6,-0.6,-0.6,right,R,,,,,0,1,1,1,0,40,40,34,,,,,,,,,,,,,,,,,,,,,,,,,,,,,,,,,,,,,,,,,,,,258.9935675000006,None,right,1,1.6354448000001867,259.4938587000006,261.6984659999998,259.4938587000006,261.19669260000046,259.4938587000006,261.19669260000046,259.4938587000006,261.19669260000046,259.4938587000006,261.19669260000046,259.4938587000006,261.19669260000046,261.16302780000024,261.66370330000063,261.16302780000024,261.66370330000063,261.16302780000024,261.66370330000063,261.16302780000024,261.66370330000063,261.16302780000024,261.66370330000063,261.16302780000024,261.66370330000063,261.16302780000024,261.66370330000063,261.16302780000024,261.66370330000063,259.4938587000006,None,261.66370330000063,262.33212809999986,1.6900000000000013,262.3478604000002,None,263.1006312999998,None,,,,,,,[0.65317073],2.0000000000000013,0.7560975609756098,12010,001,2024_Jun_15_1926,MFTM_A_new1021,2021.2.3,59.5357166670381,
,,,,,,,,stim/Instruction_adaptive.png,conditions/adaptive.xlsx,test,-0.6,-0.6,-0.6,0.6,0.6,left,L,,,,,0,1,1,1,0,41,41,43,,,,,,,,,,,,,,,,,,,,,,,,,,,,,,,,,,,,,,,,,,,,263.6011317000002,None,left,1,1.2919564000003447,264.1008083000006,266.25397239999984,264.1008083000006,265.75323500000013,264.1008083000006,265.75323500000013,264.1008083000006,265.75323500000013,264.1008083000006,265.75323500000013,264.1008083000006,265.75323500000013,265.7198377000004,266.2204363999999,265.7198377000004,266.2204363999999,265.7198377000004,266.2204363999999,265.7198377000004,266.2204363999999,265.7198377000004,266.2204363999999,265.7198377000004,266.2204363999999,265.7198377000004,266.2204363999999,265.7198377000004,266.2204363999999,264.1008083000006,None,266.2204363999999,266.88815109999996,1.6400000000000012,266.9047780000001,None,267.65709740000057,None,,,,,,,[0.65809524],2.0500000000000016,0.7619047619047619,12010,001,2024_Jun_15_1926,MFTM_A_new1021,2021.2.3,59.5357166670381,
,,,,,,,,stim/Instruction_adaptive.png,conditions/adaptive.xlsx,test,-0.6,-0.6,-0.6,0.6,0.6,left,L,,,,,0,1,1,1,0,42,42,91,,,,,,,,,,,,,,,,,,,,,,,,,,,,,,,,,,,,,,,,,,,,268.15681250000034,None,left,1,1.4382676000004722,268.65888970000015,270.76166530000046,268.65888970000015,270.2601957000006,268.65888970000015,270.2601957000006,268.65888970000015,270.2601957000006,268.65888970000015,270.2601957000006,268.65888970000015,270.2601957000006,270.22662260000016,270.7273488000001,270.22662260000016,270.7273488000001,270.22662260000016,270.7273488000001,270.22662260000016,270.7273488000001,270.22662260000016,270.7273488000001,270.22662260000016,270.7273488000001,270.22662260000016,270.7273488000001,270.22662260000016,270.7273488000001,268.65888970000015,None,270.7273488000001,271.3958442000003,1.5900000000000012,271.41218260000005,None,272.1637539000003,None,,,,,,,[0.66395349],2.0900000000000016,0.7674418604651163,12010,001,2024_Jun_15_1926,MFTM_A_new1021,2021.2.3,59.5357166670381,
,,,,,,,,stim/Instruction_adaptive.png,conditions/adaptive.xlsx,test,0.6,0.6,0.6,-0.6,-0.6,right,R,,,,,0,1,1,1,0,43,43,80,,,,,,,,,,,,,,,,,,,,,,,,,,,,,,,,,,,,,,,,,,,,272.66405699999996,None,right,1,0.7884388000002218,273.16456560000006,275.2174474000003,273.16456560000006,274.7168597,273.16456560000006,274.7168597,273.16456560000006,274.7168597,273.16456560000006,274.7168597,273.16456560000006,274.7168597,274.7005355000001,275.2007293000006,274.7005355000001,275.2007293000006,274.7005355000001,275.2007293000006,274.7005355000001,275.2007293000006,274.7005355000001,275.2007293000006,274.7005355000001,275.2007293000006,274.7005355000001,275.2007293000006,274.7005355000001,275.2007293000006,273.16456560000006,None,275.2007293000006,None,1.5500000000000012,275.8857084000001,None,276.6373319000004,None,,,,,,,[0.67045455],2.1300000000000017,0.7727272727272727,12010,001,2024_Jun_15_1926,MFTM_A_new1021,2021.2.3,59.5357166670381,
,,,,,,,,stim/Instruction_adaptive.png,conditions/adaptive.xlsx,test,0.6,0.6,0.6,-0.6,-0.6,right,R,,,,,0,1,1,1,0,44,44,68,,,,,,,,,,,,,,,,,,,,,,,,,,,,,,,,,,,,,,,,,,,,277.13700900000003,None,right,1,0.9386329999997542,277.63843160000033,279.6408382999998,277.63843160000033,279.1408749000002,277.63843160000033,279.1408749000002,277.63843160000033,279.1408749000002,277.63843160000033,279.1408749000002,277.63843160000033,279.1408749000002,279.1235224000002,279.6240638999998,279.1235224000002,279.6240638999998,279.1235224000002,279.6240638999998,279.1235224000002,279.6240638999998,279.1235224000002,279.6240638999998,279.1235224000002,279.6240638999998,279.1235224000002,279.6240638999998,279.1235224000002,279.6240638999998,277.63843160000033,None,279.6240638999998,280.3090922000001,1.500000000000001,280.32526020000023,None,281.0762315000002,None,,,,,,,[0.67777778],2.1700000000000017,0.7777777777777778,12010,001,2024_Jun_15_1926,MFTM_A_new1021,2021.2.3,59.5357166670381,
,,,,,,,,stim/Instruction_adaptive.png,conditions/adaptive.xlsx,test,-0.6,-0.6,-0.6,0.6,0.6,left,L,,,,,0,1,1,1,0,45,45,39,,,,,,,,,,,,,,,,,,,,,,,,,,,,,,,,,,,,,,,,,,,,281.5769736000002,None,left,1,1.7875291000000288,282.07781220000015,284.04740459999994,282.07781220000015,283.5466206000001,282.07781220000015,283.5466206000001,282.07781220000015,283.5466206000001,282.07781220000015,283.5466206000001,282.07781220000015,283.5466206000001,283.53011590000006,284.03079909999997,283.53011590000006,284.03079909999997,283.53011590000006,284.03079909999997,283.53011590000006,284.03079909999997,283.53011590000006,284.03079909999997,283.53011590000006,284.03079909999997,283.53011590000006,284.03079909999997,283.53011590000006,284.03079909999997,282.07781220000015,None,284.03079909999997,284.71509890000016,1.460000000000001,284.7326815000006,None,285.48281320000024,None,,,,,,,[0.68565217],2.2100000000000017,0.782608695652174,12010,001,2024_Jun_15_1926,MFTM_A_new1021,2021.2.3,59.5357166670381,
,,,,,,,,stim/Instruction_adaptive.png,conditions/adaptive.xlsx,test,-0.6,-0.6,-0.6,0.6,0.6,left,L,,,,,0,1,1,1,0,46,46,11,,,,,,,,,,,,,,,,,,,,,,,,,,,,,,,,,,,,,,,,,,,,285.9836132999999,None,left,1,1.3089415999993435,286.48457510000026,288.40438150000045,286.48457510000026,287.91998370000056,286.48457510000026,287.91998370000056,286.48457510000026,287.91998370000056,286.48457510000026,287.91998370000056,286.48457510000026,287.91998370000056,287.8868244000005,288.38846960000046,287.8868244000005,288.38846960000046,287.8868244000005,288.38846960000046,287.8868244000005,288.38846960000046,287.8868244000005,288.38846960000046,287.8868244000005,288.38846960000046,287.8868244000005,288.38846960000046,287.8868244000005,288.38846960000046,286.48457510000026,None,288.38846960000046,289.0886337000002,1.420000000000001,289.1054844999999,None,289.85623320000013,None,,,,,,,[0.69404255],2.2500000000000018,0.7872340425531915,12010,001,2024_Jun_15_1926,MFTM_A_new1021,2021.2.3,59.5357166670381,
,,,,,,,,stim/Instruction_adaptive.png,conditions/adaptive.xlsx,test,0.6,0.6,0.6,-0.6,-0.6,right,R,,,,,0,1,1,1,0,47,47,88,,,,,,,,,,,,,,,,,,,,,,,,,,,,,,,,,,,,,,,,,,,,290.3578630000002,None,right,1,0.7753445999996984,290.8582475000003,292.74471770000036,290.8582475000003,292.2440639000006,290.8582475000003,292.2440639000006,290.8582475000003,292.2440639000006,290.8582475000003,292.2440639000006,290.8582475000003,292.2440639000006,292.22763980000036,292.7280343000002,292.22763980000036,292.7280343000002,292.22763980000036,292.7280343000002,292.22763980000036,292.7280343000002,292.22763980000036,292.7280343000002,292.22763980000036,292.7280343000002,292.22763980000036,292.7280343000002,292.22763980000036,292.7280343000002,290.8582475000003,None,292.7280343000002,None,1.380000000000001,293.4456673000004,None,294.1982259000006,None,,,,,,,[0.70291667],2.2800000000000016,0.7916666666666666,12010,001,2024_Jun_15_1926,MFTM_A_new1021,2021.2.3,59.5357166670381,
,,,,,,,,stim/Instruction_adaptive.png,conditions/adaptive.xlsx,test,0.6,0.6,0.6,-0.6,-0.6,right,R,,,,,0,1,1,1,0,48,48,40,,,,,,,,,,,,,,,,,,,,,,,,,,,,,,,,,,,,,,,,,,,,294.7143157999999,None,right,1,1.0997122999997373,295.21420430000035,297.06778470000063,295.21420430000035,296.56710660000044,295.21420430000035,296.56710660000044,295.21420430000035,296.56710660000044,295.21420430000035,296.56710660000044,295.21420430000035,296.56710660000044,296.5512189000001,297.05033679999997,296.5512189000001,297.05033679999997,296.5512189000001,297.05033679999997,296.5512189000001,297.05033679999997,296.5512189000001,297.05033679999997,296.5512189000001,297.05033679999997,296.5512189000001,297.05033679999997,296.5512189000001,297.05033679999997,295.21420430000035,None,297.05033679999997,297.7688179000006,1.350000000000001,297.7853530000002,None,298.5367556000001,None,,,,,,,[0.71204082],2.3200000000000016,0.7959183673469388,12010,001,2024_Jun_15_1926,MFTM_A_new1021,2021.2.3,59.5357166670381,
,,,,,,,,stim/Instruction_adaptive.png,conditions/adaptive.xlsx,test,0.6,0.6,0.6,-0.6,-0.6,right,R,,,,,0,1,1,1,0,49,49,86,,,,,,,,,,,,,,,,,,,,,,,,,,,,,,,,,,,,,,,,,,,,299.03665550000005,None,left,0,0.5512847999998485,299.53847700000006,301.3568034,299.53847700000006,300.8736419000006,299.53847700000006,300.8736419000006,299.53847700000006,300.8736419000006,299.53847700000006,300.8736419000006,299.53847700000006,300.8736419000006,300.8394208999998,301.3409631000004,300.8394208999998,301.3409631000004,300.8394208999998,301.3409631000004,300.8394208999998,301.3409631000004,300.8394208999998,301.3409631000004,300.8394208999998,301.3409631000004,300.8394208999998,301.3409631000004,300.8394208999998,301.3409631000004,299.53847700000006,None,301.3409631000004,302.0755122999999,1.320000000000001,302.09127420000004,None,302.8432929999999,None,,,,,,,[0.7214],2.2200000000000015,0.78,12010,001,2024_Jun_15_1926,MFTM_A_new1021,2021.2.3,59.5357166670381,
,,,,,,,,stim/Instruction_adaptive.png,conditions/adaptive.xlsx,test,-0.6,-0.6,-0.6,0.6,0.6,left,L,,,,,0,1,1,1,0,50,50,89,,,,,,,,,,,,,,,,,,,,,,,,,,,,,,,,,,,,,,,,,,,,303.34397400000034,None,left,1,2.157589499999631,303.844333,305.76423440000053,303.844333,305.26284060000035,303.844333,305.26284060000035,303.844333,305.26284060000035,303.844333,305.26284060000035,303.844333,305.26284060000035,305.2291386000006,305.73072390000016,305.2291386000006,305.73072390000016,305.2291386000006,305.73072390000016,305.2291386000006,305.73072390000016,305.2291386000006,305.73072390000016,305.2291386000006,305.73072390000016,305.2291386000006,305.73072390000016,305.2291386000006,305.73072390000016,303.844333,None,305.73072390000016,306.4652255000001,1.410000000000001,306.4975512000001,None,307.2488742000005,None,,,,,,,[0.72862745],2.2500000000000018,0.7843137254901961,12010,001,2024_Jun_15_1926,MFTM_A_new1021,2021.2.3,59.5357166670381,
,,,,,,,,stim/Instruction_adaptive.png,conditions/adaptive.xlsx,test,-0.6,-0.6,-0.6,0.6,0.6,left,L,,,,,0,1,1,1,0,51,51,35,,,,,,,,,,,,,,,,,,,,,,,,,,,,,,,,,,,,,,,,,,,,307.7507548000003,None,left,1,1.8234050000000934,308.25068680000004,310.1368002999998,308.25068680000004,309.63608230000045,308.25068680000004,309.63608230000045,308.25068680000004,309.63608230000045,308.25068680000004,309.63608230000045,308.25068680000004,309.63608230000045,309.6201423000002,310.1207645000004,309.6201423000002,310.1207645000004,309.6201423000002,310.1207645000004,309.6201423000002,310.1207645000004,309.6201423000002,310.1207645000004,309.6201423000002,310.1207645000004,309.6201423000002,310.1207645000004,309.6201423000002,310.1207645000004,308.25068680000004,None,310.1207645000004,None,1.380000000000001,310.8713613,None,311.62321900000006,None,,,,,,,[0.73615385],2.2800000000000016,0.7884615384615384,12010,001,2024_Jun_15_1926,MFTM_A_new1021,2021.2.3,59.5357166670381,
,,,,,,,,stim/Instruction_adaptive.png,conditions/adaptive.xlsx,test,-0.6,-0.6,-0.6,0.6,0.6,left,L,,,,,0,1,1,1,0,52,52,47,,,,,,,,,,,,,,,,,,,,,,,,,,,,,,,,,,,,,,,,,,,,312.12401279999995,None,left,1,0.7620699999997669,312.62403129999984,314.4772085000004,312.62403129999984,313.9767634,312.62403129999984,313.9767634,312.62403129999984,313.9767634,312.62403129999984,313.9767634,312.62403129999984,313.9767634,313.95997500000067,314.4599269,313.95997500000067,314.4599269,313.95997500000067,314.4599269,313.95997500000067,314.4599269,313.95997500000067,314.4599269,313.95997500000067,314.4599269,313.95997500000067,314.4599269,313.95997500000067,314.4599269,312.62403129999984,None,314.4599269,315.21110990000034,1.350000000000001,315.227707,None,315.9789676999999,None,,,,,,,[0.74396226],2.3200000000000016,0.7924528301886793,12010,001,2024_Jun_15_1926,MFTM_A_new1021,2021.2.3,59.5357166670381,
,,,,,,,,stim/Instruction_adaptive.png,conditions/adaptive.xlsx,test,-0.6,-0.6,-0.6,0.6,0.6,left,L,,,,,0,1,1,1,0,53,53,45,,,,,,,,,,,,,,,,,,,,,,,,,,,,,,,,,,,,,,,,,,,,316.4795240000003,None,left,1,1.9182026999997106,316.98101829999996,318.799841,316.98101829999996,318.31669349999993,316.98101829999996,318.31669349999993,316.98101829999996,318.31669349999993,316.98101829999996,318.31669349999993,316.98101829999996,318.31669349999993,318.2824092000001,318.7848958000004,318.2824092000001,318.7848958000004,318.2824092000001,318.7848958000004,318.2824092000001,318.7848958000004,318.2824092000001,318.7848958000004,318.2824092000001,318.7848958000004,318.2824092000001,318.7848958000004,318.2824092000001,318.7848958000004,316.98101829999996,None,318.7848958000004,319.55196179999984,1.320000000000001,319.5678011,None,320.3188897,None,,,,,,,[0.75203704],2.3500000000000014,0.7962962962962963,12010,001,2024_Jun_15_1926,MFTM_A_new1021,2021.2.3,59.5357166670381,
,,,,,,,,stim/Instruction_adaptive.png,conditions/adaptive.xlsx,test,-0.6,-0.6,-0.6,0.6,0.6,left,L,,,,,0,1,1,1,0,54,54,41,,,,,,,,,,,,,,,,,,,,,,,,,,,,,,,,,,,,,,,,,,,,320.8198888000006,None,left,1,1.202797400000236,321.32025969999995,323.12506510000003,321.32025969999995,322.6223230000005,321.32025969999995,322.6223230000005,321.32025969999995,322.6223230000005,321.32025969999995,322.6223230000005,321.32025969999995,322.6223230000005,322.58904789999997,323.0900558000003,322.58904789999997,323.0900558000003,322.58904789999997,323.0900558000003,322.58904789999997,323.0900558000003,322.58904789999997,323.0900558000003,322.58904789999997,323.0900558000003,322.58904789999997,323.0900558000003,322.58904789999997,323.0900558000003,321.32025969999995,None,323.0900558000003,323.85797730000013,1.290000000000001,323.8741931000004,None,324.62537520000024,None,,,,,,,[0.76036364],2.3800000000000017,0.8,12010,001,2024_Jun_15_1926,MFTM_A_new1021,2021.2.3,59.5357166670381,
,,,,,,,,stim/Instruction_adaptive.png,conditions/adaptive.xlsx,test,-0.6,-0.6,-0.6,0.6,0.6,left,L,,,,,0,1,1,1,0,55,55,83,,,,,,,,,,,,,,,,,,,,,,,,,,,,,,,,,,,,,,,,,,,,325.12596790000043,None,left,1,0.7277940000003582,325.6267727000004,327.3960997000004,325.6267727000004,326.89642080000067,325.6267727000004,326.89642080000067,325.6267727000004,326.89642080000067,325.6267727000004,326.89642080000067,325.6267727000004,326.89642080000067,326.8626770000001,327.3628595,326.8626770000001,327.3628595,326.8626770000001,327.3628595,326.8626770000001,327.3628595,326.8626770000001,327.3628595,326.8626770000001,327.3628595,326.8626770000001,327.3628595,326.8626770000001,327.3628595,325.6267727000004,None,327.3628595,328.13149860000067,1.260000000000001,328.1639992999999,None,328.9161541000003,None,,,,,,,[0.76892857],2.410000000000002,0.8035714285714286,12010,001,2024_Jun_15_1926,MFTM_A_new1021,2021.2.3,59.5357166670381,
,,,,,,,,stim/Instruction_adaptive.png,conditions/adaptive.xlsx,test,-0.6,-0.6,-0.6,0.6,0.6,left,L,,,,,0,1,1,1,0,56,56,57,,,,,,,,,,,,,,,,,,,,,,,,,,,,,,,,,,,,,,,,,,,,329.41679269999986,None,left,1,0.9661329000000478,329.91668160000063,331.6707121999998,329.91668160000063,331.16925420000007,329.91668160000063,331.16925420000007,329.91668160000063,331.16925420000007,329.91668160000063,331.16925420000007,329.91668160000063,331.16925420000007,331.1352353000002,331.6366766000001,331.1352353000002,331.6366766000001,331.1352353000002,331.6366766000001,331.1352353000002,331.6366766000001,331.1352353000002,331.6366766000001,331.1352353000002,331.6366766000001,331.1352353000002,331.6366766000001,331.1352353000002,331.6366766000001,329.91668160000063,None,331.6366766000001,332.42053190000024,1.2400000000000009,332.4371398000003,None,333.1882153000006,None,,,,,,,[0.77754386],2.4300000000000015,0.8070175438596491,12010,001,2024_Jun_15_1926,MFTM_A_new1021,2021.2.3,59.5357166670381,
,,,,,,,,stim/Instruction_adaptive.png,conditions/adaptive.xlsx,test,0.6,0.6,0.6,-0.6,-0.6,right,R,,,,,0,1,1,1,0,57,57,42,,,,,,,,,,,,,,,,,,,,,,,,,,,,,,,,,,,,,,,,,,,,333.6899954999999,None,right,1,1.9731032999998206,334.1897798,335.9104077000002,334.1897798,335.4248597000005,334.1897798,335.4248597000005,334.1897798,335.4248597000005,334.1897798,335.4248597000005,334.1897798,335.4248597000005,335.3914751000002,335.8933452000001,335.3914751000002,335.8933452000001,335.3914751000002,335.8933452000001,335.3914751000002,335.8933452000001,335.3914751000002,335.8933452000001,335.3914751000002,335.8933452000001,335.3914751000002,335.8933452000001,335.3914751000002,335.8933452000001,334.1897798,None,335.8933452000001,336.69359600000007,1.2200000000000009,336.71059570000034,None,337.4620967999999,None,,,,,,,[0.7862069],2.4600000000000017,0.8103448275862069,12010,001,2024_Jun_15_1926,MFTM_A_new1021,2021.2.3,59.5357166670381,
,,,,,,,,stim/Instruction_adaptive.png,conditions/adaptive.xlsx,test,-0.6,-0.6,-0.6,0.6,0.6,left,L,,,,,0,1,1,1,0,58,58,67,,,,,,,,,,,,,,,,,,,,,,,,,,,,,,,,,,,,,,,,,,,,337.9625823000006,None,left,1,1.5403577999995832,338.4627420000006,340.16554610000003,338.4627420000006,339.66549550000036,338.4627420000006,339.66549550000036,338.4627420000006,339.66549550000036,338.4627420000006,339.66549550000036,338.4627420000006,339.66549550000036,339.6479764000005,340.1494455000002,339.6479764000005,340.1494455000002,339.6479764000005,340.1494455000002,339.6479764000005,340.1494455000002,339.6479764000005,340.1494455000002,339.6479764000005,340.1494455000002,339.6479764000005,340.1494455000002,339.6479764000005,340.1494455000002,338.4627420000006,None,340.1494455000002,340.9506557000004,1.2000000000000008,340.9661173000004,None,341.7174642,None,,,,,,,[0.79491525],2.490000000000002,0.8135593220338984,12010,001,2024_Jun_15_1926,MFTM_A_new1021,2021.2.3,59.5357166670381,
,,,,,,,,stim/Instruction_adaptive.png,conditions/adaptive.xlsx,test,0.6,0.6,0.6,-0.6,-0.6,right,R,,,,,0,1,1,1,0,59,59,8,,,,,,,,,,,,,,,,,,,,,,,,,,,,,,,,,,,,,,,,,,,,342.21855740000046,None,right,1,1.4596738000000187,342.71923419999985,344.38853629999994,342.71923419999985,343.88809370000035,342.71923419999985,343.88809370000035,342.71923419999985,343.88809370000035,342.71923419999985,343.88809370000035,342.71923419999985,343.88809370000035,343.87200230000053,344.3729935000001,343.87200230000053,344.3729935000001,343.87200230000053,344.3729935000001,343.87200230000053,344.3729935000001,343.87200230000053,344.3729935000001,343.87200230000053,344.3729935000001,343.87200230000053,344.3729935000001,343.87200230000053,344.3729935000001,342.71923419999985,None,344.3729935000001,345.1895884000005,1.1700000000000008,345.20624020000014,None,345.95819120000033,None,,,,,,,[0.80383333],2.5100000000000016,0.8166666666666667,12010,001,2024_Jun_15_1926,MFTM_A_new1021,2021.2.3,59.5357166670381,
,,,,,,,,stim/Instruction_adaptive.png,conditions/adaptive.xlsx,test,0.6,0.6,0.6,-0.6,-0.6,right,R,,,,,0,1,1,1,0,60,60,44,,,,,,,,,,,,,,,,,,,,,,,,,,,,,,,,,,,,,,,,,,,,346.4591164000003,None,right,1,0.9793314999997165,346.95993460000045,348.61205920000066,346.95993460000045,348.11205990000053,346.95993460000045,348.11205990000053,346.95993460000045,348.11205990000053,346.95993460000045,348.11205990000053,346.95993460000045,348.11205990000053,348.09519140000066,348.595542,348.09519140000066,348.595542,348.09519140000066,348.595542,348.09519140000066,348.595542,348.09519140000066,348.595542,348.09519140000066,348.595542,348.09519140000066,348.595542,348.09519140000066,348.595542,346.95993460000045,None,348.595542,349.41349530000025,1.1500000000000008,349.4301126999999,None,350.1806081000004,None,,,,,,,[0.81278689],2.540000000000002,0.819672131147541,12010,001,2024_Jun_15_1926,MFTM_A_new1021,2021.2.3,59.5357166670381,
,,,,,,,,stim/Instruction_adaptive.png,conditions/adaptive.xlsx,test,-0.6,-0.6,-0.6,0.6,0.6,left,L,,,,,0,1,1,1,0,61,61,27,,,,,,,,,,,,,,,,,,,,,,,,,,,,,,,,,,,,,,,,,,,,350.68234219999977,None,left,1,1.021714499999689,351.1819795000001,352.8183718,351.1819795000001,352.31707330000063,351.1819795000001,352.31707330000063,351.1819795000001,352.31707330000063,351.1819795000001,352.31707330000063,351.1819795000001,352.31707330000063,352.30045450000034,352.80177619999995,352.30045450000034,352.80177619999995,352.30045450000034,352.80177619999995,352.30045450000034,352.80177619999995,352.30045450000034,352.80177619999995,352.30045450000034,352.80177619999995,352.30045450000034,352.80177619999995,352.30045450000034,352.80177619999995,351.1819795000001,None,352.80177619999995,None,1.1300000000000008,353.63573240000005,None,354.38765260000037,None,,,,,,,[0.82177419],2.560000000000002,0.8225806451612904,12010,001,2024_Jun_15_1926,MFTM_A_new1021,2021.2.3,59.5357166670381,
,,,,,,,,stim/Instruction_adaptive.png,conditions/adaptive.xlsx,test,-0.6,-0.6,-0.6,0.6,0.6,left,L,,,,,0,1,1,1,0,62,62,93,,,,,,,,,,,,,,,,,,,,,,,,,,,,,,,,,,,,,,,,,,,,354.8884853999998,None,left,1,1.0553160999998,355.38845820000006,357.0074603000003,355.38845820000006,356.5067312000001,355.38845820000006,356.5067312000001,355.38845820000006,356.5067312000001,355.38845820000006,356.5067312000001,355.38845820000006,356.5067312000001,356.4909128999998,356.99193130000003,356.4909128999998,356.99193130000003,356.4909128999998,356.99193130000003,356.4909128999998,356.99193130000003,356.4909128999998,356.99193130000003,356.4909128999998,356.99193130000003,356.4909128999998,356.99193130000003,356.4909128999998,356.99193130000003,355.38845820000006,None,356.99193130000003,357.82540120000067,1.1200000000000008,357.8420635000002,None,358.5939322000004,None,,,,,,,[0.83063492],2.5900000000000016,0.8253968253968254,12010,001,2024_Jun_15_1926,MFTM_A_new1021,2021.2.3,59.5357166670381,
,,,,,,,,stim/Instruction_adaptive.png,conditions/adaptive.xlsx,test,0.6,0.6,0.6,-0.6,-0.6,right,R,,,,,0,1,1,1,0,63,63,94,,,,,,,,,,,,,,,,,,,,,,,,,,,,,,,,,,,,,,,,,,,,359.0948831000005,None,right,1,0.6570646999998644,359.5946670000003,361.1969773999999,359.5946670000003,360.6963446,359.5946670000003,360.6963446,359.5946670000003,360.6963446,359.5946670000003,360.6963446,359.5946670000003,360.6963446,360.6631640000005,361.16368580000017,360.6631640000005,361.16368580000017,360.6631640000005,361.16368580000017,360.6631640000005,361.16368580000017,360.6631640000005,361.16368580000017,360.6631640000005,361.16368580000017,360.6631640000005,361.16368580000017,360.6631640000005,361.16368580000017,359.5946670000003,None,361.16368580000017,362.01566300000013,1.0900000000000007,362.0316773000004,None,362.78361420000056,None,,,,,,,[0.8396875],2.610000000000002,0.828125,12010,001,2024_Jun_15_1926,MFTM_A_new1021,2021.2.3,59.5357166670381,
,,,,,,,,stim/Instruction_adaptive.png,conditions/adaptive.xlsx,test,0.6,0.6,0.6,-0.6,-0.6,right,R,,,,,0,1,1,1,0,64,64,36,,,,,,,,,,,,,,,,,,,,,,,,,,,,,,,,,,,,,,,,,,,,363.2835937,None,left,0,0.6107881999996607,363.78477060000023,365.37094830000024,363.78477060000023,364.86936849999984,363.78477060000023,364.86936849999984,363.78477060000023,364.86936849999984,363.78477060000023,364.86936849999984,363.78477060000023,364.86936849999984,364.8527223000001,365.3542701000006,364.8527223000001,365.3542701000006,364.8527223000001,365.3542701000006,364.8527223000001,365.3542701000006,364.8527223000001,365.3542701000006,364.8527223000001,365.3542701000006,364.8527223000001,365.3542701000006,364.8527223000001,365.3542701000006,363.78477060000023,None,365.3542701000006,366.2057371000001,1.0800000000000007,366.22073660000024,None,366.97255029999997,None,,,,,,,[0.84861538],2.540000000000002,0.8153846153846154,12010,001,2024_Jun_15_1926,MFTM_A_new1021,2021.2.3,59.5357166670381,
,,,,,,,,stim/Instruction_adaptive.png,conditions/adaptive.xlsx,test,-0.6,-0.6,-0.6,0.6,0.6,left,L,,,,,0,1,1,1,0,65,65,5,,,,,,,,,,,,,,,,,,,,,,,,,,,,,,,,,,,,,,,,,,,,367.4733105000005,None,left,1,1.4215057000001252,367.97404520000055,369.61073399999987,367.97404520000055,369.1092497999998,367.97404520000055,369.1092497999998,367.97404520000055,369.1092497999998,367.97404520000055,369.1092497999998,367.97404520000055,369.1092497999998,369.09312170000067,369.59395290000066,369.09312170000067,369.59395290000066,369.09312170000067,369.59395290000066,369.09312170000067,369.59395290000066,369.09312170000067,369.59395290000066,369.09312170000067,369.59395290000066,369.09312170000067,369.59395290000066,369.09312170000067,369.59395290000066,367.97404520000055,None,369.59395290000066,None,1.1300000000000008,370.4604702000006,None,371.2131159999999,None,,,,,,,[0.85651515],2.560000000000002,0.8181818181818182,12010,001,2024_Jun_15_1926,MFTM_A_new1021,2021.2.3,59.5357166670381,
,,,,,,,,stim/Instruction_adaptive.png,conditions/adaptive.xlsx,test,0.6,0.6,0.6,-0.6,-0.6,right,R,,,,,0,1,1,1,0,66,66,46,,,,,,,,,,,,,,,,,,,,,,,,,,,,,,,,,,,,,,,,,,,,371.71312040000066,None,right,1,0.742023199999494,372.2138500000001,373.8337105999999,372.2138500000001,373.3321555000002,372.2138500000001,373.3321555000002,372.2138500000001,373.3321555000002,372.2138500000001,373.3321555000002,372.2138500000001,373.3321555000002,373.31654100000014,373.81713880000007,373.31654100000014,373.81713880000007,373.31654100000014,373.81713880000007,373.31654100000014,373.81713880000007,373.31654100000014,373.81713880000007,373.31654100000014,373.81713880000007,373.31654100000014,373.81713880000007,373.31654100000014,373.81713880000007,372.2138500000001,None,373.81713880000007,374.6849480000001,1.1200000000000008,374.70093929999985,None,375.4527317000002,None,,,,,,,[0.86432836],2.5900000000000016,0.8208955223880597,12010,001,2024_Jun_15_1926,MFTM_A_new1021,2021.2.3,59.5357166670381,
,,,,,,,,stim/Instruction_adaptive.png,conditions/adaptive.xlsx,test,-0.6,-0.6,-0.6,0.6,0.6,left,L,,,,,0,1,1,1,0,67,67,63,,,,,,,,,,,,,,,,,,,,,,,,,,,,,,,,,,,,,,,,,,,,375.9528833000004,None,left,1,1.1333801000000676,376.4548872000005,378.0559192999999,376.4548872000005,377.55561639999996,376.4548872000005,377.55561639999996,376.4548872000005,377.55561639999996,376.4548872000005,377.55561639999996,376.4548872000005,377.55561639999996,377.52188560000013,378.0230984,377.52188560000013,378.0230984,377.52188560000013,378.0230984,377.52188560000013,378.0230984,377.52188560000013,378.0230984,377.52188560000013,378.0230984,377.52188560000013,378.0230984,377.52188560000013,378.0230984,376.4548872000005,None,378.0230984,378.90782500000023,1.0900000000000007,378.9246398000005,None,379.67592539999987,None,,,,,,,[0.87235294],2.610000000000002,0.8235294117647058,12010,001,2024_Jun_15_1926,MFTM_A_new1021,2021.2.3,59.5357166670381,
,,,,,,,,stim/Instruction_adaptive.png,conditions/adaptive.xlsx,test,0.6,0.6,0.6,-0.6,-0.6,right,R,,,,,0,1,1,1,0,68,68,24,,,,,,,,,,,,,,,,,,,,,,,,,,,,,,,,,,,,,,,,,,,,380.17657659999986,None,left,0,0.6145459999997911,380.67720869999994,382.26204400000006,380.67720869999994,381.76138020000053,380.67720869999994,381.76138020000053,380.67720869999994,381.76138020000053,380.67720869999994,381.76138020000053,380.67720869999994,381.76138020000053,381.7453795000001,382.24553000000014,381.7453795000001,382.24553000000014,381.7453795000001,382.24553000000014,381.7453795000001,382.24553000000014,381.7453795000001,382.24553000000014,381.7453795000001,382.24553000000014,381.7453795000001,382.24553000000014,381.7453795000001,382.24553000000014,380.67720869999994,None,382.24553000000014,383.13019450000047,1.0800000000000007,383.14693090000037,None,383.89867700000013,None,,,,,,,[0.88028986],2.540000000000002,0.8115942028985508,12010,001,2024_Jun_15_1926,MFTM_A_new1021,2021.2.3,59.5357166670381,
,,,,,,,,stim/Instruction_adaptive.png,conditions/adaptive.xlsx,test,-0.6,-0.6,-0.6,0.6,0.6,left,L,,,,,0,1,1,1,0,69,69,23,,,,,,,,,,,,,,,,,,,,,,,,,,,,,,,,,,,,,,,,,,,,384.3988343000001,None,left,1,1.4488897999999608,384.8994628999999,386.53595060000043,384.8994628999999,386.0350122,384.8994628999999,386.0350122,384.8994628999999,386.0350122,384.8994628999999,386.0350122,384.8994628999999,386.0350122,386.01792509999996,386.5197323000002,386.01792509999996,386.5197323000002,386.01792509999996,386.5197323000002,386.01792509999996,386.5197323000002,386.01792509999996,386.5197323000002,386.01792509999996,386.5197323000002,386.01792509999996,386.5197323000002,386.01792509999996,386.5197323000002,384.8994628999999,None,386.5197323000002,None,1.1300000000000008,387.4200940999999,None,388.17146820000016,None,,,,,,,[0.88728571],2.570000000000002,0.8142857142857143,12010,001,2024_Jun_15_1926,MFTM_A_new1021,2021.2.3,59.5357166670381,
,,,,,,,,stim/Instruction_adaptive.png,conditions/adaptive.xlsx,test,0.6,0.6,0.6,-0.6,-0.6,right,R,,,,,0,1,1,1,0,70,70,98,,,,,,,,,,,,,,,,,,,,,,,,,,,,,,,,,,,,,,,,,,,,388.672063,None,right,1,0.9669407999999748,389.17324950000057,390.7926447,389.17324950000057,390.2910020999998,389.17324950000057,390.2910020999998,389.17324950000057,390.2910020999998,389.17324950000057,390.2910020999998,389.17324950000057,390.2910020999998,390.2576353000004,390.75847390000035,390.2576353000004,390.75847390000035,390.2576353000004,390.75847390000035,390.2576353000004,390.75847390000035,390.2576353000004,390.75847390000035,390.2576353000004,390.75847390000035,390.2576353000004,390.75847390000035,390.2576353000004,390.75847390000035,389.17324950000057,None,390.75847390000035,391.65983659999984,1.1100000000000008,391.6930207000005,None,392.44456700000046,None,,,,,,,[0.8943662],2.5900000000000016,0.8169014084507042,12010,001,2024_Jun_15_1926,MFTM_A_new1021,2021.2.3,59.5357166670381,
,,,,,,,,stim/Instruction_adaptive.png,conditions/adaptive.xlsx,test,-0.6,-0.6,-0.6,0.6,0.6,left,L,,,,,0,1,1,1,0,71,71,21,,,,,,,,,,,,,,,,,,,,,,,,,,,,,,,,,,,,,,,,,,,,392.94502490000013,None,left,1,1.2053210000003673,393.44682270000067,395.0489666000003,393.44682270000067,394.54831490000015,393.44682270000067,394.54831490000015,393.44682270000067,394.54831490000015,393.44682270000067,394.54831490000015,393.44682270000067,394.54831490000015,394.51481370000056,395.01539070000035,394.51481370000056,395.01539070000035,394.51481370000056,395.01539070000035,394.51481370000056,395.01539070000035,394.51481370000056,395.01539070000035,394.51481370000056,395.01539070000035,394.51481370000056,395.01539070000035,394.51481370000056,395.01539070000035,393.44682270000067,None,395.01539070000035,395.9161238000006,1.0900000000000007,395.94948490000024,None,396.7006468999998,None,,,,,,,[0.90152778],2.610000000000002,0.8194444444444444,12010,001,2024_Jun_15_1926,MFTM_A_new1021,2021.2.3,59.5357166670381,
,,,,,,,,stim/Instruction_adaptive.png,conditions/adaptive.xlsx,test,0.6,0.6,0.6,-0.6,-0.6,right,R,,,,,0,1,1,1,0,72,72,38,,,,,,,,,,,,,,,,,,,,,,,,,,,,,,,,,,,,,,,,,,,,397.20208730000013,None,right,1,1.8710115000003498,397.7019995999999,399.28785100000005,397.7019995999999,398.78815209999993,397.7019995999999,398.78815209999993,397.7019995999999,398.78815209999993,397.7019995999999,398.78815209999993,397.7019995999999,398.78815209999993,398.7715126000003,399.2732549000002,398.7715126000003,399.2732549000002,398.7715126000003,399.2732549000002,398.7715126000003,399.2732549000002,398.7715126000003,399.2732549000002,398.7715126000003,399.2732549000002,398.7715126000003,399.2732549000002,398.7715126000003,399.2732549000002,397.7019995999999,None,399.2732549000002,None,1.0800000000000007,400.18931410000005,None,400.94129350000003,None,,,,,,,[0.90863014],2.6300000000000017,0.821917808219178,12010,001,2024_Jun_15_1926,MFTM_A_new1021,2021.2.3,59.5357166670381,
,,,,,,,,stim/Instruction_adaptive.png,conditions/adaptive.xlsx,test,-0.6,-0.6,-0.6,0.6,0.6,left,L,,,,,0,1,1,1,0,73,73,77,,,,,,,,,,,,,,,,,,,,,,,,,,,,,,,,,,,,,,,,,,,,401.44122530000004,None,right,0,1.1272317000002658,401.9417994000005,403.5111431000005,401.9417994000005,403.01025180000033,401.9417994000005,403.01025180000033,401.9417994000005,403.01025180000033,401.9417994000005,403.01025180000033,401.9417994000005,403.01025180000033,402.99337019999984,403.495218,402.99337019999984,403.495218,402.99337019999984,403.495218,402.99337019999984,403.495218,402.99337019999984,403.495218,402.99337019999984,403.495218,402.99337019999984,403.495218,402.99337019999984,403.495218,401.9417994000005,None,403.495218,404.41234820000045,1.0600000000000007,404.42934419999983,None,405.1811293999999,None,,,,,,,[0.91581081],2.570000000000002,0.8108108108108109,12010,001,2024_Jun_15_1926,MFTM_A_new1021,2021.2.3,59.5357166670381,
,,,,,,,,stim/Instruction_adaptive.png,conditions/adaptive.xlsx,test,0.6,0.6,0.6,-0.6,-0.6,right,R,,,,,0,1,1,1,0,74,74,72,,,,,,,,,,,,,,,,,,,,,,,,,,,,,,,,,,,,,,,,,,,,405.68213130000004,None,left,0,0.7271129999999175,406.18166199999996,407.80183020000004,406.18166199999996,407.30063280000013,406.18166199999996,407.30063280000013,406.18166199999996,407.30063280000013,406.18166199999996,407.30063280000013,406.18166199999996,407.30063280000013,407.28330090000054,407.7840457000002,407.28330090000054,407.7840457000002,407.28330090000054,407.7840457000002,407.28330090000054,407.7840457000002,407.28330090000054,407.7840457000002,407.28330090000054,407.7840457000002,407.28330090000054,407.7840457000002,407.28330090000054,407.7840457000002,406.18166199999996,None,407.76718580000033,408.70208940000066,1.1100000000000008,408.71895610000047,None,409.4713943000006,None,,,,,,,[0.92213333],2.5100000000000016,0.8,12010,001,2024_Jun_15_1926,MFTM_A_new1021,2021.2.3,59.5357166670381,
,,,,,,,,stim/Instruction_adaptive.png,conditions/adaptive.xlsx,test,0.6,0.6,0.6,-0.6,-0.6,right,R,,,,,0,1,1,1,0,75,75,84,,,,,,,,,,,,,,,,,,,,,,,,,,,,,,,,,,,,,,,,,,,,409.97158260000015,None,right,1,1.501251200000297,410.47225440000057,412.1240459999999,410.47225440000057,411.62457429999995,410.47225440000057,411.62457429999995,410.47225440000057,411.62457429999995,410.47225440000057,411.62457429999995,410.47225440000057,411.62457429999995,411.6064115999998,412.10778279999977,411.6064115999998,412.10778279999977,411.6064115999998,412.10778279999977,411.6064115999998,412.10778279999977,411.6064115999998,412.10778279999977,411.6064115999998,412.10778279999977,411.6064115999998,412.10778279999977,411.6064115999998,412.10778279999977,410.47225440000057,None,412.10778279999977,413.04251980000026,1.1500000000000008,413.05868100000043,None,413.8102141999998,None,,,,,,,[0.92776316],2.530000000000002,0.8026315789473685,12010,001,2024_Jun_15_1926,MFTM_A_new1021,2021.2.3,59.5357166670381,
,,,,,,,,stim/Instruction_adaptive.png,conditions/adaptive.xlsx,test,-0.6,-0.6,-0.6,0.6,0.6,left,L,,,,,0,1,1,1,0,76,76,99,,,,,,,,,,,,,,,,,,,,,,,,,,,,,,,,,,,,,,,,,,,,414.31122510000023,None,left,1,0.785072499999842,414.81165710000005,416.4652124000004,414.81165710000005,415.96314900000016,414.81165710000005,415.96314900000016,414.81165710000005,415.96314900000016,414.81165710000005,415.96314900000016,414.81165710000005,415.96314900000016,415.9297763000004,416.4317946000001,415.9297763000004,416.4317946000001,415.9297763000004,416.4317946000001,415.9297763000004,416.4317946000001,415.9297763000004,416.4317946000001,415.9297763000004,416.4317946000001,415.9297763000004,416.4317946000001,415.9297763000004,416.4317946000001,414.81165710000005,None,416.4317946000001,417.36516389999997,1.1400000000000008,417.39854040000046,None,418.15011180000056,None,,,,,,,[0.93337662],2.5500000000000016,0.8051948051948052,12010,001,2024_Jun_15_1926,MFTM_A_new1021,2021.2.3,59.5357166670381,
,,,,,,,,stim/Instruction_adaptive.png,conditions/adaptive.xlsx,test,0.6,0.6,0.6,-0.6,-0.6,right,R,,,,,0,1,1,1,0,77,77,62,,,,,,,,,,,,,,,,,,,,,,,,,,,,,,,,,,,,,,,,,,,,418.6505549000003,None,right,1,0.8139242999995986,419.15162390000023,420.7710833000001,419.15162390000023,420.2861300000004,419.15162390000023,420.2861300000004,419.15162390000023,420.2861300000004,419.15162390000023,420.2861300000004,419.15162390000023,420.2861300000004,420.2536918000005,420.75436210000044,420.2536918000005,420.75436210000044,420.2536918000005,420.75436210000044,420.2536918000005,420.75436210000044,420.2536918000005,420.75436210000044,420.2536918000005,420.75436210000044,420.2536918000005,420.75436210000044,420.2536918000005,420.75436210000044,419.15162390000023,None,420.75436210000044,421.70490510000036,1.1200000000000008,421.7217303000007,None,422.47307739999997,None,,,,,,,[0.93910256],2.570000000000002,0.8076923076923077,12010,001,2024_Jun_15_1926,MFTM_A_new1021,2021.2.3,59.5357166670381,
,,,,,,,,stim/Instruction_adaptive.png,conditions/adaptive.xlsx,test,0.6,0.6,0.6,-0.6,-0.6,right,R,,,,,0,1,1,1,0,78,78,64,,,,,,,,,,,,,,,,,,,,,,,,,,,,,,,,,,,,,,,,,,,,422.9744274000004,None,right,1,0.746158199999627,423.4748698000003,425.09431459999996,423.4748698000003,424.5934229000004,423.4748698000003,424.5934229000004,423.4748698000003,424.5934229000004,423.4748698000003,424.5934229000004,423.4748698000003,424.5934229000004,424.5600297000001,425.0601262,424.5600297000001,425.0601262,424.5600297000001,425.0601262,424.5600297000001,425.0601262,424.5600297000001,425.0601262,424.5600297000001,425.0601262,424.5600297000001,425.0601262,424.5600297000001,425.0601262,423.4748698000003,None,425.0601262,426.0118415000006,1.1100000000000008,426.0448803999998,None,426.79618290000053,None,,,,,,,[0.94481013],2.5900000000000016,0.810126582278481,12010,001,2024_Jun_15_1926,MFTM_A_new1021,2021.2.3,59.5357166670381,
,,,,,,,,stim/Instruction_adaptive.png,conditions/adaptive.xlsx,test,0.6,0.6,0.6,-0.6,-0.6,right,R,,,,,0,1,1,1,0,79,79,92,,,,,,,,,,,,,,,,,,,,,,,,,,,,,,,,,,,,,,,,,,,,427.2975416999998,None,right,1,0.9996031000000585,427.7974113,429.39980749999995,427.7974113,428.8993736000002,427.7974113,428.8993736000002,427.7974113,428.8993736000002,427.7974113,428.8993736000002,427.7974113,428.8993736000002,428.86689579999984,429.3665904999998,428.86689579999984,429.3665904999998,428.86689579999984,429.3665904999998,428.86689579999984,429.3665904999998,428.86689579999984,429.3665904999998,428.86689579999984,429.3665904999998,428.86689579999984,429.3665904999998,428.86689579999984,429.3665904999998,427.7974113,None,429.3665904999998,430.3179205000006,1.0900000000000007,430.3514967000001,None,431.102476,None,,,,,,,[0.950625],2.610000000000002,0.8125,12010,001,2024_Jun_15_1926,MFTM_A_new1021,2021.2.3,59.5357166670381,
,,,,,,,,stim/Instruction_adaptive.png,conditions/adaptive.xlsx,test,-0.6,-0.6,-0.6,0.6,0.6,left,L,,,,,0,1,1,1,0,80,80,97,,,,,,,,,,,,,,,,,,,,,,,,,,,,,,,,,,,,,,,,,,,,431.6042045000004,None,left,1,2.093195899999955,432.1040413999999,433.6903806,432.1040413999999,433.1898482000006,432.1040413999999,433.1898482000006,432.1040413999999,433.1898482000006,432.1040413999999,433.1898482000006,432.1040413999999,433.1898482000006,433.1723756000001,433.67314369999986,433.1723756000001,433.67314369999986,433.1723756000001,433.67314369999986,433.1723756000001,433.67314369999986,433.1723756000001,433.67314369999986,433.1723756000001,433.67314369999986,433.1723756000001,433.67314369999986,433.1723756000001,433.67314369999986,432.1040413999999,None,433.67314369999986,None,1.0800000000000007,434.6415725000006,None,435.3923487000002,None,,,,,,,[0.95641975],2.6300000000000017,0.8148148148148148,12010,001,2024_Jun_15_1926,MFTM_A_new1021,2021.2.3,59.5357166670381,
,,,,,,,,stim/Instruction_adaptive.png,conditions/adaptive.xlsx,test,0.6,0.6,0.6,-0.6,-0.6,right,R,,,,,0,1,1,1,0,81,81,60,,,,,,,,,,,,,,,,,,,,,,,,,,,,,,,,,,,,,,,,,,,,435.8929014000005,None,right,1,1.8198354000005565,436.3938274000002,437.9628251000004,436.3938274000002,437.46298280000065,436.3938274000002,437.46298280000065,436.3938274000002,437.46298280000065,436.3938274000002,437.46298280000065,436.3938274000002,437.46298280000065,437.42947170000025,437.9302168000004,437.42947170000025,437.9302168000004,437.42947170000025,437.9302168000004,437.42947170000025,437.9302168000004,437.42947170000025,437.9302168000004,437.42947170000025,437.9302168000004,437.42947170000025,437.9302168000004,437.42947170000025,437.9302168000004,436.3938274000002,None,437.9302168000004,438.89776729999994,1.0600000000000007,438.9320348000001,None,439.6830964999999,None,,,,,,,[0.96231707],2.650000000000002,0.8170731707317073,12010,001,2024_Jun_15_1926,MFTM_A_new1021,2021.2.3,59.5357166670381,
,,,,,,,,stim/Instruction_adaptive.png,conditions/adaptive.xlsx,test,-0.6,-0.6,-0.6,0.6,0.6,left,L,,,,,0,1,1,1,0,82,82,1,,,,,,,,,,,,,,,,,,,,,,,,,,,,,,,,,,,,,,,,,,,,440.1831393000002,None,left,1,0.6740884999999253,440.6836596000003,442.2365055,440.6836596000003,441.7358430000004,440.6836596000003,441.7358430000004,440.6836596000003,441.7358430000004,440.6836596000003,441.7358430000004,440.6836596000003,441.7358430000004,441.71864319999986,442.2201707000004,441.71864319999986,442.2201707000004,441.71864319999986,442.2201707000004,441.71864319999986,442.2201707000004,441.71864319999986,442.2201707000004,441.71864319999986,442.2201707000004,441.71864319999986,442.2201707000004,441.71864319999986,442.2201707000004,440.6836596000003,None,442.2201707000004,443.1875349000002,1.0500000000000007,443.2048863,None,443.95518960000027,None,,,,,,,[0.96819277],2.6700000000000017,0.8192771084337349,12010,001,2024_Jun_15_1926,MFTM_A_new1021,2021.2.3,59.5357166670381,
,,,,,,,,stim/Instruction_adaptive.png,conditions/adaptive.xlsx,test,-0.6,-0.6,-0.6,0.6,0.6,left,L,,,,,0,1,1,1,0,83,83,7,,,,,,,,,,,,,,,,,,,,,,,,,,,,,,,,,,,,,,,,,,,,444.4565755000003,None,left,1,0.6020020000005388,444.9573827000004,446.49301540000033,444.9573827000004,445.9925269000005,444.9573827000004,445.9925269000005,444.9573827000004,445.9925269000005,444.9573827000004,445.9925269000005,444.9573827000004,445.9925269000005,445.97630480000043,446.4757573000006,445.97630480000043,446.4757573000006,445.97630480000043,446.4757573000006,445.97630480000043,446.4757573000006,445.97630480000043,446.4757573000006,445.97630480000043,446.4757573000006,445.97630480000043,446.4757573000006,445.97630480000043,446.4757573000006,444.9573827000004,None,446.4757573000006,None,1.0300000000000007,447.4605218000006,None,448.2116117000005,None,,,,,,,[0.97416667],2.680000000000002,0.8214285714285714,12010,001,2024_Jun_15_1926,MFTM_A_new1021,2021.2.3,59.5357166670381,
,,,,,,,,stim/Instruction_adaptive.png,conditions/adaptive.xlsx,test,0.6,0.6,0.6,-0.6,-0.6,right,R,,,,,0,1,1,1,0,84,84,20,,,,,,,,,,,,,,,,,,,,,,,,,,,,,,,,,,,,,,,,,,,,448.712544,None,right,1,0.4795619999995324,449.2141053000005,450.74945470000057,449.2141053000005,450.2489905000002,449.2141053000005,450.2489905000002,449.2141053000005,450.2489905000002,449.2141053000005,450.2489905000002,449.2141053000005,450.2489905000002,450.2314571000006,450.7332636000001,450.2314571000006,450.7332636000001,450.2314571000006,450.7332636000001,450.2314571000006,450.7332636000001,450.2314571000006,450.7332636000001,450.2314571000006,450.7332636000001,450.2314571000006,450.7332636000001,450.2314571000006,450.7332636000001,449.2141053000005,None,450.7332636000001,451.71690209999997,1.0300000000000007,451.7342415000003,None,452.4854940000005,None,,,,,,,[0.98],2.700000000000002,0.8235294117647058,12010,001,2024_Jun_15_1926,MFTM_A_new1021,2021.2.3,59.5357166670381,
,,,,,,,,stim/Instruction_adaptive.png,conditions/adaptive.xlsx,test,0.6,0.6,0.6,-0.6,-0.6,right,R,,,,,0,1,1,1,0,85,85,56,,,,,,,,,,,,,,,,,,,,,,,,,,,,,,,,,,,,,,,,,,,,452.9859329000001,None,right,1,0.9121783000000505,453.48628030000054,455.0058011000001,453.48628030000054,454.5046051999998,453.48628030000054,454.5046051999998,453.48628030000054,454.5046051999998,453.48628030000054,454.5046051999998,453.48628030000054,454.5046051999998,454.4718283000002,454.97244520000004,454.4718283000002,454.97244520000004,454.4718283000002,454.97244520000004,454.4718283000002,454.97244520000004,454.4718283000002,454.97244520000004,454.4718283000002,454.97244520000004,454.4718283000002,454.97244520000004,454.4718283000002,454.97244520000004,453.48628030000054,None,454.97244520000004,455.95725910000056,1.0100000000000007,455.9899051000002,None,456.7411689999999,None,,,,,,,[0.98593023],2.720000000000002,0.8255813953488372,12010,001,2024_Jun_15_1926,MFTM_A_new1021,2021.2.3,59.5357166670381,
,,,,,,,,stim/Instruction_adaptive.png,conditions/adaptive.xlsx,test,-0.6,-0.6,-0.6,0.6,0.6,left,L,,,,,0,1,1,1,0,86,86,65,,,,,,,,,,,,,,,,,,,,,,,,,,,,,,,,,,,,,,,,,,,,457.2427094000004,None,left,1,0.7425983000002816,457.74338140000054,459.2457006000004,457.74338140000054,458.74416699999983,457.74338140000054,458.74416699999983,457.74338140000054,458.74416699999983,457.74338140000054,458.74416699999983,457.74338140000054,458.74416699999983,458.7275023000002,459.2283378000002,458.7275023000002,459.2283378000002,458.7275023000002,459.2283378000002,458.7275023000002,459.2283378000002,458.7275023000002,459.2283378000002,458.7275023000002,459.2283378000002,458.7275023000002,459.2283378000002,458.7275023000002,459.2283378000002,457.74338140000054,None,459.2283378000002,460.2296812000004,1.0000000000000007,460.24651260000064,None,460.9985050000005,None,,,,,,,[0.99183908],2.740000000000002,0.8275862068965517,12010,001,2024_Jun_15_1926,MFTM_A_new1021,2021.2.3,59.5357166670381,
,,,,,,,,stim/Instruction_adaptive.png,conditions/adaptive.xlsx,test,0.6,0.6,0.6,-0.6,-0.6,right,R,,,,,0,1,1,1,0,87,87,18,,,,,,,,,,,,,,,,,,,,,,,,,,,,,,,,,,,,,,,,,,,,461.4982600000003,None,right,1,0.6949153000005026,461.99924530000044,463.4848400000001,461.99924530000044,462.98394290000033,461.99924530000044,462.98394290000033,461.99924530000044,462.98394290000033,461.99924530000044,462.98394290000033,461.99924530000044,462.98394290000033,462.9670771000001,463.4681025,462.9670771000001,463.4681025,462.9670771000001,463.4681025,462.9670771000001,463.4681025,462.9670771000001,463.4681025,462.9670771000001,463.4681025,462.9670771000001,463.4681025,462.9670771000001,463.4681025,461.99924530000044,None,463.4681025,464.4695474,0.9800000000000006,464.48633400000017,None,465.2376135000004,None,,,,,,,[0.99784091],2.7500000000000018,0.8295454545454546,12010,001,2024_Jun_15_1926,MFTM_A_new1021,2021.2.3,59.5357166670381,
,,,,,,,,stim/Instruction_adaptive.png,conditions/adaptive.xlsx,test,0.6,0.6,0.6,-0.6,-0.6,right,R,,,,,0,1,1,1,0,88,88,50,,,,,,,,,,,,,,,,,,,,,,,,,,,,,,,,,,,,,,,,,,,,465.73854370000026,None,right,1,1.6555789000003642,466.23883470000055,467.72433379999984,466.23883470000055,467.2236997,466.23883470000055,467.2236997,466.23883470000055,467.2236997,466.23883470000055,467.2236997,466.23883470000055,467.2236997,467.20692599999984,467.7078306000003,467.20692599999984,467.7078306000003,467.20692599999984,467.7078306000003,467.20692599999984,467.7078306000003,467.20692599999984,467.7078306000003,467.20692599999984,467.7078306000003,467.20692599999984,467.7078306000003,467.20692599999984,467.7078306000003,466.23883470000055,None,467.7078306000003,None,0.9800000000000006,468.7260862000003,None,469.4780945000002,None,,,,,,,[1.00370787],2.7700000000000022,0.8314606741573034,12010,001,2024_Jun_15_1926,MFTM_A_new1021,2021.2.3,59.5357166670381,
,,,,,,,,stim/Instruction_adaptive.png,conditions/adaptive.xlsx,test,0.6,0.6,0.6,-0.6,-0.6,right,R,,,,,0,1,1,1,0,89,89,10,,,,,,,,,,,,,,,,,,,,,,,,,,,,,,,,,,,,,,,,,,,,469.9779376000006,None,right,1,1.0319885999997496,470.47852220000004,471.94770700000026,470.47852220000004,471.44667560000016,470.47852220000004,471.44667560000016,470.47852220000004,471.44667560000016,470.47852220000004,471.44667560000016,470.47852220000004,471.44667560000016,471.4131623000003,471.9141612000003,471.4131623000003,471.9141612000003,471.4131623000003,471.9141612000003,471.4131623000003,471.9141612000003,471.4131623000003,471.9141612000003,471.4131623000003,471.9141612000003,471.4131623000003,471.9141612000003,471.4131623000003,471.9141612000003,470.47852220000004,None,471.9141612000003,472.93300960000033,0.9600000000000006,472.9497046000006,None,473.7005796000003,None,,,,,,,[1.00966667],2.790000000000002,0.8333333333333334,12010,001,2024_Jun_15_1926,MFTM_A_new1021,2021.2.3,59.5357166670381,
,,,,,,,,stim/Instruction_adaptive.png,conditions/adaptive.xlsx,test,-0.6,-0.6,-0.6,0.6,0.6,left,L,,,,,0,1,1,1,0,90,90,3,,,,,,,,,,,,,,,,,,,,,,,,,,,,,,,,,,,,,,,,,,,,474.2021869,None,right,0,0.5921076999993602,474.70250600000054,476.15375029999996,474.70250600000054,475.65300690000004,474.70250600000054,475.65300690000004,474.70250600000054,475.65300690000004,474.70250600000054,475.65300690000004,474.70250600000054,475.65300690000004,475.6364524999999,476.1380829,475.6364524999999,476.1380829,475.6364524999999,476.1380829,475.6364524999999,476.1380829,475.6364524999999,476.1380829,475.6364524999999,476.1380829,475.6364524999999,476.1380829,475.6364524999999,476.1380829,474.70250600000054,None,476.1380829,477.1560381999998,0.9500000000000006,477.1717196999998,None,477.92354330000035,None,,,,,,,[1.0156044],2.740000000000002,0.8241758241758241,12010,001,2024_Jun_15_1926,MFTM_A_new1021,2021.2.3,59.5357166670381,
,,,,,,,,stim/Instruction_adaptive.png,conditions/adaptive.xlsx,test,-0.6,-0.6,-0.6,0.6,0.6,left,L,,,,,0,1,1,1,0,91,91,53,,,,,,,,,,,,,,,,,,,,,,,,,,,,,,,,,,,,,,,,,,,,478.42454650000036,None,right,0,0.6657461000004332,478.9253641000005,480.41025340000033,478.9253641000005,479.9094120999998,478.9253641000005,479.9094120999998,478.9253641000005,479.9094120999998,478.9253641000005,479.9094120999998,478.9253641000005,479.9094120999998,479.89271110000027,480.39341590000004,479.89271110000027,480.39341590000004,479.89271110000027,480.39341590000004,479.89271110000027,480.39341590000004,479.89271110000027,480.39341590000004,479.89271110000027,480.39341590000004,479.89271110000027,480.39341590000004,479.89271110000027,480.39341590000004,478.9253641000005,None,480.39341590000004,None,0.9800000000000006,481.4283953000004,None,482.1796940000004,None,,,,,,,[1.02108696],2.690000000000002,0.8152173913043478,12010,001,2024_Jun_15_1926,MFTM_A_new1021,2021.2.3,59.5357166670381,
,,,,,,,,stim/Instruction_adaptive.png,conditions/adaptive.xlsx,test,-0.6,-0.6,-0.6,0.6,0.6,left,L,,,,,0,1,1,1,0,92,92,55,,,,,,,,,,,,,,,,,,,,,,,,,,,,,,,,,,,,,,,,,,,,482.6803329000004,None,left,1,1.3058272000007491,483.1811916000006,484.71751980000045,483.1811916000006,484.2171162000004,483.1811916000006,484.2171162000004,483.1811916000006,484.2171162000004,483.1811916000006,484.2171162000004,483.1811916000006,484.2171162000004,484.18269000000055,484.6833277000005,484.18269000000055,484.6833277000005,484.18269000000055,484.6833277000005,484.18269000000055,484.6833277000005,484.18269000000055,484.6833277000005,484.18269000000055,484.6833277000005,484.18269000000055,484.6833277000005,484.18269000000055,484.6833277000005,483.1811916000006,None,484.6833277000005,485.71798300000046,1.0200000000000007,485.7351058000004,None,486.4867911000001,None,,,,,,,[1.02602151],2.7100000000000017,0.8172043010752689,12010,001,2024_Jun_15_1926,MFTM_A_new1021,2021.2.3,59.5357166670381,
,,,,,,,,stim/Instruction_adaptive.png,conditions/adaptive.xlsx,test,0.6,0.6,0.6,-0.6,-0.6,right,R,,,,,0,1,1,1,0,93,93,54,,,,,,,,,,,,,,,,,,,,,,,,,,,,,,,,,,,,,,,,,,,,486.9867705000006,None,right,1,0.8158017000005202,487.4876954000001,489.0063441000002,487.4876954000001,488.50572830000056,487.4876954000001,488.50572830000056,487.4876954000001,488.50572830000056,487.4876954000001,488.50572830000056,487.4876954000001,488.50572830000056,488.47233959999994,488.9731846000004,488.47233959999994,488.9731846000004,488.47233959999994,488.9731846000004,488.47233959999994,488.9731846000004,488.47233959999994,488.9731846000004,488.47233959999994,488.9731846000004,488.47233959999994,488.9731846000004,488.47233959999994,488.9731846000004,487.4876954000001,None,488.9731846000004,490.0080787000006,1.0100000000000007,490.0413862000005,None,490.7927131000006,None,,,,,,,[1.03095745],2.720000000000002,0.8191489361702128,12010,001,2024_Jun_15_1926,MFTM_A_new1021,2021.2.3,59.5357166670381,
,,,,,,,,stim/Instruction_adaptive.png,conditions/adaptive.xlsx,test,0.6,0.6,0.6,-0.6,-0.6,right,R,,,,,0,1,1,1,0,94,94,74,,,,,,,,,,,,,,,,,,,,,,,,,,,,,,,,,,,,,,,,,,,,491.2940718,None,right,1,1.621023900000182,491.79403619999994,493.2961734999999,491.79403619999994,492.7956365,491.79403619999994,492.7956365,491.79403619999994,492.7956365,491.79403619999994,492.7956365,491.79403619999994,492.7956365,492.77891830000044,493.2794373000006,492.77891830000044,493.2794373000006,492.77891830000044,493.2794373000006,492.77891830000044,493.2794373000006,492.77891830000044,493.2794373000006,492.77891830000044,493.2794373000006,492.77891830000044,493.2794373000006,492.77891830000044,493.2794373000006,491.79403619999994,None,493.2794373000006,494.31459820000055,1.0000000000000007,494.3312268999998,None,495.0833166000002,None,,,,,,,[1.03589474],2.740000000000002,0.8210526315789474,12010,001,2024_Jun_15_1926,MFTM_A_new1021,2021.2.3,59.5357166670381,
