backseq,backinstr,backfile,instruction,size_in,Trialtype,back,number,P1,P2,P3,P4,corrAns,trials_practice.thisRepN,trials_practice.thisTrialN,trials_practice.thisN,trials_practice.thisIndex,trials.thisRepN,trials.thisTrialN,trials.thisN,trials.thisIndex,trials_3.thisRepN,trials_3.thisTrialN,trials_3.thisN,trials_3.thisIndex,trials_2.thisRepN,trials_2.thisTrialN,trials_2.thisN,trials_2.thisIndex,trials_4.thisRepN,trials_4.thisTrialN,trials_4.thisN,trials_4.thisIndex,image.started,image.stopped,image_2.started,image_2.stopped,key_resp.keys,key_resp.rt,key_resp.started,key_resp.stopped,image_3.started,image_3.stopped,key_resp_2.keys,key_resp_2.rt,key_resp_2.started,key_resp_2.stopped,image_4.started,image_4.stopped,text.started,text.stopped,H1.started,H1.stopped,H2.started,H2.stopped,H3.started,H3.stopped,H4.started,H4.stopped,key_resp_3.keys,key_resp_3.corr,key_resp_3.rt,key_resp_3.started,key_resp_3.stopped,text_4.started,text_4.stopped,F1.started,F1.stopped,F2.started,F2.stopped,F3.started,F3.stopped,F4.started,F4.stopped,image_7.started,image_7.stopped,text_5.started,text_5.stopped,key_resp_6.keys,key_resp_6.rt,key_resp_6.started,key_resp_6.stopped,image_5.started,image_5.stopped,key_resp_4.keys,key_resp_4.rt,key_resp_4.started,key_resp_4.stopped,key_resp_5.keys,key_resp_5.corr,key_resp_5.started,key_resp_5.stopped,text_3.started,text_3.stopped,H1_2.started,H1_2.stopped,H2_2.started,H2_2.stopped,H3_2.started,H3_2.stopped,H4_2.started,H4_2.stopped,F1_2.started,F1_2.stopped,F2_2.started,F2_2.stopped,F3_2.started,F3_2.stopped,F4_2.started,F4_2.stopped,image_8.started,image_8.stopped,key_resp_5.rt,text_2.started,text_2.stopped,image_6.started,image_6.stopped,participant,session,date,expName,psychopyVersion,frameRate,
,,,,,,,,,,,,,,,,,,,,,,,,,,,,,,,,,9.185522899962962,None,10.137066799972672,None,space,11.624326700053643,10.137066799972672,None,,,,,,,,,,,,,,,,,,,,,,,,,,,,,,,,,,,,,,,,,,,,,,,,,,,,,,,,,,,,,,,,,,,,,,,,,,,,,11009,001,2024_Jan_01_1645,nback,2021.2.3,60.46058877427872,
0-back,instructions\back-0.png,conditions\0back-p.xlsx,instructions\0-BACK.png,"(15, 8)",practice,0,1,stim\yellow.png,stim\gray.png,stim\gray.png,stim\gray.png,up,0,0,0,0,0,0,0,0,0,0,0,0,,,,,,,,,,,,,,,,,21.8377671999624,None,space,72.1721908999607,21.8377671999624,None,94.2114578000037,98.71823090000544,98.6514107999974,None,99.0519573999918,100.05401550000533,99.0519573999918,100.05401550000533,99.0519573999918,100.05401550000533,99.0519573999918,100.05401550000533,up,1,0.4618180000106804,99.0519573999918,None,99.0519573999918,None,99.0519573999918,99.55290690000402,99.0519573999918,99.55290690000402,99.0519573999918,99.55290690000402,99.0519573999918,99.55290690000402,99.0519573999918,None,,,,,,,,,,,,,,,,,,,,,,,,,,,,,,,,,,,,,,,,,,11009,001,2024_Jan_01_1645,nback,2021.2.3,60.46058877427872,
0-back,instructions\back-0.png,conditions\0back-p.xlsx,instructions\0-BACK.png,"(15, 8)",practice,0,2,stim\gray.png,stim\yellow.png,stim\gray.png,stim\gray.png,left,0,0,0,0,0,0,0,0,0,1,1,1,,,,,,,,,,,,,,,,,,,,,,,,,,,100.53700979996938,101.53935599996476,100.53700979996938,101.53935599996476,100.53700979996938,101.53935599996476,100.53700979996938,101.53935599996476,left,1,0.6970316999941133,100.53700979996938,None,100.53700979996938,None,100.53700979996938,101.0381303000031,100.53700979996938,101.0381303000031,100.53700979996938,101.0381303000031,100.53700979996938,101.0381303000031,100.53700979996938,None,,,,,,,,,,,,,,,,,,,,,,,,,,,,,,,,,,,,,,,,,,11009,001,2024_Jan_01_1645,nback,2021.2.3,60.46058877427872,
0-back,instructions\back-0.png,conditions\0back-p.xlsx,instructions\0-BACK.png,"(15, 8)",practice,0,3,stim\gray.png,stim\gray.png,stim\yellow.png,stim\gray.png,right,0,0,0,0,0,0,0,0,0,2,2,2,,,,,,,,,,,,,,,,,,,,,,,,,,,102.039658099995,103.04125880001811,102.039658099995,103.04125880001811,102.039658099995,103.04125880001811,102.039658099995,103.04125880001811,right,1,0.7145805000327528,102.039658099995,None,102.039658099995,None,102.039658099995,102.54043230001116,102.039658099995,102.54043230001116,102.039658099995,102.54043230001116,102.039658099995,102.54043230001116,102.039658099995,None,,,,,,,,,,,,,,,,,,,,,,,,,,,,,,,,,,,,,,,,,,11009,001,2024_Jan_01_1645,nback,2021.2.3,60.46058877427872,
0-back,instructions\back-0.png,conditions\0back-p.xlsx,instructions\0-BACK.png,"(15, 8)",practice,0,4,stim\gray.png,stim\gray.png,stim\gray.png,stim\yellow.png,down,0,0,0,0,0,0,0,0,0,3,3,3,,,,,,,,,,,,,,,,,,,,,,,,,,,103.54197959997691,104.54472140001599,103.54197959997691,104.54472140001599,103.54197959997691,104.54472140001599,103.54197959997691,104.54472140001599,down,1,0.38772199995582923,103.54197959997691,None,103.54197959997691,None,103.54197959997691,104.04257119999966,103.54197959997691,104.04257119999966,103.54197959997691,104.04257119999966,103.54197959997691,104.04257119999966,103.54197959997691,None,,,,,,,,,,,,,,,,,,,,,,,,,,,,,,,,,,,,,,,,,,11009,001,2024_Jan_01_1645,nback,2021.2.3,60.46058877427872,
0-back,instructions\back-0.png,conditions\0back-p.xlsx,instructions\0-BACK.png,"(15, 8)",practice,0,2,stim\gray.png,stim\yellow.png,stim\gray.png,stim\gray.png,left,0,0,0,0,0,0,0,0,0,4,4,4,,,,,,,,,,,,,,,,,,,,,,,,,,,105.04427730001044,106.04568239999935,105.04427730001044,106.04568239999935,105.04427730001044,106.04568239999935,105.04427730001044,106.04568239999935,left,1,0.4614243999822065,105.04427730001044,None,105.04427730001044,None,105.04427730001044,105.54490520001855,105.04427730001044,105.54490520001855,105.04427730001044,105.54490520001855,105.04427730001044,105.54490520001855,105.04427730001044,None,,,,,,,,,,,,,,,,,,,,,,,,,,,,,,,,,,,,,,,,,,11009,001,2024_Jan_01_1645,nback,2021.2.3,60.46058877427872,
0-back,instructions\back-0.png,conditions\0back-p.xlsx,instructions\0-BACK.png,"(15, 8)",practice,0,1,stim\yellow.png,stim\gray.png,stim\gray.png,stim\gray.png,up,0,0,0,0,0,0,0,0,0,5,5,5,,,,,,,,,,,,,,,,,,,,,,,,,,,106.54646009998396,107.54853899998125,106.54646009998396,107.54853899998125,106.54646009998396,107.54853899998125,106.54646009998396,107.54853899998125,up,1,0.6074408999993466,106.54646009998396,None,106.54646009998396,None,106.54646009998396,107.04790659999708,106.54646009998396,107.04790659999708,106.54646009998396,107.04790659999708,106.54646009998396,107.04790659999708,106.54646009998396,None,,,,,,,,,,,,,,,,,,,,,,,,,,,,,,,,,,,,,,,,,,11009,001,2024_Jan_01_1645,nback,2021.2.3,60.46058877427872,
0-back,instructions\back-0.png,conditions\0back-p.xlsx,instructions\0-BACK.png,"(15, 8)",practice,0,4,stim\gray.png,stim\gray.png,stim\gray.png,stim\yellow.png,down,0,0,0,0,0,0,0,0,0,6,6,6,,,,,,,,,,,,,,,,,,,,,,,,,,,108.04849459999241,109.05086279998068,108.04849459999241,109.05086279998068,108.04849459999241,109.05086279998068,108.04849459999241,109.05086279998068,down,1,0.5696608999860473,108.04849459999241,None,108.04849459999241,None,108.04849459999241,108.54973490000702,108.04849459999241,108.54973490000702,108.04849459999241,108.54973490000702,108.04849459999241,108.54973490000702,108.04849459999241,None,,,,,,,,,,,,,,,,,,,,,,,,,,,,,,,,,,,,,,,,,,11009,001,2024_Jan_01_1645,nback,2021.2.3,60.46058877427872,
0-back,instructions\back-0.png,conditions\0back-p.xlsx,instructions\0-BACK.png,"(15, 8)",practice,0,3,stim\gray.png,stim\gray.png,stim\yellow.png,stim\gray.png,right,0,0,0,0,0,0,0,0,0,7,7,7,,,,,,,,,,,,,,,,,,,,,,,,,,,109.53424700000323,110.5363588000182,109.53424700000323,110.5363588000182,109.53424700000323,110.5363588000182,109.53424700000323,110.5363588000182,right,1,0.499623799987603,109.53424700000323,None,109.53424700000323,None,109.53424700000323,110.03469110000879,109.53424700000323,110.03469110000879,109.53424700000323,110.03469110000879,109.53424700000323,110.03469110000879,109.53424700000323,None,,,,,,,,,,,,,,,,,,,,,,,,,,,,,,,,,,,,,,,,,,11009,001,2024_Jan_01_1645,nback,2021.2.3,60.46058877427872,
0-back,instructions\back-0.png,conditions\0back-p.xlsx,instructions\0-BACK.png,"(15, 8)",practice,0,3,stim\gray.png,stim\gray.png,stim\yellow.png,stim\gray.png,right,0,0,0,0,0,0,0,0,0,8,8,8,,,,,,,,,,,,,,,,,,,,,,,,,,,111.03651160001755,112.03821289999178,111.03651160001755,112.03821289999178,111.03651160001755,112.03821289999178,111.03651160001755,112.03821289999178,right,1,0.42947149998508394,111.03651160001755,None,111.03651160001755,None,111.03651160001755,111.53700810001465,111.03651160001755,111.53700810001465,111.03651160001755,111.53700810001465,111.03651160001755,111.53700810001465,111.03651160001755,None,,,,,,,,,,,,,,,,,,,,,,,,,,,,,,,,,,,,,,,,,,11009,001,2024_Jan_01_1645,nback,2021.2.3,60.46058877427872,
0-back,instructions\back-0.png,conditions\0back-p.xlsx,instructions\0-BACK.png,"(15, 8)",practice,0,4,stim\gray.png,stim\gray.png,stim\gray.png,stim\yellow.png,down,0,0,0,0,0,0,0,0,0,9,9,9,,,,,,,,,,,,,,,,,,,,,,,,,,,112.53859329997795,113.53991260001203,112.53859329997795,113.53991260001203,112.53859329997795,113.53991260001203,112.53859329997795,113.53991260001203,down,1,0.4232316999696195,112.53859329997795,None,112.53859329997795,None,112.53859329997795,113.0560149999801,112.53859329997795,113.0560149999801,112.53859329997795,113.0560149999801,112.53859329997795,113.0560149999801,112.53859329997795,None,,,,,,,,,,,,,,,,,,,,,,,,,,,,,,,,,,,,,,,,,,11009,001,2024_Jan_01_1645,nback,2021.2.3,60.46058877427872,
0-back,instructions\back-0.png,conditions\0back-p.xlsx,instructions\0-BACK.png,"(15, 8)",practice,0,1,stim\yellow.png,stim\gray.png,stim\gray.png,stim\gray.png,up,0,0,0,0,0,0,0,0,0,10,10,10,,,,,,,,,,,,,,,,,,,,,,,,,,,114.0408313999651,115.04237609996926,114.0408313999651,115.04237609996926,114.0408313999651,115.04237609996926,114.0408313999651,115.04237609996926,up,1,0.4729121999698691,114.0408313999651,None,114.0408313999651,None,114.0408313999651,114.5415433999733,114.0408313999651,114.5415433999733,114.0408313999651,114.5415433999733,114.0408313999651,114.5415433999733,114.0408313999651,None,,,,,,,,,,,,,,,,,,,,,,,,,,,,,,,,,,,,,,,,,,11009,001,2024_Jan_01_1645,nback,2021.2.3,60.46058877427872,
0-back,instructions\back-0.png,conditions\0back-p.xlsx,instructions\0-BACK.png,"(15, 8)",practice,0,2,stim\gray.png,stim\yellow.png,stim\gray.png,stim\gray.png,left,0,0,0,0,0,0,0,0,0,11,11,11,,,,,,,,,,,,,,,,,,,,,,,,,,,115.54284639999969,116.54442890000064,115.54284639999969,116.54442890000064,115.54284639999969,116.54442890000064,115.54284639999969,116.54442890000064,left,1,0.3868081000400707,115.54284639999969,None,115.54284639999969,None,115.54284639999969,116.04397659999086,115.54284639999969,116.04397659999086,115.54284639999969,116.04397659999086,115.54284639999969,116.04397659999086,115.54284639999969,None,,,,,,,,,,,,,,,,,,,,,,,,,,,,,,,,,,,,,,,,,,11009,001,2024_Jan_01_1645,nback,2021.2.3,60.46058877427872,
0-back,instructions\back-0.png,conditions\0back-p.xlsx,instructions\0-BACK.png,"(15, 8)",practice,0,4,stim\gray.png,stim\gray.png,stim\gray.png,stim\yellow.png,down,0,0,0,0,0,0,0,0,0,12,12,12,,,,,,,,,,,,,,,,,,,,,,,,,,,117.04560199996922,118.04675440001301,117.04560199996922,118.04675440001301,117.04560199996922,118.04675440001301,117.04560199996922,118.04675440001301,down,1,0.4761387000326067,117.04560199996922,None,117.04560199996922,None,117.04560199996922,117.54612119996455,117.04560199996922,117.54612119996455,117.04560199996922,117.54612119996455,117.04560199996922,117.54612119996455,117.04560199996922,None,,,,,,,,,,,,,,,,,,,,,,,,,,,,,,,,,,,,,,,,,,11009,001,2024_Jan_01_1645,nback,2021.2.3,60.46058877427872,
0-back,instructions\back-0.png,conditions\0back-p.xlsx,instructions\0-BACK.png,"(15, 8)",practice,0,3,stim\gray.png,stim\gray.png,stim\yellow.png,stim\gray.png,right,0,0,0,0,0,0,0,0,0,13,13,13,,,,,,,,,,,,,,,,,,,,,,,,,,,118.54741880000802,119.54923309996957,118.54741880000802,119.54923309996957,118.54741880000802,119.54923309996957,118.54741880000802,119.54923309996957,right,1,0.3669053000048734,118.54741880000802,None,118.54741880000802,None,118.54741880000802,119.04812230000971,118.54741880000802,119.04812230000971,118.54741880000802,119.04812230000971,118.54741880000802,119.04812230000971,118.54741880000802,None,,,,,,,,,,,,,,,,,,,,,,,,,,,,,,,,,,,,,,,,,,11009,001,2024_Jan_01_1645,nback,2021.2.3,60.46058877427872,
0-back,instructions\back-0.png,conditions\0back-p.xlsx,instructions\0-BACK.png,"(15, 8)",practice,0,1,stim\yellow.png,stim\gray.png,stim\gray.png,stim\gray.png,up,0,0,0,0,0,0,0,0,0,14,14,14,,,,,,,,,,,,,,,,,,,,,,,,,,,120.03301309997914,121.03517950000241,120.03301309997914,121.03517950000241,120.03301309997914,121.03517950000241,120.03301309997914,121.03517950000241,up,1,0.4007862000144087,120.03301309997914,None,120.03301309997914,None,120.03301309997914,120.5336890000035,120.03301309997914,120.5336890000035,120.03301309997914,120.5336890000035,120.03301309997914,120.5336890000035,120.03301309997914,None,,,,,,,,,,,,,,,,,,,,,,,,,,,,,,,,,,,,,,,,,,11009,001,2024_Jan_01_1645,nback,2021.2.3,60.46058877427872,
0-back,instructions\back-0.png,conditions\0back-p.xlsx,instructions\0-BACK.png,"(15, 8)",practice,0,2,stim\gray.png,stim\yellow.png,stim\gray.png,stim\gray.png,left,0,0,0,0,0,0,0,0,0,15,15,15,,,,,,,,,,,,,,,,,,,,,,,,,,,121.53529059997527,122.5373368000146,121.53529059997527,122.5373368000146,121.53529059997527,122.5373368000146,121.53529059997527,122.5373368000146,left,1,0.4027763000340201,121.53529059997527,None,121.53529059997527,None,121.53529059997527,122.03661319997627,121.53529059997527,122.03661319997627,121.53529059997527,122.03661319997627,121.53529059997527,122.03661319997627,121.53529059997527,None,,,,,,,,,,,,,,,,,,,,,,,,,,,,,,,,,,,,,,,,,,11009,001,2024_Jan_01_1645,nback,2021.2.3,60.46058877427872,
0-back,instructions\back-0.png,conditions\0back-p.xlsx,instructions\0-BACK.png,"(15, 8)",practice,0,3,stim\gray.png,stim\gray.png,stim\yellow.png,stim\gray.png,right,0,0,0,0,0,0,0,0,0,16,16,16,,,,,,,,,,,,,,,,,,,,,,,,,,,123.03740159998415,124.03949449997162,123.03740159998415,124.03949449997162,123.03740159998415,124.03949449997162,123.03740159998415,124.03949449997162,right,1,0.5403921999968588,123.03740159998415,None,123.03740159998415,None,123.03740159998415,123.53883189999033,123.03740159998415,123.53883189999033,123.03740159998415,123.53883189999033,123.03740159998415,123.53883189999033,123.03740159998415,None,,,,,,,,,,,,,,,,,,,,,,,,,,,,,,,,,,,,,,,,,,11009,001,2024_Jan_01_1645,nback,2021.2.3,60.46058877427872,
0-back,instructions\back-0.png,conditions\0back-p.xlsx,instructions\0-BACK.png,"(15, 8)",practice,0,1,stim\yellow.png,stim\gray.png,stim\gray.png,stim\gray.png,up,0,0,0,0,0,0,0,0,0,17,17,17,,,,,,,,,,,,,,,,,,,,,,,,,,,124.53974300000118,125.54119209997589,124.53974300000118,125.54119209997589,124.53974300000118,125.54119209997589,124.53974300000118,125.54119209997589,up,1,0.3829080000286922,124.53974300000118,None,124.53974300000118,None,124.53974300000118,125.04055749997497,124.53974300000118,125.04055749997497,124.53974300000118,125.04055749997497,124.53974300000118,125.04055749997497,124.53974300000118,None,,,,,,,,,,,,,,,,,,,,,,,,,,,,,,,,,,,,,,,,,,11009,001,2024_Jan_01_1645,nback,2021.2.3,60.46058877427872,
0-back,instructions\back-0.png,conditions\0back-p.xlsx,instructions\0-BACK.png,"(15, 8)",practice,0,4,stim\gray.png,stim\gray.png,stim\gray.png,stim\yellow.png,down,0,0,0,0,0,0,0,0,0,18,18,18,,,,,,,,,,,,,,,,,,,,,,,,,,,126.0419142000028,127.04350460000569,126.0419142000028,127.04350460000569,126.0419142000028,127.04350460000569,126.0419142000028,127.04350460000569,down,1,0.3358132999856025,126.0419142000028,None,126.0419142000028,None,126.0419142000028,126.5430108999717,126.0419142000028,126.5430108999717,126.0419142000028,126.5430108999717,126.0419142000028,126.5430108999717,126.0419142000028,None,,,,,,,,,,,,,,,,,,,,,,,,,,,,,,,,,,,,,,,,,,11009,001,2024_Jan_01_1645,nback,2021.2.3,60.46058877427872,
0-back,instructions\back-0.png,conditions\0back-p.xlsx,instructions\0-BACK.png,"(15, 8)",practice,0,2,stim\gray.png,stim\yellow.png,stim\gray.png,stim\gray.png,left,0,0,0,0,0,0,0,0,0,19,19,19,,,,,,,,,,,,,,,,,,,,,,,,,,,127.54447670001537,128.54572539997753,127.54447670001537,128.54572539997753,127.54447670001537,128.54572539997753,127.54447670001537,128.54572539997753,left,1,0.48981860000640154,127.54447670001537,None,127.54447670001537,None,127.54447670001537,128.04594260000158,127.54447670001537,128.04594260000158,127.54447670001537,128.04594260000158,127.54447670001537,128.04594260000158,127.54447670001537,None,,,,,,,,,,,,,,,,,,,,,,,,,,,,,,,,,,,,,,,,,,11009,001,2024_Jan_01_1645,nback,2021.2.3,60.46058877427872,
0-back,instructions\back-0.png,conditions\0back-p.xlsx,instructions\0-BACK.png,"(15, 8)",,,,,,,,,0,0,0,0,0,0,0,0,,,,,,,,,,,,,,,,,,,,,,,,,,,,,,,,,,,,,,,,,,,,,,,,,,,,,,,,,,,,,,,,,,,,,,,,,,,,,,,,,,,,,,,,,,,,,,,,,11009,001,2024_Jan_01_1645,nback,2021.2.3,60.46058877427872,
1-back,instructions\back-1.png,conditions\1back-p.xlsx,instructions\1-BACK.png,"(25, 15)",practice,1,1,stim\yellow.png,stim\gray.png,stim\gray.png,stim\gray.png,None,0,0,0,0,0,1,1,1,0,0,0,0,,,,,,,,,,,,,,,,,129.1964811999933,None,space,41.661889699986205,129.1964811999933,None,171.0252049000119,175.53320090001216,175.4996567000053,None,175.90086619998328,176.9029436999699,175.90086619998328,176.9029436999699,175.90086619998328,176.9029436999699,175.90086619998328,176.9029436999699,None,1,,175.90086619998328,None,175.90086619998328,None,175.90086619998328,176.40015459997812,175.90086619998328,176.40015459997812,175.90086619998328,176.40015459997812,175.90086619998328,176.40015459997812,175.90086619998328,None,,,,,,,,,,,,,,,,,,,,,,,,,,,,,,,,,,,,,,,,,,11009,001,2024_Jan_01_1645,nback,2021.2.3,60.46058877427872,
1-back,instructions\back-1.png,conditions\1back-p.xlsx,instructions\1-BACK.png,"(25, 15)",practice,1,2,stim\gray.png,stim\yellow.png,stim\gray.png,stim\gray.png,up,0,0,0,0,0,1,1,1,0,1,1,1,,,,,,,,,,,,,,,,,,,,,,,,,,,177.38455750001594,178.38615199999185,177.38455750001594,178.38615199999185,177.38455750001594,178.38615199999185,177.38455750001594,178.38615199999185,up,1,0.5216720000025816,177.38455750001594,None,177.38455750001594,None,177.38455750001594,177.8859467000002,177.38455750001594,177.8859467000002,177.38455750001594,177.8859467000002,177.38455750001594,177.8859467000002,177.38455750001594,None,,,,,,,,,,,,,,,,,,,,,,,,,,,,,,,,,,,,,,,,,,11009,001,2024_Jan_01_1645,nback,2021.2.3,60.46058877427872,
1-back,instructions\back-1.png,conditions\1back-p.xlsx,instructions\1-BACK.png,"(25, 15)",practice,1,3,stim\gray.png,stim\gray.png,stim\yellow.png,stim\gray.png,left,0,0,0,0,0,1,1,1,0,2,2,2,,,,,,,,,,,,,,,,,,,,,,,,,,,178.8869788000011,179.888317200006,178.8869788000011,179.888317200006,178.8869788000011,179.888317200006,178.8869788000011,179.888317200006,None,0,,178.8869788000011,None,178.8869788000011,None,178.8869788000011,179.38765439996496,178.8869788000011,179.38765439996496,178.8869788000011,179.38765439996496,178.8869788000011,179.38765439996496,178.8869788000011,None,,,,,,,,,,,,,,,,,,,,,,,,,,,,,,,,,,,,,,,,,,11009,001,2024_Jan_01_1645,nback,2021.2.3,60.46058877427872,
1-back,instructions\back-1.png,conditions\1back-p.xlsx,instructions\1-BACK.png,"(25, 15)",practice,1,4,stim\gray.png,stim\gray.png,stim\gray.png,stim\yellow.png,right,0,0,0,0,0,1,1,1,0,3,3,3,,,,,,,,,,,,,,,,,,,,,,,,,,,180.38909269997384,181.390373000002,180.38909269997384,181.390373000002,180.38909269997384,181.390373000002,180.38909269997384,181.390373000002,None,0,,180.38909269997384,None,180.38909269997384,None,180.38909269997384,180.88984349998645,180.38909269997384,180.88984349998645,180.38909269997384,180.88984349998645,180.38909269997384,180.88984349998645,180.38909269997384,None,,,,,,,,,,,,,,,,,,,,,,,,,,,,,,,,,,,,,,,,,,11009,001,2024_Jan_01_1645,nback,2021.2.3,60.46058877427872,
1-back,instructions\back-1.png,conditions\1back-p.xlsx,instructions\1-BACK.png,"(25, 15)",practice,1,2,stim\gray.png,stim\yellow.png,stim\gray.png,stim\gray.png,down,0,0,0,0,0,1,1,1,0,4,4,4,,,,,,,,,,,,,,,,,,,,,,,,,,,181.89136619999772,182.89276169997174,181.89136619999772,182.89276169997174,181.89136619999772,182.89276169997174,181.89136619999772,182.89276169997174,down,1,1.3828642999869771,181.89136619999772,None,181.89136619999772,None,181.89136619999772,182.3920236999984,181.89136619999772,182.3920236999984,181.89136619999772,182.3920236999984,181.89136619999772,182.3920236999984,181.89136619999772,None,,,,,,,,,,,,,,,,,,,,,,,,,,,,,,,,,,,,,,,,,,11009,001,2024_Jan_01_1645,nback,2021.2.3,60.46058877427872,
1-back,instructions\back-1.png,conditions\1back-p.xlsx,instructions\1-BACK.png,"(25, 15)",practice,1,1,stim\yellow.png,stim\gray.png,stim\gray.png,stim\gray.png,left,0,0,0,0,0,1,1,1,0,5,5,5,,,,,,,,,,,,,,,,,,,,,,,,,,,183.39353830000618,184.3950068000122,183.39353830000618,184.3950068000122,183.39353830000618,184.3950068000122,183.39353830000618,184.3950068000122,None,0,,183.39353830000618,None,183.39353830000618,None,183.39353830000618,183.89440920000197,183.39353830000618,183.89440920000197,183.39353830000618,183.89440920000197,183.39353830000618,183.89440920000197,183.39353830000618,None,,,,,,,,,,,,,,,,,,,,,,,,,,,,,,,,,,,,,,,,,,11009,001,2024_Jan_01_1645,nback,2021.2.3,60.46058877427872,
1-back,instructions\back-1.png,conditions\1back-p.xlsx,instructions\1-BACK.png,"(25, 15)",practice,1,4,stim\gray.png,stim\gray.png,stim\gray.png,stim\yellow.png,up,0,0,0,0,0,1,1,1,0,6,6,6,,,,,,,,,,,,,,,,,,,,,,,,,,,184.89568549999967,185.89728999999352,184.89568549999967,185.89728999999352,184.89568549999967,185.89728999999352,184.89568549999967,185.89728999999352,None,0,,184.89568549999967,None,184.89568549999967,None,184.89568549999967,185.3964885000023,184.89568549999967,185.3964885000023,184.89568549999967,185.3964885000023,184.89568549999967,185.3964885000023,184.89568549999967,None,,,,,,,,,,,,,,,,,,,,,,,,,,,,,,,,,,,,,,,,,,11009,001,2024_Jan_01_1645,nback,2021.2.3,60.46058877427872,
1-back,instructions\back-1.png,conditions\1back-p.xlsx,instructions\1-BACK.png,"(25, 15)",practice,1,3,stim\gray.png,stim\gray.png,stim\yellow.png,stim\gray.png,down,0,0,0,0,0,1,1,1,0,7,7,7,,,,,,,,,,,,,,,,,,,,,,,,,,,186.381333599973,187.38331840001047,186.381333599973,187.38331840001047,186.381333599973,187.38331840001047,186.381333599973,187.38331840001047,None,0,,186.381333599973,None,186.381333599973,None,186.381333599973,186.88212779996684,186.381333599973,186.88212779996684,186.381333599973,186.88212779996684,186.381333599973,186.88212779996684,186.381333599973,None,,,,,,,,,,,,,,,,,,,,,,,,,,,,,,,,,,,,,,,,,,11009,001,2024_Jan_01_1645,nback,2021.2.3,60.46058877427872,
1-back,instructions\back-1.png,conditions\1back-p.xlsx,instructions\1-BACK.png,"(25, 15)",practice,1,3,stim\gray.png,stim\gray.png,stim\yellow.png,stim\gray.png,right,0,0,0,0,0,1,1,1,0,8,8,8,,,,,,,,,,,,,,,,,,,,,,,,,,,187.88357499998529,188.88504490000196,187.88357499998529,188.88504490000196,187.88357499998529,188.88504490000196,187.88357499998529,188.88504490000196,None,0,,187.88357499998529,None,187.88357499998529,None,187.88357499998529,188.38465729996096,187.88357499998529,188.38465729996096,187.88357499998529,188.38465729996096,187.88357499998529,188.38465729996096,187.88357499998529,None,,,,,,,,,,,,,,,,,,,,,,,,,,,,,,,,,,,,,,,,,,11009,001,2024_Jan_01_1645,nback,2021.2.3,60.46058877427872,
1-back,instructions\back-1.png,conditions\1back-p.xlsx,instructions\1-BACK.png,"(25, 15)",practice,1,4,stim\gray.png,stim\gray.png,stim\gray.png,stim\yellow.png,right,0,0,0,0,0,1,1,1,0,9,9,9,,,,,,,,,,,,,,,,,,,,,,,,,,,189.38614119996782,190.38705879996996,189.38614119996782,190.38705879996996,189.38614119996782,190.38705879996996,189.38614119996782,190.38705879996996,down,0,0.38402050000149757,189.38614119996782,None,189.38614119996782,None,189.38614119996782,189.8865479999804,189.38614119996782,189.8865479999804,189.38614119996782,189.8865479999804,189.38614119996782,189.8865479999804,189.38614119996782,None,,,,,,,,,,,,,,,,,,,,,,,,,,,,,,,,,,,,,,,,,,11009,001,2024_Jan_01_1645,nback,2021.2.3,60.46058877427872,
1-back,instructions\back-1.png,conditions\1back-p.xlsx,instructions\1-BACK.png,"(25, 15)",practice,1,1,stim\yellow.png,stim\gray.png,stim\gray.png,stim\gray.png,down,0,0,0,0,0,1,1,1,0,10,10,10,,,,,,,,,,,,,,,,,,,,,,,,,,,190.88800289999926,191.8901453000144,190.88800289999926,191.8901453000144,190.88800289999926,191.8901453000144,190.88800289999926,191.8901453000144,None,0,,190.88800289999926,None,190.88800289999926,None,190.88800289999926,191.3888161999639,190.88800289999926,191.3888161999639,190.88800289999926,191.3888161999639,190.88800289999926,191.3888161999639,190.88800289999926,None,,,,,,,,,,,,,,,,,,,,,,,,,,,,,,,,,,,,,,,,,,11009,001,2024_Jan_01_1645,nback,2021.2.3,60.46058877427872,
1-back,instructions\back-1.png,conditions\1back-p.xlsx,instructions\1-BACK.png,"(25, 15)",practice,1,2,stim\gray.png,stim\yellow.png,stim\gray.png,stim\gray.png,up,0,0,0,0,0,1,1,1,0,11,11,11,,,,,,,,,,,,,,,,,,,,,,,,,,,192.39010610000696,193.39162539999234,192.39010610000696,193.39162539999234,192.39010610000696,193.39162539999234,192.39010610000696,193.39162539999234,up,1,0.37199539999710396,192.39010610000696,None,192.39010610000696,None,192.39010610000696,192.89109779999126,192.39010610000696,192.89109779999126,192.39010610000696,192.89109779999126,192.39010610000696,192.89109779999126,192.39010610000696,None,,,,,,,,,,,,,,,,,,,,,,,,,,,,,,,,,,,,,,,,,,11009,001,2024_Jan_01_1645,nback,2021.2.3,60.46058877427872,
1-back,instructions\back-1.png,conditions\1back-p.xlsx,instructions\1-BACK.png,"(25, 15)",practice,1,4,stim\gray.png,stim\gray.png,stim\gray.png,stim\yellow.png,left,0,0,0,0,0,1,1,1,0,12,12,12,,,,,,,,,,,,,,,,,,,,,,,,,,,193.89357259997632,194.89437589998124,193.89357259997632,194.89437589998124,193.89357259997632,194.89437589998124,193.89357259997632,194.89437589998124,None,0,,193.89357259997632,None,193.89357259997632,None,193.89357259997632,194.3936349999858,193.89357259997632,194.3936349999858,193.89357259997632,194.3936349999858,193.89357259997632,194.3936349999858,193.89357259997632,None,,,,,,,,,,,,,,,,,,,,,,,,,,,,,,,,,,,,,,,,,,11009,001,2024_Jan_01_1645,nback,2021.2.3,60.46058877427872,
1-back,instructions\back-1.png,conditions\1back-p.xlsx,instructions\1-BACK.png,"(25, 15)",practice,1,3,stim\gray.png,stim\gray.png,stim\yellow.png,stim\gray.png,down,0,0,0,0,0,1,1,1,0,13,13,13,,,,,,,,,,,,,,,,,,,,,,,,,,,195.39453399996273,196.39646929997252,195.39453399996273,196.39646929997252,195.39453399996273,196.39646929997252,195.39453399996273,196.39646929997252,down,1,0.9753804000210948,195.39453399996273,None,195.39453399996273,None,195.39453399996273,195.89572699996643,195.39453399996273,195.89572699996643,195.39453399996273,195.89572699996643,195.39453399996273,195.89572699996643,195.39453399996273,None,,,,,,,,,,,,,,,,,,,,,,,,,,,,,,,,,,,,,,,,,,11009,001,2024_Jan_01_1645,nback,2021.2.3,60.46058877427872,
1-back,instructions\back-1.png,conditions\1back-p.xlsx,instructions\1-BACK.png,"(25, 15)",practice,1,1,stim\yellow.png,stim\gray.png,stim\gray.png,stim\gray.png,right,0,0,0,0,0,1,1,1,0,14,14,14,,,,,,,,,,,,,,,,,,,,,,,,,,,196.88023050001357,197.88209229998756,196.88023050001357,197.88209229998756,196.88023050001357,197.88209229998756,196.88023050001357,197.88209229998756,None,0,,196.88023050001357,None,196.88023050001357,None,196.88023050001357,197.38154819997726,196.88023050001357,197.38154819997726,196.88023050001357,197.38154819997726,196.88023050001357,197.38154819997726,196.88023050001357,None,,,,,,,,,,,,,,,,,,,,,,,,,,,,,,,,,,,,,,,,,,11009,001,2024_Jan_01_1645,nback,2021.2.3,60.46058877427872,
1-back,instructions\back-1.png,conditions\1back-p.xlsx,instructions\1-BACK.png,"(25, 15)",practice,1,2,stim\gray.png,stim\yellow.png,stim\gray.png,stim\gray.png,up,0,0,0,0,0,1,1,1,0,15,15,15,,,,,,,,,,,,,,,,,,,,,,,,,,,198.3829006999731,199.38386750000063,198.3829006999731,199.38386750000063,198.3829006999731,199.38386750000063,198.3829006999731,199.38386750000063,up,1,0.8196484999498352,198.3829006999731,None,198.3829006999731,None,198.3829006999731,198.88320869999006,198.3829006999731,198.88320869999006,198.3829006999731,198.88320869999006,198.3829006999731,198.88320869999006,198.3829006999731,None,,,,,,,,,,,,,,,,,,,,,,,,,,,,,,,,,,,,,,,,,,11009,001,2024_Jan_01_1645,nback,2021.2.3,60.46058877427872,
1-back,instructions\back-1.png,conditions\1back-p.xlsx,instructions\1-BACK.png,"(25, 15)",practice,1,3,stim\gray.png,stim\gray.png,stim\yellow.png,stim\gray.png,left,0,0,0,0,0,1,1,1,0,16,16,16,,,,,,,,,,,,,,,,,,,,,,,,,,,199.88476059999084,200.8862247999641,199.88476059999084,200.8862247999641,199.88476059999084,200.8862247999641,199.88476059999084,200.8862247999641,None,0,,199.88476059999084,None,199.88476059999084,None,199.88476059999084,200.38541160000023,199.88476059999084,200.38541160000023,199.88476059999084,200.38541160000023,199.88476059999084,200.38541160000023,199.88476059999084,None,,,,,,,,,,,,,,,,,,,,,,,,,,,,,,,,,,,,,,,,,,11009,001,2024_Jan_01_1645,nback,2021.2.3,60.46058877427872,
1-back,instructions\back-1.png,conditions\1back-p.xlsx,instructions\1-BACK.png,"(25, 15)",practice,1,1,stim\yellow.png,stim\gray.png,stim\gray.png,stim\gray.png,right,0,0,0,0,0,1,1,1,0,17,17,17,,,,,,,,,,,,,,,,,,,,,,,,,,,201.3866682999651,202.38908409996657,201.3866682999651,202.38908409996657,201.3866682999651,202.38908409996657,201.3866682999651,202.38908409996657,right,1,0.33530269999755546,201.3866682999651,None,201.3866682999651,None,201.3866682999651,201.88853719999315,201.3866682999651,201.88853719999315,201.3866682999651,201.88853719999315,201.3866682999651,201.88853719999315,201.3866682999651,None,,,,,,,,,,,,,,,,,,,,,,,,,,,,,,,,,,,,,,,,,,11009,001,2024_Jan_01_1645,nback,2021.2.3,60.46058877427872,
1-back,instructions\back-1.png,conditions\1back-p.xlsx,instructions\1-BACK.png,"(25, 15)",practice,1,4,stim\gray.png,stim\gray.png,stim\gray.png,stim\yellow.png,up,0,0,0,0,0,1,1,1,0,18,18,18,,,,,,,,,,,,,,,,,,,,,,,,,,,202.88899690000108,203.89077050000196,202.88899690000108,203.89077050000196,202.88899690000108,203.89077050000196,202.88899690000108,203.89077050000196,None,0,,202.88899690000108,None,202.88899690000108,None,202.88899690000108,203.38985229999525,202.88899690000108,203.38985229999525,202.88899690000108,203.38985229999525,202.88899690000108,203.38985229999525,202.88899690000108,None,,,,,,,,,,,,,,,,,,,,,,,,,,,,,,,,,,,,,,,,,,11009,001,2024_Jan_01_1645,nback,2021.2.3,60.46058877427872,
1-back,instructions\back-1.png,conditions\1back-p.xlsx,instructions\1-BACK.png,"(25, 15)",practice,1,2,stim\gray.png,stim\yellow.png,stim\gray.png,stim\gray.png,down,0,0,0,0,0,1,1,1,0,19,19,19,,,,,,,,,,,,,,,,,,,,,,,,,,,204.39163490000647,205.3931609999854,204.39163490000647,205.3931609999854,204.39163490000647,205.3931609999854,204.39163490000647,205.3931609999854,down,1,0.3226297000073828,204.39163490000647,None,204.39163490000647,None,204.39163490000647,204.8931361999712,204.39163490000647,204.8931361999712,204.39163490000647,204.8931361999712,204.39163490000647,204.8931361999712,204.39163490000647,None,,,,,,,,,,,,,,,,,,,,,,,,,,,,,,,,,,,,,,,,,,11009,001,2024_Jan_01_1645,nback,2021.2.3,60.46058877427872,
1-back,instructions\back-1.png,conditions\1back-p.xlsx,instructions\1-BACK.png,"(25, 15)",,,,,,,,,0,0,0,0,0,1,1,1,,,,,,,,,,,,,,,,,,,,,,,,,,,,,,,,,,,,,,,,,,,,,,,,,,,,,,,,,,,,,,,,,,,,,,,,,,,,,,,,,,,,,,,,,,,,,,,,,11009,001,2024_Jan_01_1645,nback,2021.2.3,60.46058877427872,
2-back,instructions\back-2.png,conditions\2back-p.xlsx,instructions\2-BACK.png,"(25, 15)",practice,2,1,stim\yellow.png,stim\gray.png,stim\gray.png,stim\gray.png,None,0,0,0,0,0,2,2,2,0,0,0,0,,,,,,,,,,,,,,,,,206.06040229997598,None,space,49.61342870001681,206.06040229997598,None,255.88420400000177,260.39178339997306,260.3250216000015,None,260.72484129999066,261.7266455999925,260.72484129999066,261.7266455999925,260.72484129999066,261.7266455999925,260.72484129999066,261.7266455999925,None,1,,260.72484129999066,None,260.72484129999066,None,260.72484129999066,261.2262296999688,260.72484129999066,261.2262296999688,260.72484129999066,261.2262296999688,260.72484129999066,261.2262296999688,260.72484129999066,None,,,,,,,,,,,,,,,,,,,,,,,,,,,,,,,,,,,,,,,,,,11009,001,2024_Jan_01_1645,nback,2021.2.3,60.46058877427872,
2-back,instructions\back-2.png,conditions\2back-p.xlsx,instructions\2-BACK.png,"(25, 15)",practice,2,2,stim\gray.png,stim\yellow.png,stim\gray.png,stim\gray.png,None,0,0,0,0,0,2,2,2,0,1,1,1,,,,,,,,,,,,,,,,,,,,,,,,,,,262.21085199998925,263.2117314999923,262.21085199998925,263.2117314999923,262.21085199998925,263.2117314999923,262.21085199998925,263.2117314999923,None,1,,262.21085199998925,None,262.21085199998925,None,262.21085199998925,262.7114047000068,262.21085199998925,262.7114047000068,262.21085199998925,262.7114047000068,262.21085199998925,262.7114047000068,262.21085199998925,None,,,,,,,,,,,,,,,,,,,,,,,,,,,,,,,,,,,,,,,,,,11009,001,2024_Jan_01_1645,nback,2021.2.3,60.46058877427872,
2-back,instructions\back-2.png,conditions\2back-p.xlsx,instructions\2-BACK.png,"(25, 15)",practice,2,3,stim\gray.png,stim\gray.png,stim\yellow.png,stim\gray.png,up,0,0,0,0,0,2,2,2,0,2,2,2,,,,,,,,,,,,,,,,,,,,,,,,,,,263.71262920001755,264.7139392999816,263.71262920001755,264.7139392999816,263.71262920001755,264.7139392999816,263.71262920001755,264.7139392999816,up,1,0.4575623000273481,263.71262920001755,None,263.71262920001755,None,263.71262920001755,264.21363409998594,263.71262920001755,264.21363409998594,263.71262920001755,264.21363409998594,263.71262920001755,264.21363409998594,263.71262920001755,None,,,,,,,,,,,,,,,,,,,,,,,,,,,,,,,,,,,,,,,,,,11009,001,2024_Jan_01_1645,nback,2021.2.3,60.46058877427872,
2-back,instructions\back-2.png,conditions\2back-p.xlsx,instructions\2-BACK.png,"(25, 15)",practice,2,4,stim\gray.png,stim\gray.png,stim\gray.png,stim\yellow.png,left,0,0,0,0,0,2,2,2,0,3,3,3,,,,,,,,,,,,,,,,,,,,,,,,,,,265.2146948999725,266.2165512999636,265.2146948999725,266.2165512999636,265.2146948999725,266.2165512999636,265.2146948999725,266.2165512999636,left,1,0.595469799998682,265.2146948999725,None,265.2146948999725,None,265.2146948999725,265.7155795000144,265.2146948999725,265.7155795000144,265.2146948999725,265.7155795000144,265.2146948999725,265.7155795000144,265.2146948999725,None,,,,,,,,,,,,,,,,,,,,,,,,,,,,,,,,,,,,,,,,,,11009,001,2024_Jan_01_1645,nback,2021.2.3,60.46058877427872,
2-back,instructions\back-2.png,conditions\2back-p.xlsx,instructions\2-BACK.png,"(25, 15)",practice,2,2,stim\gray.png,stim\yellow.png,stim\gray.png,stim\gray.png,right,0,0,0,0,0,2,2,2,0,4,4,4,,,,,,,,,,,,,,,,,,,,,,,,,,,266.7171906000003,267.7203262000112,266.7171906000003,267.7203262000112,266.7171906000003,267.7203262000112,266.7171906000003,267.7203262000112,None,0,,266.7171906000003,None,266.7171906000003,None,266.7171906000003,267.2188567999983,266.7171906000003,267.2188567999983,266.7171906000003,267.2188567999983,266.7171906000003,267.2188567999983,266.7171906000003,None,,,,,,,,,,,,,,,,,,,,,,,,,,,,,,,,,,,,,,,,,,11009,001,2024_Jan_01_1645,nback,2021.2.3,60.46058877427872,
2-back,instructions\back-2.png,conditions\2back-p.xlsx,instructions\2-BACK.png,"(25, 15)",practice,2,1,stim\yellow.png,stim\gray.png,stim\gray.png,stim\gray.png,down,0,0,0,0,0,2,2,2,0,5,5,5,,,,,,,,,,,,,,,,,,,,,,,,,,,268.21922769997036,269.2218417999684,268.21922769997036,269.2218417999684,268.21922769997036,269.2218417999684,268.21922769997036,269.2218417999684,down,1,1.0154284000163898,268.21922769997036,None,268.21922769997036,None,268.21922769997036,268.720016199979,268.21922769997036,268.720016199979,268.21922769997036,268.720016199979,268.21922769997036,268.720016199979,268.21922769997036,None,,,,,,,,,,,,,,,,,,,,,,,,,,,,,,,,,,,,,,,,,,11009,001,2024_Jan_01_1645,nback,2021.2.3,60.46058877427872,
2-back,instructions\back-2.png,conditions\2back-p.xlsx,instructions\2-BACK.png,"(25, 15)",practice,2,4,stim\gray.png,stim\gray.png,stim\gray.png,stim\yellow.png,left,0,0,0,0,0,2,2,2,0,6,6,6,,,,,,,,,,,,,,,,,,,,,,,,,,,269.72150039998814,270.7228421999607,269.72150039998814,270.7228421999607,269.72150039998814,270.7228421999607,269.72150039998814,270.7228421999607,None,0,,269.72150039998814,None,269.72150039998814,None,269.72150039998814,270.2224428000045,269.72150039998814,270.2224428000045,269.72150039998814,270.2224428000045,269.72150039998814,270.2224428000045,269.72150039998814,None,,,,,,,,,,,,,,,,,,,,,,,,,,,,,,,,,,,,,,,,,,11009,001,2024_Jan_01_1645,nback,2021.2.3,60.46058877427872,
2-back,instructions\back-2.png,conditions\2back-p.xlsx,instructions\2-BACK.png,"(25, 15)",practice,2,3,stim\gray.png,stim\gray.png,stim\yellow.png,stim\gray.png,up,0,0,0,0,0,2,2,2,0,7,7,7,,,,,,,,,,,,,,,,,,,,,,,,,,,271.2074474999681,272.208721300005,271.2074474999681,272.208721300005,271.2074474999681,272.208721300005,271.2074474999681,272.208721300005,left,0,0.2745489000226371,271.2074474999681,None,271.2074474999681,None,271.2074474999681,271.7083652999718,271.2074474999681,271.7083652999718,271.2074474999681,271.7083652999718,271.2074474999681,271.7083652999718,271.2074474999681,None,,,,,,,,,,,,,,,,,,,,,,,,,,,,,,,,,,,,,,,,,,11009,001,2024_Jan_01_1645,nback,2021.2.3,60.46058877427872,
2-back,instructions\back-2.png,conditions\2back-p.xlsx,instructions\2-BACK.png,"(25, 15)",practice,2,3,stim\gray.png,stim\gray.png,stim\yellow.png,stim\gray.png,down,0,0,0,0,0,2,2,2,0,8,8,8,,,,,,,,,,,,,,,,,,,,,,,,,,,272.70916819997365,273.7108365999884,272.70916819997365,273.7108365999884,272.70916819997365,273.7108365999884,272.70916819997365,273.7108365999884,up,0,0.06882570002926514,272.70916819997365,None,272.70916819997365,None,272.70916819997365,273.21045379998395,272.70916819997365,273.21045379998395,272.70916819997365,273.21045379998395,272.70916819997365,273.21045379998395,272.70916819997365,None,,,,,,,,,,,,,,,,,,,,,,,,,,,,,,,,,,,,,,,,,,11009,001,2024_Jan_01_1645,nback,2021.2.3,60.46058877427872,
2-back,instructions\back-2.png,conditions\2back-p.xlsx,instructions\2-BACK.png,"(25, 15)",practice,2,4,stim\gray.png,stim\gray.png,stim\gray.png,stim\yellow.png,right,0,0,0,0,0,2,2,2,0,9,9,9,,,,,,,,,,,,,,,,,,,,,,,,,,,274.21121400000993,275.2128977999673,274.21121400000993,275.2128977999673,274.21121400000993,275.2128977999673,274.21121400000993,275.2128977999673,down,0,0.1829827000037767,274.21121400000993,None,274.21121400000993,None,274.21121400000993,274.7122884999844,274.21121400000993,274.7122884999844,274.21121400000993,274.7122884999844,274.21121400000993,274.7122884999844,274.21121400000993,None,,,,,,,,,,,,,,,,,,,,,,,,,,,,,,,,,,,,,,,,,,11009,001,2024_Jan_01_1645,nback,2021.2.3,60.46058877427872,
2-back,instructions\back-2.png,conditions\2back-p.xlsx,instructions\2-BACK.png,"(25, 15)",practice,2,1,stim\yellow.png,stim\gray.png,stim\gray.png,stim\gray.png,right,0,0,0,0,0,2,2,2,0,10,10,10,,,,,,,,,,,,,,,,,,,,,,,,,,,275.7137242999743,276.71560759999556,275.7137242999743,276.71560759999556,275.7137242999743,276.71560759999556,275.7137242999743,276.71560759999556,right,1,0.7523624000023119,275.7137242999743,None,275.7137242999743,None,275.7137242999743,276.2143890999723,275.7137242999743,276.2143890999723,275.7137242999743,276.2143890999723,275.7137242999743,276.2143890999723,275.7137242999743,None,,,,,,,,,,,,,,,,,,,,,,,,,,,,,,,,,,,,,,,,,,11009,001,2024_Jan_01_1645,nback,2021.2.3,60.46058877427872,
2-back,instructions\back-2.png,conditions\2back-p.xlsx,instructions\2-BACK.png,"(25, 15)",practice,2,2,stim\gray.png,stim\yellow.png,stim\gray.png,stim\gray.png,down,0,0,0,0,0,2,2,2,0,11,11,11,,,,,,,,,,,,,,,,,,,,,,,,,,,277.2160003000172,278.21829739998793,277.2160003000172,278.21829739998793,277.2160003000172,278.21829739998793,277.2160003000172,278.21829739998793,down,1,1.0667813000036404,277.2160003000172,None,277.2160003000172,None,277.2160003000172,277.7171585999895,277.2160003000172,277.7171585999895,277.2160003000172,277.7171585999895,277.2160003000172,277.7171585999895,277.2160003000172,None,,,,,,,,,,,,,,,,,,,,,,,,,,,,,,,,,,,,,,,,,,11009,001,2024_Jan_01_1645,nback,2021.2.3,60.46058877427872,
2-back,instructions\back-2.png,conditions\2back-p.xlsx,instructions\2-BACK.png,"(25, 15)",practice,2,4,stim\gray.png,stim\gray.png,stim\gray.png,stim\yellow.png,up,0,0,0,0,0,2,2,2,0,12,12,12,,,,,,,,,,,,,,,,,,,,,,,,,,,278.718745399965,279.72045899997465,278.718745399965,279.72045899997465,278.718745399965,279.72045899997465,278.718745399965,279.72045899997465,up,1,1.0035379999899305,278.718745399965,None,278.718745399965,None,278.718745399965,279.22039329999825,278.718745399965,279.22039329999825,278.718745399965,279.22039329999825,278.718745399965,279.22039329999825,278.718745399965,None,,,,,,,,,,,,,,,,,,,,,,,,,,,,,,,,,,,,,,,,,,11009,001,2024_Jan_01_1645,nback,2021.2.3,60.46058877427872,
2-back,instructions\back-2.png,conditions\2back-p.xlsx,instructions\2-BACK.png,"(25, 15)",practice,2,3,stim\gray.png,stim\gray.png,stim\yellow.png,stim\gray.png,left,0,0,0,0,0,2,2,2,0,13,13,13,,,,,,,,,,,,,,,,,,,,,,,,,,,280.2204616999952,281.22204399999464,280.2204616999952,281.22204399999464,280.2204616999952,281.22204399999464,280.2204616999952,281.22204399999464,left,1,0.8297944999649189,280.2204616999952,None,280.2204616999952,None,280.2204616999952,280.72121599997627,280.2204616999952,280.72121599997627,280.2204616999952,280.72121599997627,280.2204616999952,280.72121599997627,280.2204616999952,None,,,,,,,,,,,,,,,,,,,,,,,,,,,,,,,,,,,,,,,,,,11009,001,2024_Jan_01_1645,nback,2021.2.3,60.46058877427872,
2-back,instructions\back-2.png,conditions\2back-p.xlsx,instructions\2-BACK.png,"(25, 15)",practice,2,1,stim\yellow.png,stim\gray.png,stim\gray.png,stim\gray.png,down,0,0,0,0,0,2,2,2,0,14,14,14,,,,,,,,,,,,,,,,,,,,,,,,,,,281.70592789998045,282.7074522000039,281.70592789998045,282.7074522000039,281.70592789998045,282.7074522000039,281.70592789998045,282.7074522000039,down,1,0.7920146999531426,281.70592789998045,None,281.70592789998045,None,281.70592789998045,282.20735679997597,281.70592789998045,282.20735679997597,281.70592789998045,282.20735679997597,281.70592789998045,282.20735679997597,281.70592789998045,None,,,,,,,,,,,,,,,,,,,,,,,,,,,,,,,,,,,,,,,,,,11009,001,2024_Jan_01_1645,nback,2021.2.3,60.46058877427872,
2-back,instructions\back-2.png,conditions\2back-p.xlsx,instructions\2-BACK.png,"(25, 15)",practice,2,2,stim\gray.png,stim\yellow.png,stim\gray.png,stim\gray.png,right,0,0,0,0,0,2,2,2,0,15,15,15,,,,,,,,,,,,,,,,,,,,,,,,,,,283.2080743999686,284.2104709999985,283.2080743999686,284.2104709999985,283.2080743999686,284.2104709999985,283.2080743999686,284.2104709999985,right,1,0.8659321999875829,283.2080743999686,None,283.2080743999686,None,283.2080743999686,283.708982000011,283.2080743999686,283.708982000011,283.2080743999686,283.708982000011,283.2080743999686,283.708982000011,283.2080743999686,None,,,,,,,,,,,,,,,,,,,,,,,,,,,,,,,,,,,,,,,,,,11009,001,2024_Jan_01_1645,nback,2021.2.3,60.46058877427872,
2-back,instructions\back-2.png,conditions\2back-p.xlsx,instructions\2-BACK.png,"(25, 15)",practice,2,3,stim\gray.png,stim\gray.png,stim\yellow.png,stim\gray.png,up,0,0,0,0,0,2,2,2,0,16,16,16,,,,,,,,,,,,,,,,,,,,,,,,,,,284.71045070001855,285.71237069997005,284.71045070001855,285.71237069997005,284.71045070001855,285.71237069997005,284.71045070001855,285.71237069997005,None,0,,284.71045070001855,None,284.71045070001855,None,284.71045070001855,285.21221129997866,284.71045070001855,285.21221129997866,284.71045070001855,285.21221129997866,284.71045070001855,285.21221129997866,284.71045070001855,None,,,,,,,,,,,,,,,,,,,,,,,,,,,,,,,,,,,,,,,,,,11009,001,2024_Jan_01_1645,nback,2021.2.3,60.46058877427872,
2-back,instructions\back-2.png,conditions\2back-p.xlsx,instructions\2-BACK.png,"(25, 15)",practice,2,1,stim\yellow.png,stim\gray.png,stim\gray.png,stim\gray.png,left,0,0,0,0,0,2,2,2,0,17,17,17,,,,,,,,,,,,,,,,,,,,,,,,,,,286.21258290001424,287.2153326999978,286.21258290001424,287.2153326999978,286.21258290001424,287.2153326999978,286.21258290001424,287.2153326999978,down,0,0.621292199997697,286.21258290001424,None,286.21258290001424,None,286.21258290001424,286.71323870000197,286.21258290001424,286.71323870000197,286.21258290001424,286.71323870000197,286.21258290001424,286.71323870000197,286.21258290001424,None,,,,,,,,,,,,,,,,,,,,,,,,,,,,,,,,,,,,,,,,,,11009,001,2024_Jan_01_1645,nback,2021.2.3,60.46058877427872,
2-back,instructions\back-2.png,conditions\2back-p.xlsx,instructions\2-BACK.png,"(25, 15)",practice,2,4,stim\gray.png,stim\gray.png,stim\gray.png,stim\yellow.png,right,0,0,0,0,0,2,2,2,0,18,18,18,,,,,,,,,,,,,,,,,,,,,,,,,,,287.7149024999817,288.71739669999806,287.7149024999817,288.71739669999806,287.7149024999817,288.71739669999806,287.7149024999817,288.71739669999806,None,0,,287.7149024999817,None,287.7149024999817,None,287.7149024999817,288.2154936000006,287.7149024999817,288.2154936000006,287.7149024999817,288.2154936000006,287.7149024999817,288.2154936000006,287.7149024999817,None,,,,,,,,,,,,,,,,,,,,,,,,,,,,,,,,,,,,,,,,,,11009,001,2024_Jan_01_1645,nback,2021.2.3,60.46058877427872,
2-back,instructions\back-2.png,conditions\2back-p.xlsx,instructions\2-BACK.png,"(25, 15)",practice,2,2,stim\gray.png,stim\yellow.png,stim\gray.png,stim\gray.png,up,0,0,0,0,0,2,2,2,0,19,19,19,,,,,,,,,,,,,,,,,,,,,,,,,,,289.2170720999711,290.2191907999804,289.2170720999711,290.2191907999804,289.2170720999711,290.2191907999804,289.2170720999711,290.2191907999804,None,0,,289.2170720999711,None,289.2170720999711,None,289.2170720999711,289.71864739997545,289.2170720999711,289.71864739997545,289.2170720999711,289.71864739997545,289.2170720999711,289.71864739997545,289.2170720999711,None,,,,,,,,,,,,,,,,,,,,,,,,,,,,,,,,,,,,,,,,,,11009,001,2024_Jan_01_1645,nback,2021.2.3,60.46058877427872,
2-back,instructions\back-2.png,conditions\2back-p.xlsx,instructions\2-BACK.png,"(25, 15)",,,,,,,,,0,0,0,0,0,2,2,2,,,,,,,,,,,,,,,,,,,,,,,,,,,,,,,,,,,,,,,,,,,,,,,,,,,,,,,,,,,,,,,,,,,,,,,,,,,,,,,,,,,,,,,,,,,,,,,,,11009,001,2024_Jan_01_1645,nback,2021.2.3,60.46058877427872,
,,,,,,,,,,,,,0,0,0,0,,,,,,,,,,,,,,,,,,,,,,,,,,,,,,,,,,,,,,,,,,,,,,,,,,,,,,,,,,,,290.7202057999675,None,s,34.72992680000607,290.7202057999675,None,,,,,,,,,,,,,,,,,,,,,,,,,,,,,,,,,,,,11009,001,2024_Jan_01_1645,nback,2021.2.3,60.46058877427872,
0-back,instructions\back-0.png,conditions\0back-p.xlsx,instructions\0-BACK.png,"(15, 8)",practice,0,1,stim\yellow.png,stim\gray.png,stim\gray.png,stim\gray.png,up,1,0,1,0,0,0,0,0,0,0,0,0,,,,,,,,,,,,,,,,,325.58754589996533,None,space,7.934366500005126,325.58754589996533,None,333.71628569997847,338.22374789998867,338.173031000013,None,338.57429489999777,339.5767180999974,338.57429489999777,339.5767180999974,338.57429489999777,339.5767180999974,338.57429489999777,339.5767180999974,up,1,0.5317188000190072,338.57429489999777,None,338.57429489999777,None,338.57429489999777,339.0743460999802,338.57429489999777,339.0743460999802,338.57429489999777,339.0743460999802,338.57429489999777,339.0743460999802,338.57429489999777,None,,,,,,,,,,,,,,,,,,,,,,,,,,,,,,,,,,,,,,,,,,11009,001,2024_Jan_01_1645,nback,2021.2.3,60.46058877427872,
0-back,instructions\back-0.png,conditions\0back-p.xlsx,instructions\0-BACK.png,"(15, 8)",practice,0,2,stim\gray.png,stim\yellow.png,stim\gray.png,stim\gray.png,left,1,0,1,0,0,0,0,0,0,1,1,1,,,,,,,,,,,,,,,,,,,,,,,,,,,340.05895709997276,341.0610471999971,340.05895709997276,341.0610471999971,340.05895709997276,341.0610471999971,340.05895709997276,341.0610471999971,left,1,0.48707989999093115,340.05895709997276,None,340.05895709997276,None,340.05895709997276,340.5599220999866,340.05895709997276,340.5599220999866,340.05895709997276,340.5599220999866,340.05895709997276,340.5599220999866,340.05895709997276,None,,,,,,,,,,,,,,,,,,,,,,,,,,,,,,,,,,,,,,,,,,11009,001,2024_Jan_01_1645,nback,2021.2.3,60.46058877427872,
0-back,instructions\back-0.png,conditions\0back-p.xlsx,instructions\0-BACK.png,"(15, 8)",practice,0,3,stim\gray.png,stim\gray.png,stim\yellow.png,stim\gray.png,right,1,0,1,0,0,0,0,0,0,2,2,2,,,,,,,,,,,,,,,,,,,,,,,,,,,341.56132340000477,342.5628384000156,341.56132340000477,342.5628384000156,341.56132340000477,342.5628384000156,341.56132340000477,342.5628384000156,right,1,0.3447446000063792,341.56132340000477,None,341.56132340000477,None,341.56132340000477,342.06295240001054,341.56132340000477,342.06295240001054,341.56132340000477,342.06295240001054,341.56132340000477,342.06295240001054,341.56132340000477,None,,,,,,,,,,,,,,,,,,,,,,,,,,,,,,,,,,,,,,,,,,11009,001,2024_Jan_01_1645,nback,2021.2.3,60.46058877427872,
0-back,instructions\back-0.png,conditions\0back-p.xlsx,instructions\0-BACK.png,"(15, 8)",practice,0,4,stim\gray.png,stim\gray.png,stim\gray.png,stim\yellow.png,down,1,0,1,0,0,0,0,0,0,3,3,3,,,,,,,,,,,,,,,,,,,,,,,,,,,343.0634876000113,344.06502869998803,343.0634876000113,344.06502869998803,343.0634876000113,344.06502869998803,343.0634876000113,344.06502869998803,down,1,0.24270070000784472,343.0634876000113,None,343.0634876000113,None,343.0634876000113,343.5647866000072,343.0634876000113,343.5647866000072,343.0634876000113,343.5647866000072,343.0634876000113,343.5647866000072,343.0634876000113,None,,,,,,,,,,,,,,,,,,,,,,,,,,,,,,,,,,,,,,,,,,11009,001,2024_Jan_01_1645,nback,2021.2.3,60.46058877427872,
0-back,instructions\back-0.png,conditions\0back-p.xlsx,instructions\0-BACK.png,"(15, 8)",practice,0,2,stim\gray.png,stim\yellow.png,stim\gray.png,stim\gray.png,left,1,0,1,0,0,0,0,0,0,4,4,4,,,,,,,,,,,,,,,,,,,,,,,,,,,344.56580589996884,345.56710519996705,344.56580589996884,345.56710519996705,344.56580589996884,345.56710519996705,344.56580589996884,345.56710519996705,left,1,0.43622579996008426,344.56580589996884,None,344.56580589996884,None,344.56580589996884,345.0665472999681,344.56580589996884,345.0665472999681,344.56580589996884,345.0665472999681,344.56580589996884,345.0665472999681,344.56580589996884,None,,,,,,,,,,,,,,,,,,,,,,,,,,,,,,,,,,,,,,,,,,11009,001,2024_Jan_01_1645,nback,2021.2.3,60.46058877427872,
0-back,instructions\back-0.png,conditions\0back-p.xlsx,instructions\0-BACK.png,"(15, 8)",practice,0,1,stim\yellow.png,stim\gray.png,stim\gray.png,stim\gray.png,up,1,0,1,0,0,0,0,0,0,5,5,5,,,,,,,,,,,,,,,,,,,,,,,,,,,346.06840139999986,347.06938539998373,346.06840139999986,347.06938539998373,346.06840139999986,347.06938539998373,346.06840139999986,347.06938539998373,up,1,0.46953110001049936,346.06840139999986,None,346.06840139999986,None,346.06840139999986,346.56975299998885,346.06840139999986,346.56975299998885,346.06840139999986,346.56975299998885,346.06840139999986,346.56975299998885,346.06840139999986,None,,,,,,,,,,,,,,,,,,,,,,,,,,,,,,,,,,,,,,,,,,11009,001,2024_Jan_01_1645,nback,2021.2.3,60.46058877427872,
0-back,instructions\back-0.png,conditions\0back-p.xlsx,instructions\0-BACK.png,"(15, 8)",practice,0,4,stim\gray.png,stim\gray.png,stim\gray.png,stim\yellow.png,down,1,0,1,0,0,0,0,0,0,6,6,6,,,,,,,,,,,,,,,,,,,,,,,,,,,347.57006679999176,348.5719996999833,347.57006679999176,348.5719996999833,347.57006679999176,348.5719996999833,347.57006679999176,348.5719996999833,down,1,0.9439525000052527,347.57006679999176,None,347.57006679999176,None,347.57006679999176,348.0710420999676,347.57006679999176,348.0710420999676,347.57006679999176,348.0710420999676,347.57006679999176,348.0710420999676,347.57006679999176,None,,,,,,,,,,,,,,,,,,,,,,,,,,,,,,,,,,,,,,,,,,11009,001,2024_Jan_01_1645,nback,2021.2.3,60.46058877427872,
0-back,instructions\back-0.png,conditions\0back-p.xlsx,instructions\0-BACK.png,"(15, 8)",practice,0,3,stim\gray.png,stim\gray.png,stim\yellow.png,stim\gray.png,right,1,0,1,0,0,0,0,0,0,7,7,7,,,,,,,,,,,,,,,,,,,,,,,,,,,349.0556896000053,350.057438799995,349.0556896000053,350.057438799995,349.0556896000053,350.057438799995,349.0556896000053,350.057438799995,right,1,0.4663760000257753,349.0556896000053,None,349.0556896000053,None,349.0556896000053,349.5578543000156,349.0556896000053,349.5578543000156,349.0556896000053,349.5578543000156,349.0556896000053,349.5578543000156,349.0556896000053,None,,,,,,,,,,,,,,,,,,,,,,,,,,,,,,,,,,,,,,,,,,11009,001,2024_Jan_01_1645,nback,2021.2.3,60.46058877427872,
0-back,instructions\back-0.png,conditions\0back-p.xlsx,instructions\0-BACK.png,"(15, 8)",practice,0,3,stim\gray.png,stim\gray.png,stim\yellow.png,stim\gray.png,right,1,0,1,0,0,0,0,0,0,8,8,8,,,,,,,,,,,,,,,,,,,,,,,,,,,350.55782049999107,351.56056479999097,350.55782049999107,351.56056479999097,350.55782049999107,351.56056479999097,350.55782049999107,351.56056479999097,right,1,0.46025280002504587,350.55782049999107,None,350.55782049999107,None,350.55782049999107,351.0590000000084,350.55782049999107,351.0590000000084,350.55782049999107,351.0590000000084,350.55782049999107,351.0590000000084,350.55782049999107,None,,,,,,,,,,,,,,,,,,,,,,,,,,,,,,,,,,,,,,,,,,11009,001,2024_Jan_01_1645,nback,2021.2.3,60.46058877427872,
0-back,instructions\back-0.png,conditions\0back-p.xlsx,instructions\0-BACK.png,"(15, 8)",practice,0,4,stim\gray.png,stim\gray.png,stim\gray.png,stim\yellow.png,down,1,0,1,0,0,0,0,0,0,9,9,9,,,,,,,,,,,,,,,,,,,,,,,,,,,352.0601652999758,353.0616251999745,352.0601652999758,353.0616251999745,352.0601652999758,353.0616251999745,352.0601652999758,353.0616251999745,down,1,0.551087900006678,352.0601652999758,None,352.0601652999758,None,352.0601652999758,352.56136280001374,352.0601652999758,352.56136280001374,352.0601652999758,352.56136280001374,352.0601652999758,352.56136280001374,352.0601652999758,None,,,,,,,,,,,,,,,,,,,,,,,,,,,,,,,,,,,,,,,,,,11009,001,2024_Jan_01_1645,nback,2021.2.3,60.46058877427872,
0-back,instructions\back-0.png,conditions\0back-p.xlsx,instructions\0-BACK.png,"(15, 8)",practice,0,1,stim\yellow.png,stim\gray.png,stim\gray.png,stim\gray.png,up,1,0,1,0,0,0,0,0,0,10,10,10,,,,,,,,,,,,,,,,,,,,,,,,,,,353.5624575999682,354.5637888999772,353.5624575999682,354.5637888999772,353.5624575999682,354.5637888999772,353.5624575999682,354.5637888999772,up,1,0.6325850000139326,353.5624575999682,None,353.5624575999682,None,353.5624575999682,354.0632015999872,353.5624575999682,354.0632015999872,353.5624575999682,354.0632015999872,353.5624575999682,354.0632015999872,353.5624575999682,None,,,,,,,,,,,,,,,,,,,,,,,,,,,,,,,,,,,,,,,,,,11009,001,2024_Jan_01_1645,nback,2021.2.3,60.46058877427872,
0-back,instructions\back-0.png,conditions\0back-p.xlsx,instructions\0-BACK.png,"(15, 8)",practice,0,2,stim\gray.png,stim\yellow.png,stim\gray.png,stim\gray.png,left,1,0,1,0,0,0,0,0,0,11,11,11,,,,,,,,,,,,,,,,,,,,,,,,,,,355.0646778999944,356.06638799997745,355.0646778999944,356.06638799997745,355.0646778999944,356.06638799997745,355.0646778999944,356.06638799997745,left,1,0.42561850004130974,355.0646778999944,None,355.0646778999944,None,355.0646778999944,355.56601899996167,355.0646778999944,355.56601899996167,355.0646778999944,355.56601899996167,355.0646778999944,355.56601899996167,355.0646778999944,None,,,,,,,,,,,,,,,,,,,,,,,,,,,,,,,,,,,,,,,,,,11009,001,2024_Jan_01_1645,nback,2021.2.3,60.46058877427872,
0-back,instructions\back-0.png,conditions\0back-p.xlsx,instructions\0-BACK.png,"(15, 8)",practice,0,4,stim\gray.png,stim\gray.png,stim\gray.png,stim\yellow.png,down,1,0,1,0,0,0,0,0,0,12,12,12,,,,,,,,,,,,,,,,,,,,,,,,,,,356.5667034999933,357.5683333000052,356.5667034999933,357.5683333000052,356.5667034999933,357.5683333000052,356.5667034999933,357.5683333000052,down,1,0.4594152000499889,356.5667034999933,None,356.5667034999933,None,356.5667034999933,357.06764879997354,356.5667034999933,357.06764879997354,356.5667034999933,357.06764879997354,356.5667034999933,357.06764879997354,356.5667034999933,None,,,,,,,,,,,,,,,,,,,,,,,,,,,,,,,,,,,,,,,,,,11009,001,2024_Jan_01_1645,nback,2021.2.3,60.46058877427872,
0-back,instructions\back-0.png,conditions\0back-p.xlsx,instructions\0-BACK.png,"(15, 8)",practice,0,3,stim\gray.png,stim\gray.png,stim\yellow.png,stim\gray.png,right,1,0,1,0,0,0,0,0,0,13,13,13,,,,,,,,,,,,,,,,,,,,,,,,,,,358.069050399994,359.07065700000385,358.069050399994,359.07065700000385,358.069050399994,359.07065700000385,358.069050399994,359.07065700000385,right,1,0.32493179995799437,358.069050399994,None,358.069050399994,None,358.069050399994,358.5706391999847,358.069050399994,358.5706391999847,358.069050399994,358.5706391999847,358.069050399994,358.5706391999847,358.069050399994,None,,,,,,,,,,,,,,,,,,,,,,,,,,,,,,,,,,,,,,,,,,11009,001,2024_Jan_01_1645,nback,2021.2.3,60.46058877427872,
0-back,instructions\back-0.png,conditions\0back-p.xlsx,instructions\0-BACK.png,"(15, 8)",practice,0,1,stim\yellow.png,stim\gray.png,stim\gray.png,stim\gray.png,up,1,0,1,0,0,0,0,0,0,14,14,14,,,,,,,,,,,,,,,,,,,,,,,,,,,359.55529589997604,360.5569366000127,359.55529589997604,360.5569366000127,359.55529589997604,360.5569366000127,359.55529589997604,360.5569366000127,up,1,0.4790313999983482,359.55529589997604,None,359.55529589997604,None,359.55529589997604,360.0551687999978,359.55529589997604,360.0551687999978,359.55529589997604,360.0551687999978,359.55529589997604,360.0551687999978,359.55529589997604,None,,,,,,,,,,,,,,,,,,,,,,,,,,,,,,,,,,,,,,,,,,11009,001,2024_Jan_01_1645,nback,2021.2.3,60.46058877427872,
0-back,instructions\back-0.png,conditions\0back-p.xlsx,instructions\0-BACK.png,"(15, 8)",practice,0,2,stim\gray.png,stim\yellow.png,stim\gray.png,stim\gray.png,left,1,0,1,0,0,0,0,0,0,15,15,15,,,,,,,,,,,,,,,,,,,,,,,,,,,361.0572609999799,362.0588415999664,361.0572609999799,362.0588415999664,361.0572609999799,362.0588415999664,361.0572609999799,362.0588415999664,left,1,0.3607682000147179,361.0572609999799,None,361.0572609999799,None,361.0572609999799,361.55803680000827,361.0572609999799,361.55803680000827,361.0572609999799,361.55803680000827,361.0572609999799,361.55803680000827,361.0572609999799,None,,,,,,,,,,,,,,,,,,,,,,,,,,,,,,,,,,,,,,,,,,11009,001,2024_Jan_01_1645,nback,2021.2.3,60.46058877427872,
0-back,instructions\back-0.png,conditions\0back-p.xlsx,instructions\0-BACK.png,"(15, 8)",practice,0,3,stim\gray.png,stim\gray.png,stim\yellow.png,stim\gray.png,right,1,0,1,0,0,0,0,0,0,16,16,16,,,,,,,,,,,,,,,,,,,,,,,,,,,362.5598938000039,363.56049599999096,362.5598938000039,363.56049599999096,362.5598938000039,363.56049599999096,362.5598938000039,363.56049599999096,right,1,0.5701127000502311,362.5598938000039,None,362.5598938000039,None,362.5598938000039,363.05995219998294,362.5598938000039,363.05995219998294,362.5598938000039,363.05995219998294,362.5598938000039,363.05995219998294,362.5598938000039,None,,,,,,,,,,,,,,,,,,,,,,,,,,,,,,,,,,,,,,,,,,11009,001,2024_Jan_01_1645,nback,2021.2.3,60.46058877427872,
0-back,instructions\back-0.png,conditions\0back-p.xlsx,instructions\0-BACK.png,"(15, 8)",practice,0,1,stim\yellow.png,stim\gray.png,stim\gray.png,stim\gray.png,up,1,0,1,0,0,0,0,0,0,17,17,17,,,,,,,,,,,,,,,,,,,,,,,,,,,364.06138269999065,365.063107999973,364.06138269999065,365.063107999973,364.06138269999065,365.063107999973,364.06138269999065,365.063107999973,up,1,0.5411336999968626,364.06138269999065,None,364.06138269999065,None,364.06138269999065,364.5627999000135,364.06138269999065,364.5627999000135,364.06138269999065,364.5627999000135,364.06138269999065,364.5627999000135,364.06138269999065,None,,,,,,,,,,,,,,,,,,,,,,,,,,,,,,,,,,,,,,,,,,11009,001,2024_Jan_01_1645,nback,2021.2.3,60.46058877427872,
0-back,instructions\back-0.png,conditions\0back-p.xlsx,instructions\0-BACK.png,"(15, 8)",practice,0,4,stim\gray.png,stim\gray.png,stim\gray.png,stim\yellow.png,down,1,0,1,0,0,0,0,0,0,18,18,18,,,,,,,,,,,,,,,,,,,,,,,,,,,365.56347910000477,366.5652890999918,365.56347910000477,366.5652890999918,365.56347910000477,366.5652890999918,365.56347910000477,366.5652890999918,down,1,0.36686330003431067,365.56347910000477,None,365.56347910000477,None,365.56347910000477,366.064320400008,365.56347910000477,366.064320400008,365.56347910000477,366.064320400008,365.56347910000477,366.064320400008,365.56347910000477,None,,,,,,,,,,,,,,,,,,,,,,,,,,,,,,,,,,,,,,,,,,11009,001,2024_Jan_01_1645,nback,2021.2.3,60.46058877427872,
0-back,instructions\back-0.png,conditions\0back-p.xlsx,instructions\0-BACK.png,"(15, 8)",practice,0,2,stim\gray.png,stim\yellow.png,stim\gray.png,stim\gray.png,left,1,0,1,0,0,0,0,0,0,19,19,19,,,,,,,,,,,,,,,,,,,,,,,,,,,367.0658665999654,368.067640299967,367.0658665999654,368.067640299967,367.0658665999654,368.067640299967,367.0658665999654,368.067640299967,left,1,0.39204120001522824,367.0658665999654,None,367.0658665999654,None,367.0658665999654,367.56648869998753,367.0658665999654,367.56648869998753,367.0658665999654,367.56648869998753,367.0658665999654,367.56648869998753,367.0658665999654,None,,,,,,,,,,,,,,,,,,,,,,,,,,,,,,,,,,,,,,,,,,11009,001,2024_Jan_01_1645,nback,2021.2.3,60.46058877427872,
0-back,instructions\back-0.png,conditions\0back-p.xlsx,instructions\0-BACK.png,"(15, 8)",,,,,,,,,1,0,1,0,0,0,0,0,,,,,,,,,,,,,,,,,,,,,,,,,,,,,,,,,,,,,,,,,,,,,,,,,,,,,,,,,,,,,,,,,,,,,,,,,,,,,,,,,,,,,,,,,,,,,,,,,11009,001,2024_Jan_01_1645,nback,2021.2.3,60.46058877427872,
1-back,instructions\back-1.png,conditions\1back-p.xlsx,instructions\1-BACK.png,"(25, 15)",practice,1,1,stim\yellow.png,stim\gray.png,stim\gray.png,stim\gray.png,None,1,0,1,0,0,1,1,1,0,0,0,0,,,,,,,,,,,,,,,,,368.7517768999678,None,space,6.14621860004263,368.7517768999678,None,375.1442158999853,379.65235009999014,379.6189221999957,None,379.95193809998455,380.95295979996445,379.95193809998455,380.95295979996445,379.95193809998455,380.95295979996445,379.95193809998455,380.95295979996445,None,1,,379.95193809998455,None,379.95193809998455,None,379.95193809998455,380.4522801999701,379.95193809998455,380.4522801999701,379.95193809998455,380.4522801999701,379.95193809998455,380.4522801999701,379.95193809998455,None,,,,,,,,,,,,,,,,,,,,,,,,,,,,,,,,,,,,,,,,,,11009,001,2024_Jan_01_1645,nback,2021.2.3,60.46058877427872,
1-back,instructions\back-1.png,conditions\1back-p.xlsx,instructions\1-BACK.png,"(25, 15)",practice,1,2,stim\gray.png,stim\yellow.png,stim\gray.png,stim\gray.png,up,1,0,1,0,0,1,1,1,0,1,1,1,,,,,,,,,,,,,,,,,,,,,,,,,,,381.43686859996524,382.4389355999883,381.43686859996524,382.4389355999883,381.43686859996524,382.4389355999883,381.43686859996524,382.4389355999883,right,0,1.0137335000326857,381.43686859996524,None,381.43686859996524,None,381.43686859996524,381.93817689997377,381.43686859996524,381.93817689997377,381.43686859996524,381.93817689997377,381.43686859996524,381.93817689997377,381.43686859996524,None,,,,,,,,,,,,,,,,,,,,,,,,,,,,,,,,,,,,,,,,,,11009,001,2024_Jan_01_1645,nback,2021.2.3,60.46058877427872,
1-back,instructions\back-1.png,conditions\1back-p.xlsx,instructions\1-BACK.png,"(25, 15)",practice,1,3,stim\gray.png,stim\gray.png,stim\yellow.png,stim\gray.png,left,1,0,1,0,0,1,1,1,0,2,2,2,,,,,,,,,,,,,,,,,,,,,,,,,,,382.9400973999873,383.9416687999619,382.9400973999873,383.9416687999619,382.9400973999873,383.9416687999619,382.9400973999873,383.9416687999619,None,0,,382.9400973999873,None,382.9400973999873,None,382.9400973999873,383.4401222000015,382.9400973999873,383.4401222000015,382.9400973999873,383.4401222000015,382.9400973999873,383.4401222000015,382.9400973999873,None,,,,,,,,,,,,,,,,,,,,,,,,,,,,,,,,,,,,,,,,,,11009,001,2024_Jan_01_1645,nback,2021.2.3,60.46058877427872,
1-back,instructions\back-1.png,conditions\1back-p.xlsx,instructions\1-BACK.png,"(25, 15)",practice,1,4,stim\gray.png,stim\gray.png,stim\gray.png,stim\yellow.png,right,1,0,1,0,0,1,1,1,0,3,3,3,,,,,,,,,,,,,,,,,,,,,,,,,,,384.44133780000266,385.4432492000051,384.44133780000266,385.4432492000051,384.44133780000266,385.4432492000051,384.44133780000266,385.4432492000051,None,0,,384.44133780000266,None,384.44133780000266,None,384.44133780000266,384.9429050000035,384.44133780000266,384.9429050000035,384.44133780000266,384.9429050000035,384.44133780000266,384.9429050000035,384.44133780000266,None,,,,,,,,,,,,,,,,,,,,,,,,,,,,,,,,,,,,,,,,,,11009,001,2024_Jan_01_1645,nback,2021.2.3,60.46058877427872,
1-back,instructions\back-1.png,conditions\1back-p.xlsx,instructions\1-BACK.png,"(25, 15)",practice,1,2,stim\gray.png,stim\yellow.png,stim\gray.png,stim\gray.png,down,1,0,1,0,0,1,1,1,0,4,4,4,,,,,,,,,,,,,,,,,,,,,,,,,,,385.94345319998683,386.945851699973,385.94345319998683,386.945851699973,385.94345319998683,386.945851699973,385.94345319998683,386.945851699973,right,0,1.2831042999750935,385.94345319998683,None,385.94345319998683,None,385.94345319998683,386.44456179998815,385.94345319998683,386.44456179998815,385.94345319998683,386.44456179998815,385.94345319998683,386.44456179998815,385.94345319998683,None,,,,,,,,,,,,,,,,,,,,,,,,,,,,,,,,,,,,,,,,,,11009,001,2024_Jan_01_1645,nback,2021.2.3,60.46058877427872,
1-back,instructions\back-1.png,conditions\1back-p.xlsx,instructions\1-BACK.png,"(25, 15)",practice,1,1,stim\yellow.png,stim\gray.png,stim\gray.png,stim\gray.png,left,1,0,1,0,0,1,1,1,0,5,5,5,,,,,,,,,,,,,,,,,,,,,,,,,,,387.44728949997807,388.4473043999751,387.44728949997807,388.4473043999751,387.44728949997807,388.4473043999751,387.44728949997807,388.4473043999751,up,0,0.5313122000079602,387.44728949997807,None,387.44728949997807,None,387.44728949997807,387.9470746999723,387.44728949997807,387.9470746999723,387.44728949997807,387.9470746999723,387.44728949997807,387.9470746999723,387.44728949997807,None,,,,,,,,,,,,,,,,,,,,,,,,,,,,,,,,,,,,,,,,,,11009,001,2024_Jan_01_1645,nback,2021.2.3,60.46058877427872,
1-back,instructions\back-1.png,conditions\1back-p.xlsx,instructions\1-BACK.png,"(25, 15)",practice,1,4,stim\gray.png,stim\gray.png,stim\gray.png,stim\yellow.png,up,1,0,1,0,0,1,1,1,0,6,6,6,,,,,,,,,,,,,,,,,,,,,,,,,,,388.9315790999681,389.9342022999772,388.9315790999681,389.9342022999772,388.9315790999681,389.9342022999772,388.9315790999681,389.9342022999772,up,1,0.8704937999718823,388.9315790999681,None,388.9315790999681,None,388.9315790999681,389.43243809998967,388.9315790999681,389.43243809998967,388.9315790999681,389.43243809998967,388.9315790999681,389.43243809998967,388.9315790999681,None,,,,,,,,,,,,,,,,,,,,,,,,,,,,,,,,,,,,,,,,,,11009,001,2024_Jan_01_1645,nback,2021.2.3,60.46058877427872,
1-back,instructions\back-1.png,conditions\1back-p.xlsx,instructions\1-BACK.png,"(25, 15)",practice,1,3,stim\gray.png,stim\gray.png,stim\yellow.png,stim\gray.png,down,1,0,1,0,0,1,1,1,0,7,7,7,,,,,,,,,,,,,,,,,,,,,,,,,,,390.43376569997054,391.43505649996223,390.43376569997054,391.43505649996223,390.43376569997054,391.43505649996223,390.43376569997054,391.43505649996223,None,0,,390.43376569997054,None,390.43376569997054,None,390.43376569997054,390.93456099997275,390.43376569997054,390.93456099997275,390.43376569997054,390.93456099997275,390.43376569997054,390.93456099997275,390.43376569997054,None,,,,,,,,,,,,,,,,,,,,,,,,,,,,,,,,,,,,,,,,,,11009,001,2024_Jan_01_1645,nback,2021.2.3,60.46058877427872,
1-back,instructions\back-1.png,conditions\1back-p.xlsx,instructions\1-BACK.png,"(25, 15)",practice,1,3,stim\gray.png,stim\gray.png,stim\yellow.png,stim\gray.png,right,1,0,1,0,0,1,1,1,0,8,8,8,,,,,,,,,,,,,,,,,,,,,,,,,,,391.93617910001194,392.93796429998474,391.93617910001194,392.93796429998474,391.93617910001194,392.93796429998474,391.93617910001194,392.93796429998474,None,0,,391.93617910001194,None,391.93617910001194,None,391.93617910001194,392.43722119997256,391.93617910001194,392.43722119997256,391.93617910001194,392.43722119997256,391.93617910001194,392.43722119997256,391.93617910001194,None,,,,,,,,,,,,,,,,,,,,,,,,,,,,,,,,,,,,,,,,,,11009,001,2024_Jan_01_1645,nback,2021.2.3,60.46058877427872,
1-back,instructions\back-1.png,conditions\1back-p.xlsx,instructions\1-BACK.png,"(25, 15)",practice,1,4,stim\gray.png,stim\gray.png,stim\gray.png,stim\yellow.png,right,1,0,1,0,0,1,1,1,0,9,9,9,,,,,,,,,,,,,,,,,,,,,,,,,,,393.4379670000053,394.4396795000066,393.4379670000053,394.4396795000066,393.4379670000053,394.4396795000066,393.4379670000053,394.4396795000066,None,0,,393.4379670000053,None,393.4379670000053,None,393.4379670000053,393.9397117999615,393.4379670000053,393.9397117999615,393.4379670000053,393.9397117999615,393.4379670000053,393.9397117999615,393.4379670000053,None,,,,,,,,,,,,,,,,,,,,,,,,,,,,,,,,,,,,,,,,,,11009,001,2024_Jan_01_1645,nback,2021.2.3,60.46058877427872,
1-back,instructions\back-1.png,conditions\1back-p.xlsx,instructions\1-BACK.png,"(25, 15)",practice,1,1,stim\yellow.png,stim\gray.png,stim\gray.png,stim\gray.png,down,1,0,1,0,0,1,1,1,0,10,10,10,,,,,,,,,,,,,,,,,,,,,,,,,,,394.9405647999956,395.941692399967,394.9405647999956,395.941692399967,394.9405647999956,395.941692399967,394.9405647999956,395.941692399967,None,0,,394.9405647999956,None,394.9405647999956,None,394.9405647999956,395.44109360000584,394.9405647999956,395.44109360000584,394.9405647999956,395.44109360000584,394.9405647999956,395.44109360000584,394.9405647999956,None,,,,,,,,,,,,,,,,,,,,,,,,,,,,,,,,,,,,,,,,,,11009,001,2024_Jan_01_1645,nback,2021.2.3,60.46058877427872,
1-back,instructions\back-1.png,conditions\1back-p.xlsx,instructions\1-BACK.png,"(25, 15)",practice,1,2,stim\gray.png,stim\yellow.png,stim\gray.png,stim\gray.png,up,1,0,1,0,0,1,1,1,0,11,11,11,,,,,,,,,,,,,,,,,,,,,,,,,,,396.44275310001103,397.4444819999626,396.44275310001103,397.4444819999626,396.44275310001103,397.4444819999626,396.44275310001103,397.4444819999626,None,0,,396.44275310001103,None,396.44275310001103,None,396.44275310001103,396.944308599981,396.44275310001103,396.944308599981,396.44275310001103,396.944308599981,396.44275310001103,396.944308599981,396.44275310001103,None,,,,,,,,,,,,,,,,,,,,,,,,,,,,,,,,,,,,,,,,,,11009,001,2024_Jan_01_1645,nback,2021.2.3,60.46058877427872,
1-back,instructions\back-1.png,conditions\1back-p.xlsx,instructions\1-BACK.png,"(25, 15)",practice,1,4,stim\gray.png,stim\gray.png,stim\gray.png,stim\yellow.png,left,1,0,1,0,0,1,1,1,0,12,12,12,,,,,,,,,,,,,,,,,,,,,,,,,,,397.94454369996674,398.9465771999676,397.94454369996674,398.9465771999676,397.94454369996674,398.9465771999676,397.94454369996674,398.9465771999676,None,0,,397.94454369996674,None,397.94454369996674,None,397.94454369996674,398.4455130000133,397.94454369996674,398.4455130000133,397.94454369996674,398.4455130000133,397.94454369996674,398.4455130000133,397.94454369996674,None,,,,,,,,,,,,,,,,,,,,,,,,,,,,,,,,,,,,,,,,,,11009,001,2024_Jan_01_1645,nback,2021.2.3,60.46058877427872,
1-back,instructions\back-1.png,conditions\1back-p.xlsx,instructions\1-BACK.png,"(25, 15)",practice,1,3,stim\gray.png,stim\gray.png,stim\yellow.png,stim\gray.png,down,1,0,1,0,0,1,1,1,0,13,13,13,,,,,,,,,,,,,,,,,,,,,,,,,,,399.4304238000186,400.43228080001427,399.4304238000186,400.43228080001427,399.4304238000186,400.43228080001427,399.4304238000186,400.43228080001427,right,0,1.283671899989713,399.4304238000186,None,399.4304238000186,None,399.4304238000186,399.9310532999807,399.4304238000186,399.9310532999807,399.4304238000186,399.9310532999807,399.4304238000186,399.9310532999807,399.4304238000186,None,,,,,,,,,,,,,,,,,,,,,,,,,,,,,,,,,,,,,,,,,,11009,001,2024_Jan_01_1645,nback,2021.2.3,60.46058877427872,
1-back,instructions\back-1.png,conditions\1back-p.xlsx,instructions\1-BACK.png,"(25, 15)",practice,1,1,stim\yellow.png,stim\gray.png,stim\gray.png,stim\gray.png,right,1,0,1,0,0,1,1,1,0,14,14,14,,,,,,,,,,,,,,,,,,,,,,,,,,,400.9327116999775,401.9355450000148,400.9327116999775,401.9355450000148,400.9327116999775,401.9355450000148,400.9327116999775,401.9355450000148,up,0,1.285949699988123,400.9327116999775,None,400.9327116999775,None,400.9327116999775,401.43346989998827,400.9327116999775,401.43346989998827,400.9327116999775,401.43346989998827,400.9327116999775,401.43346989998827,400.9327116999775,None,,,,,,,,,,,,,,,,,,,,,,,,,,,,,,,,,,,,,,,,,,11009,001,2024_Jan_01_1645,nback,2021.2.3,60.46058877427872,
1-back,instructions\back-1.png,conditions\1back-p.xlsx,instructions\1-BACK.png,"(25, 15)",practice,1,2,stim\gray.png,stim\yellow.png,stim\gray.png,stim\gray.png,up,1,0,1,0,0,1,1,1,0,15,15,15,,,,,,,,,,,,,,,,,,,,,,,,,,,402.43476669996744,403.43672270001844,402.43476669996744,403.43672270001844,402.43476669996744,403.43672270001844,402.43476669996744,403.43672270001844,None,0,,402.43476669996744,None,402.43476669996744,None,402.43476669996744,402.9359548999928,402.43476669996744,402.9359548999928,402.43476669996744,402.9359548999928,402.43476669996744,402.9359548999928,402.43476669996744,None,,,,,,,,,,,,,,,,,,,,,,,,,,,,,,,,,,,,,,,,,,11009,001,2024_Jan_01_1645,nback,2021.2.3,60.46058877427872,
1-back,instructions\back-1.png,conditions\1back-p.xlsx,instructions\1-BACK.png,"(25, 15)",practice,1,3,stim\gray.png,stim\gray.png,stim\yellow.png,stim\gray.png,left,1,0,1,0,0,1,1,1,0,16,16,16,,,,,,,,,,,,,,,,,,,,,,,,,,,403.9370640999987,404.9386483000126,403.9370640999987,404.9386483000126,403.9370640999987,404.9386483000126,403.9370640999987,404.9386483000126,left,1,0.3452165999915451,403.9370640999987,None,403.9370640999987,None,403.9370640999987,404.4378582999925,403.9370640999987,404.4378582999925,403.9370640999987,404.4378582999925,403.9370640999987,404.4378582999925,403.9370640999987,None,,,,,,,,,,,,,,,,,,,,,,,,,,,,,,,,,,,,,,,,,,11009,001,2024_Jan_01_1645,nback,2021.2.3,60.46058877427872,
1-back,instructions\back-1.png,conditions\1back-p.xlsx,instructions\1-BACK.png,"(25, 15)",practice,1,1,stim\yellow.png,stim\gray.png,stim\gray.png,stim\gray.png,right,1,0,1,0,0,1,1,1,0,17,17,17,,,,,,,,,,,,,,,,,,,,,,,,,,,405.4392730999971,406.4412384000025,405.4392730999971,406.4412384000025,405.4392730999971,406.4412384000025,405.4392730999971,406.4412384000025,right,1,0.3633249999838881,405.4392730999971,None,405.4392730999971,None,405.4392730999971,405.9401580999838,405.4392730999971,405.9401580999838,405.4392730999971,405.9401580999838,405.4392730999971,405.9401580999838,405.4392730999971,None,,,,,,,,,,,,,,,,,,,,,,,,,,,,,,,,,,,,,,,,,,11009,001,2024_Jan_01_1645,nback,2021.2.3,60.46058877427872,
1-back,instructions\back-1.png,conditions\1back-p.xlsx,instructions\1-BACK.png,"(25, 15)",practice,1,4,stim\gray.png,stim\gray.png,stim\gray.png,stim\yellow.png,up,1,0,1,0,0,1,1,1,0,18,18,18,,,,,,,,,,,,,,,,,,,,,,,,,,,406.94160720001673,407.9439079000149,406.94160720001673,407.9439079000149,406.94160720001673,407.9439079000149,406.94160720001673,407.9439079000149,up,1,0.22153109998907894,406.94160720001673,None,406.94160720001673,None,406.94160720001673,407.4425164000131,406.94160720001673,407.4425164000131,406.94160720001673,407.4425164000131,406.94160720001673,407.4425164000131,406.94160720001673,None,,,,,,,,,,,,,,,,,,,,,,,,,,,,,,,,,,,,,,,,,,11009,001,2024_Jan_01_1645,nback,2021.2.3,60.46058877427872,
1-back,instructions\back-1.png,conditions\1back-p.xlsx,instructions\1-BACK.png,"(25, 15)",practice,1,2,stim\gray.png,stim\yellow.png,stim\gray.png,stim\gray.png,down,1,0,1,0,0,1,1,1,0,19,19,19,,,,,,,,,,,,,,,,,,,,,,,,,,,408.44371089997003,409.44532299996354,408.44371089997003,409.44532299996354,408.44371089997003,409.44532299996354,408.44371089997003,409.44532299996354,down,1,0.12656499998411164,408.44371089997003,None,408.44371089997003,None,408.44371089997003,408.94542569998885,408.44371089997003,408.94542569998885,408.44371089997003,408.94542569998885,408.44371089997003,408.94542569998885,408.44371089997003,None,,,,,,,,,,,,,,,,,,,,,,,,,,,,,,,,,,,,,,,,,,11009,001,2024_Jan_01_1645,nback,2021.2.3,60.46058877427872,
1-back,instructions\back-1.png,conditions\1back-p.xlsx,instructions\1-BACK.png,"(25, 15)",,,,,,,,,1,0,1,0,0,1,1,1,,,,,,,,,,,,,,,,,,,,,,,,,,,,,,,,,,,,,,,,,,,,,,,,,,,,,,,,,,,,,,,,,,,,,,,,,,,,,,,,,,,,,,,,,,,,,,,,,11009,001,2024_Jan_01_1645,nback,2021.2.3,60.46058877427872,
2-back,instructions\back-2.png,conditions\2back-p.xlsx,instructions\2-BACK.png,"(25, 15)",practice,2,1,stim\yellow.png,stim\gray.png,stim\gray.png,stim\gray.png,None,1,0,1,0,0,2,2,2,0,0,0,0,,,,,,,,,,,,,,,,,410.0960522000096,None,space,16.16207309998572,410.0960522000096,None,426.4702793000033,430.9774182999972,430.9111267999979,None,431.3112228999962,432.31284349999623,431.3112228999962,432.31284349999623,431.3112228999962,432.31284349999623,431.3112228999962,432.31284349999623,None,1,,431.3112228999962,None,431.3112228999962,None,431.3112228999962,431.8118524000165,431.3112228999962,431.8118524000165,431.3112228999962,431.8118524000165,431.3112228999962,431.8118524000165,431.3112228999962,None,,,,,,,,,,,,,,,,,,,,,,,,,,,,,,,,,,,,,,,,,,11009,001,2024_Jan_01_1645,nback,2021.2.3,60.46058877427872,
2-back,instructions\back-2.png,conditions\2back-p.xlsx,instructions\2-BACK.png,"(25, 15)",practice,2,2,stim\gray.png,stim\yellow.png,stim\gray.png,stim\gray.png,None,1,0,1,0,0,2,2,2,0,1,1,1,,,,,,,,,,,,,,,,,,,,,,,,,,,432.7965512999799,433.79827019997174,432.7965512999799,433.79827019997174,432.7965512999799,433.79827019997174,432.7965512999799,433.79827019997174,up,0,1.3899843000108376,432.7965512999799,None,432.7965512999799,None,432.7965512999799,433.29760679998435,432.7965512999799,433.29760679998435,432.7965512999799,433.29760679998435,432.7965512999799,433.29760679998435,432.7965512999799,None,,,,,,,,,,,,,,,,,,,,,,,,,,,,,,,,,,,,,,,,,,11009,001,2024_Jan_01_1645,nback,2021.2.3,60.46058877427872,
2-back,instructions\back-2.png,conditions\2back-p.xlsx,instructions\2-BACK.png,"(25, 15)",practice,2,3,stim\gray.png,stim\gray.png,stim\yellow.png,stim\gray.png,up,1,0,1,0,0,2,2,2,0,2,2,2,,,,,,,,,,,,,,,,,,,,,,,,,,,434.29934179998236,435.3003729999764,434.29934179998236,435.3003729999764,434.29934179998236,435.3003729999764,434.29934179998236,435.3003729999764,left,0,1.3993627000018023,434.29934179998236,None,434.29934179998236,None,434.29934179998236,434.7996208000113,434.29934179998236,434.7996208000113,434.29934179998236,434.7996208000113,434.29934179998236,434.7996208000113,434.29934179998236,None,,,,,,,,,,,,,,,,,,,,,,,,,,,,,,,,,,,,,,,,,,11009,001,2024_Jan_01_1645,nback,2021.2.3,60.46058877427872,
2-back,instructions\back-2.png,conditions\2back-p.xlsx,instructions\2-BACK.png,"(25, 15)",practice,2,4,stim\gray.png,stim\gray.png,stim\gray.png,stim\yellow.png,left,1,0,1,0,0,2,2,2,0,3,3,3,,,,,,,,,,,,,,,,,,,,,,,,,,,435.8007840999635,436.80281989998184,435.8007840999635,436.80281989998184,435.8007840999635,436.80281989998184,435.8007840999635,436.80281989998184,None,0,,435.8007840999635,None,435.8007840999635,None,435.8007840999635,436.3017557999701,435.8007840999635,436.3017557999701,435.8007840999635,436.3017557999701,435.8007840999635,436.3017557999701,435.8007840999635,None,,,,,,,,,,,,,,,,,,,,,,,,,,,,,,,,,,,,,,,,,,11009,001,2024_Jan_01_1645,nback,2021.2.3,60.46058877427872,
2-back,instructions\back-2.png,conditions\2back-p.xlsx,instructions\2-BACK.png,"(25, 15)",practice,2,2,stim\gray.png,stim\yellow.png,stim\gray.png,stim\gray.png,right,1,0,1,0,0,2,2,2,0,4,4,4,,,,,,,,,,,,,,,,,,,,,,,,,,,437.303864699963,438.30471449997276,437.303864699963,438.30471449997276,437.303864699963,438.30471449997276,437.303864699963,438.30471449997276,down,0,1.2353175999596715,437.303864699963,None,437.303864699963,None,437.303864699963,437.8045837999671,437.303864699963,437.8045837999671,437.303864699963,437.8045837999671,437.303864699963,437.8045837999671,437.303864699963,None,,,,,,,,,,,,,,,,,,,,,,,,,,,,,,,,,,,,,,,,,,11009,001,2024_Jan_01_1645,nback,2021.2.3,60.46058877427872,
2-back,instructions\back-2.png,conditions\2back-p.xlsx,instructions\2-BACK.png,"(25, 15)",practice,2,1,stim\yellow.png,stim\gray.png,stim\gray.png,stim\gray.png,down,1,0,1,0,0,2,2,2,0,5,5,5,,,,,,,,,,,,,,,,,,,,,,,,,,,438.8054051999934,439.80725449998863,438.8054051999934,439.80725449998863,438.8054051999934,439.80725449998863,438.8054051999934,439.80725449998863,left,0,1.2608759999857284,438.8054051999934,None,438.8054051999934,None,438.8054051999934,439.3067746000015,438.8054051999934,439.3067746000015,438.8054051999934,439.3067746000015,438.8054051999934,439.3067746000015,438.8054051999934,None,,,,,,,,,,,,,,,,,,,,,,,,,,,,,,,,,,,,,,,,,,11009,001,2024_Jan_01_1645,nback,2021.2.3,60.46058877427872,
2-back,instructions\back-2.png,conditions\2back-p.xlsx,instructions\2-BACK.png,"(25, 15)",practice,2,4,stim\gray.png,stim\gray.png,stim\gray.png,stim\yellow.png,left,1,0,1,0,0,2,2,2,0,6,6,6,,,,,,,,,,,,,,,,,,,,,,,,,,,440.29134609998437,441.29308319999836,440.29134609998437,441.29308319999836,440.29134609998437,441.29308319999836,440.29134609998437,441.29308319999836,up,0,1.4630940000060946,440.29134609998437,None,440.29134609998437,None,440.29134609998437,440.79255459998967,440.29134609998437,440.79255459998967,440.29134609998437,440.79255459998967,440.29134609998437,440.79255459998967,440.29134609998437,None,,,,,,,,,,,,,,,,,,,,,,,,,,,,,,,,,,,,,,,,,,11009,001,2024_Jan_01_1645,nback,2021.2.3,60.46058877427872,
2-back,instructions\back-2.png,conditions\2back-p.xlsx,instructions\2-BACK.png,"(25, 15)",practice,2,3,stim\gray.png,stim\gray.png,stim\yellow.png,stim\gray.png,up,1,0,1,0,0,2,2,2,0,7,7,7,,,,,,,,,,,,,,,,,,,,,,,,,,,441.7931671999977,442.79537559999153,441.7931671999977,442.79537559999153,441.7931671999977,442.79537559999153,441.7931671999977,442.79537559999153,None,0,,441.7931671999977,None,441.7931671999977,None,441.7931671999977,442.2938758999808,441.7931671999977,442.2938758999808,441.7931671999977,442.2938758999808,441.7931671999977,442.2938758999808,441.7931671999977,None,,,,,,,,,,,,,,,,,,,,,,,,,,,,,,,,,,,,,,,,,,11009,001,2024_Jan_01_1645,nback,2021.2.3,60.46058877427872,
2-back,instructions\back-2.png,conditions\2back-p.xlsx,instructions\2-BACK.png,"(25, 15)",practice,2,3,stim\gray.png,stim\gray.png,stim\yellow.png,stim\gray.png,down,1,0,1,0,0,2,2,2,0,8,8,8,,,,,,,,,,,,,,,,,,,,,,,,,,,443.29546170000685,444.2968788999715,443.29546170000685,444.2968788999715,443.29546170000685,444.2968788999715,443.29546170000685,444.2968788999715,None,0,,443.29546170000685,None,443.29546170000685,None,443.29546170000685,443.796669000003,443.29546170000685,443.796669000003,443.29546170000685,443.796669000003,443.29546170000685,443.796669000003,443.29546170000685,None,,,,,,,,,,,,,,,,,,,,,,,,,,,,,,,,,,,,,,,,,,11009,001,2024_Jan_01_1645,nback,2021.2.3,60.46058877427872,
2-back,instructions\back-2.png,conditions\2back-p.xlsx,instructions\2-BACK.png,"(25, 15)",practice,2,4,stim\gray.png,stim\gray.png,stim\gray.png,stim\yellow.png,right,1,0,1,0,0,2,2,2,0,9,9,9,,,,,,,,,,,,,,,,,,,,,,,,,,,444.7983904000139,445.7997031999985,444.7983904000139,445.7997031999985,444.7983904000139,445.7997031999985,444.7983904000139,445.7997031999985,None,0,,444.7983904000139,None,444.7983904000139,None,444.7983904000139,445.2990135999862,444.7983904000139,445.2990135999862,444.7983904000139,445.2990135999862,444.7983904000139,445.2990135999862,444.7983904000139,None,,,,,,,,,,,,,,,,,,,,,,,,,,,,,,,,,,,,,,,,,,11009,001,2024_Jan_01_1645,nback,2021.2.3,60.46058877427872,
2-back,instructions\back-2.png,conditions\2back-p.xlsx,instructions\2-BACK.png,"(25, 15)",practice,2,1,stim\yellow.png,stim\gray.png,stim\gray.png,stim\gray.png,right,1,0,1,0,0,2,2,2,0,10,10,10,,,,,,,,,,,,,,,,,,,,,,,,,,,446.29984789999435,447.3020499999984,446.29984789999435,447.3020499999984,446.29984789999435,447.3020499999984,446.29984789999435,447.3020499999984,None,0,,446.29984789999435,None,446.29984789999435,None,446.29984789999435,446.80055189999985,446.29984789999435,446.80055189999985,446.29984789999435,446.80055189999985,446.29984789999435,446.80055189999985,446.29984789999435,None,,,,,,,,,,,,,,,,,,,,,,,,,,,,,,,,,,,,,,,,,,11009,001,2024_Jan_01_1645,nback,2021.2.3,60.46058877427872,
2-back,instructions\back-2.png,conditions\2back-p.xlsx,instructions\2-BACK.png,"(25, 15)",practice,2,2,stim\gray.png,stim\yellow.png,stim\gray.png,stim\gray.png,down,1,0,1,0,0,2,2,2,0,11,11,11,,,,,,,,,,,,,,,,,,,,,,,,,,,447.802071299986,448.8035657000146,447.802071299986,448.8035657000146,447.802071299986,448.8035657000146,447.802071299986,448.8035657000146,up,0,0.10435280000092462,447.802071299986,None,447.802071299986,None,447.802071299986,448.3026955999667,447.802071299986,448.3026955999667,447.802071299986,448.3026955999667,447.802071299986,448.3026955999667,447.802071299986,None,,,,,,,,,,,,,,,,,,,,,,,,,,,,,,,,,,,,,,,,,,11009,001,2024_Jan_01_1645,nback,2021.2.3,60.46058877427872,
2-back,instructions\back-2.png,conditions\2back-p.xlsx,instructions\2-BACK.png,"(25, 15)",practice,2,4,stim\gray.png,stim\gray.png,stim\gray.png,stim\yellow.png,up,1,0,1,0,0,2,2,2,0,12,12,12,,,,,,,,,,,,,,,,,,,,,,,,,,,449.3043760000146,450.30639059998794,449.3043760000146,450.30639059998794,449.3043760000146,450.30639059998794,449.3043760000146,450.30639059998794,up,1,0.6022009999724105,449.3043760000146,None,449.3043760000146,None,449.3043760000146,449.8056486999849,449.3043760000146,449.8056486999849,449.3043760000146,449.8056486999849,449.3043760000146,449.8056486999849,449.3043760000146,None,,,,,,,,,,,,,,,,,,,,,,,,,,,,,,,,,,,,,,,,,,11009,001,2024_Jan_01_1645,nback,2021.2.3,60.46058877427872,
2-back,instructions\back-2.png,conditions\2back-p.xlsx,instructions\2-BACK.png,"(25, 15)",practice,2,3,stim\gray.png,stim\gray.png,stim\yellow.png,stim\gray.png,left,1,0,1,0,0,2,2,2,0,13,13,13,,,,,,,,,,,,,,,,,,,,,,,,,,,450.80653339996934,451.8082454999676,450.80653339996934,451.8082454999676,450.80653339996934,451.8082454999676,450.80653339996934,451.8082454999676,None,0,,450.80653339996934,None,450.80653339996934,None,450.80653339996934,451.3075370999868,450.80653339996934,451.3075370999868,450.80653339996934,451.3075370999868,450.80653339996934,451.3075370999868,450.80653339996934,None,,,,,,,,,,,,,,,,,,,,,,,,,,,,,,,,,,,,,,,,,,11009,001,2024_Jan_01_1645,nback,2021.2.3,60.46058877427872,
2-back,instructions\back-2.png,conditions\2back-p.xlsx,instructions\2-BACK.png,"(25, 15)",practice,2,1,stim\yellow.png,stim\gray.png,stim\gray.png,stim\gray.png,down,1,0,1,0,0,2,2,2,0,14,14,14,,,,,,,,,,,,,,,,,,,,,,,,,,,452.2921995999641,453.2942474000156,452.2921995999641,453.2942474000156,452.2921995999641,453.2942474000156,452.2921995999641,453.2942474000156,None,0,,452.2921995999641,None,452.2921995999641,None,452.2921995999641,452.79292330000317,452.2921995999641,452.79292330000317,452.2921995999641,452.79292330000317,452.2921995999641,452.79292330000317,452.2921995999641,None,,,,,,,,,,,,,,,,,,,,,,,,,,,,,,,,,,,,,,,,,,11009,001,2024_Jan_01_1645,nback,2021.2.3,60.46058877427872,
2-back,instructions\back-2.png,conditions\2back-p.xlsx,instructions\2-BACK.png,"(25, 15)",practice,2,2,stim\gray.png,stim\yellow.png,stim\gray.png,stim\gray.png,right,1,0,1,0,0,2,2,2,0,15,15,15,,,,,,,,,,,,,,,,,,,,,,,,,,,453.79412490001414,454.79648779996205,453.79412490001414,454.79648779996205,453.79412490001414,454.79648779996205,453.79412490001414,454.79648779996205,None,0,,453.79412490001414,None,453.79412490001414,None,453.79412490001414,454.2953429999761,453.79412490001414,454.2953429999761,453.79412490001414,454.2953429999761,453.79412490001414,454.2953429999761,453.79412490001414,None,,,,,,,,,,,,,,,,,,,,,,,,,,,,,,,,,,,,,,,,,,11009,001,2024_Jan_01_1645,nback,2021.2.3,60.46058877427872,
2-back,instructions\back-2.png,conditions\2back-p.xlsx,instructions\2-BACK.png,"(25, 15)",practice,2,3,stim\gray.png,stim\gray.png,stim\yellow.png,stim\gray.png,up,1,0,1,0,0,2,2,2,0,16,16,16,,,,,,,,,,,,,,,,,,,,,,,,,,,455.29649400000926,456.29851240001153,455.29649400000926,456.29851240001153,455.29649400000926,456.29851240001153,455.29649400000926,456.29851240001153,right,0,0.28216790000442415,455.29649400000926,None,455.29649400000926,None,455.29649400000926,455.79718689998845,455.29649400000926,455.79718689998845,455.29649400000926,455.79718689998845,455.29649400000926,455.79718689998845,455.29649400000926,None,,,,,,,,,,,,,,,,,,,,,,,,,,,,,,,,,,,,,,,,,,11009,001,2024_Jan_01_1645,nback,2021.2.3,60.46058877427872,
2-back,instructions\back-2.png,conditions\2back-p.xlsx,instructions\2-BACK.png,"(25, 15)",practice,2,1,stim\yellow.png,stim\gray.png,stim\gray.png,stim\gray.png,left,1,0,1,0,0,2,2,2,0,17,17,17,,,,,,,,,,,,,,,,,,,,,,,,,,,456.79873460001545,457.8001251000096,456.79873460001545,457.8001251000096,456.79873460001545,457.8001251000096,456.79873460001545,457.8001251000096,None,0,,456.79873460001545,None,456.79873460001545,None,456.79873460001545,457.300440699968,456.79873460001545,457.300440699968,456.79873460001545,457.300440699968,456.79873460001545,457.300440699968,456.79873460001545,None,,,,,,,,,,,,,,,,,,,,,,,,,,,,,,,,,,,,,,,,,,11009,001,2024_Jan_01_1645,nback,2021.2.3,60.46058877427872,
2-back,instructions\back-2.png,conditions\2back-p.xlsx,instructions\2-BACK.png,"(25, 15)",practice,2,4,stim\gray.png,stim\gray.png,stim\gray.png,stim\yellow.png,right,1,0,1,0,0,2,2,2,0,18,18,18,,,,,,,,,,,,,,,,,,,,,,,,,,,458.3009650000022,459.3023724000086,458.3009650000022,459.3023724000086,458.3009650000022,459.3023724000086,458.3009650000022,459.3023724000086,right,1,0.5178984000231139,458.3009650000022,None,458.3009650000022,None,458.3009650000022,458.8020331999869,458.3009650000022,458.8020331999869,458.3009650000022,458.8020331999869,458.3009650000022,458.8020331999869,458.3009650000022,None,,,,,,,,,,,,,,,,,,,,,,,,,,,,,,,,,,,,,,,,,,11009,001,2024_Jan_01_1645,nback,2021.2.3,60.46058877427872,
2-back,instructions\back-2.png,conditions\2back-p.xlsx,instructions\2-BACK.png,"(25, 15)",practice,2,2,stim\gray.png,stim\yellow.png,stim\gray.png,stim\gray.png,up,1,0,1,0,0,2,2,2,0,19,19,19,,,,,,,,,,,,,,,,,,,,,,,,,,,459.8037206999725,460.80607049999526,459.8037206999725,460.80607049999526,459.8037206999725,460.80607049999526,459.8037206999725,460.80607049999526,None,0,,459.8037206999725,None,459.8037206999725,None,459.8037206999725,460.30464879999636,459.8037206999725,460.30464879999636,459.8037206999725,460.30464879999636,459.8037206999725,460.30464879999636,459.8037206999725,None,,,,,,,,,,,,,,,,,,,,,,,,,,,,,,,,,,,,,,,,,,11009,001,2024_Jan_01_1645,nback,2021.2.3,60.46058877427872,
2-back,instructions\back-2.png,conditions\2back-p.xlsx,instructions\2-BACK.png,"(25, 15)",,,,,,,,,1,0,1,0,0,2,2,2,,,,,,,,,,,,,,,,,,,,,,,,,,,,,,,,,,,,,,,,,,,,,,,,,,,,,,,,,,,,,,,,,,,,,,,,,,,,,,,,,,,,,,,,,,,,,,,,,11009,001,2024_Jan_01_1645,nback,2021.2.3,60.46058877427872,
,,,,,,,,,,,,,1,0,1,0,,,,,,,,,,,,,,,,,,,,,,,,,,,,,,,,,,,,,,,,,,,,,,,,,,,,,,,,,,,,461.30712969996966,None,s,2.759276399970986,461.30712969996966,None,,,,,,,,,,,,,,,,,,,,,,,,,,,,,,,,,,,,11009,001,2024_Jan_01_1645,nback,2021.2.3,60.46058877427872,
0-back,instructions\back-0.png,conditions\0back-p.xlsx,instructions\0-BACK.png,"(15, 8)",practice,0,1,stim\yellow.png,stim\gray.png,stim\gray.png,stim\gray.png,up,2,0,2,0,0,0,0,0,0,0,0,0,,,,,,,,,,,,,,,,,464.1593794999644,None,space,2.2745950000244193,464.1593794999644,None,466.61306379997404,471.12092389998725,471.08850879996317,None,471.4878576999763,472.4892475999659,471.4878576999763,472.4892475999659,471.4878576999763,472.4892475999659,471.4878576999763,472.4892475999659,up,1,0.7303961000288837,471.4878576999763,None,471.4878576999763,None,471.4878576999763,471.9879770000116,471.4878576999763,471.9879770000116,471.4878576999763,471.9879770000116,471.4878576999763,471.9879770000116,471.4878576999763,None,,,,,,,,,,,,,,,,,,,,,,,,,,,,,,,,,,,,,,,,,,11009,001,2024_Jan_01_1645,nback,2021.2.3,60.46058877427872,
0-back,instructions\back-0.png,conditions\0back-p.xlsx,instructions\0-BACK.png,"(15, 8)",practice,0,2,stim\gray.png,stim\yellow.png,stim\gray.png,stim\gray.png,left,2,0,2,0,0,0,0,0,0,1,1,1,,,,,,,,,,,,,,,,,,,,,,,,,,,472.9727827999741,473.9742327000131,472.9727827999741,473.9742327000131,472.9727827999741,473.9742327000131,472.9727827999741,473.9742327000131,left,1,0.37385919998632744,472.9727827999741,None,472.9727827999741,None,472.9727827999741,473.47343459998956,472.9727827999741,473.47343459998956,472.9727827999741,473.47343459998956,472.9727827999741,473.47343459998956,472.9727827999741,None,,,,,,,,,,,,,,,,,,,,,,,,,,,,,,,,,,,,,,,,,,11009,001,2024_Jan_01_1645,nback,2021.2.3,60.46058877427872,
0-back,instructions\back-0.png,conditions\0back-p.xlsx,instructions\0-BACK.png,"(15, 8)",practice,0,3,stim\gray.png,stim\gray.png,stim\yellow.png,stim\gray.png,right,2,0,2,0,0,0,0,0,0,2,2,2,,,,,,,,,,,,,,,,,,,,,,,,,,,474.4749860999873,475.4766749999835,474.4749860999873,475.4766749999835,474.4749860999873,475.4766749999835,474.4749860999873,475.4766749999835,right,1,0.583784399961587,474.4749860999873,None,474.4749860999873,None,474.4749860999873,474.97570179996546,474.4749860999873,474.97570179996546,474.4749860999873,474.97570179996546,474.4749860999873,474.97570179996546,474.4749860999873,None,,,,,,,,,,,,,,,,,,,,,,,,,,,,,,,,,,,,,,,,,,11009,001,2024_Jan_01_1645,nback,2021.2.3,60.46058877427872,
0-back,instructions\back-0.png,conditions\0back-p.xlsx,instructions\0-BACK.png,"(15, 8)",practice,0,4,stim\gray.png,stim\gray.png,stim\gray.png,stim\yellow.png,down,2,0,2,0,0,0,0,0,0,3,3,3,,,,,,,,,,,,,,,,,,,,,,,,,,,475.97695099998964,476.9786914999713,475.97695099998964,476.9786914999713,475.97695099998964,476.9786914999713,475.97695099998964,476.9786914999713,down,1,0.29747480002697557,475.97695099998964,None,475.97695099998964,None,475.97695099998964,476.4779716999619,475.97695099998964,476.4779716999619,475.97695099998964,476.4779716999619,475.97695099998964,476.4779716999619,475.97695099998964,None,,,,,,,,,,,,,,,,,,,,,,,,,,,,,,,,,,,,,,,,,,11009,001,2024_Jan_01_1645,nback,2021.2.3,60.46058877427872,
0-back,instructions\back-0.png,conditions\0back-p.xlsx,instructions\0-BACK.png,"(15, 8)",practice,0,2,stim\gray.png,stim\yellow.png,stim\gray.png,stim\gray.png,left,2,0,2,0,0,0,0,0,0,4,4,4,,,,,,,,,,,,,,,,,,,,,,,,,,,477.4799171999912,478.4809440000099,477.4799171999912,478.4809440000099,477.4799171999912,478.4809440000099,477.4799171999912,478.4809440000099,left,1,0.33869100001174957,477.4799171999912,None,477.4799171999912,None,477.4799171999912,477.9800981999724,477.4799171999912,477.9800981999724,477.4799171999912,477.9800981999724,477.4799171999912,477.9800981999724,477.4799171999912,None,,,,,,,,,,,,,,,,,,,,,,,,,,,,,,,,,,,,,,,,,,11009,001,2024_Jan_01_1645,nback,2021.2.3,60.46058877427872,
0-back,instructions\back-0.png,conditions\0back-p.xlsx,instructions\0-BACK.png,"(15, 8)",practice,0,1,stim\yellow.png,stim\gray.png,stim\gray.png,stim\gray.png,up,2,0,2,0,0,0,0,0,0,5,5,5,,,,,,,,,,,,,,,,,,,,,,,,,,,478.9815110999625,479.9840769000002,478.9815110999625,479.9840769000002,478.9815110999625,479.9840769000002,478.9815110999625,479.9840769000002,up,1,0.28530479996697977,478.9815110999625,None,478.9815110999625,None,478.9815110999625,479.48232389998157,478.9815110999625,479.48232389998157,478.9815110999625,479.48232389998157,478.9815110999625,479.48232389998157,478.9815110999625,None,,,,,,,,,,,,,,,,,,,,,,,,,,,,,,,,,,,,,,,,,,11009,001,2024_Jan_01_1645,nback,2021.2.3,60.46058877427872,
0-back,instructions\back-0.png,conditions\0back-p.xlsx,instructions\0-BACK.png,"(15, 8)",practice,0,4,stim\gray.png,stim\gray.png,stim\gray.png,stim\yellow.png,down,2,0,2,0,0,0,0,0,0,6,6,6,,,,,,,,,,,,,,,,,,,,,,,,,,,480.4671602000017,481.4690937999985,480.4671602000017,481.4690937999985,480.4671602000017,481.4690937999985,480.4671602000017,481.4690937999985,down,1,0.7111066000070423,480.4671602000017,None,480.4671602000017,None,480.4671602000017,480.96815839997726,480.4671602000017,480.96815839997726,480.4671602000017,480.96815839997726,480.4671602000017,480.96815839997726,480.4671602000017,None,,,,,,,,,,,,,,,,,,,,,,,,,,,,,,,,,,,,,,,,,,11009,001,2024_Jan_01_1645,nback,2021.2.3,60.46058877427872,
0-back,instructions\back-0.png,conditions\0back-p.xlsx,instructions\0-BACK.png,"(15, 8)",practice,0,3,stim\gray.png,stim\gray.png,stim\yellow.png,stim\gray.png,right,2,0,2,0,0,0,0,0,0,7,7,7,,,,,,,,,,,,,,,,,,,,,,,,,,,481.9694598999922,482.9710010999697,481.9694598999922,482.9710010999697,481.9694598999922,482.9710010999697,481.9694598999922,482.9710010999697,right,1,0.3528400000068359,481.9694598999922,None,481.9694598999922,None,481.9694598999922,482.47006879997207,481.9694598999922,482.47006879997207,481.9694598999922,482.47006879997207,481.9694598999922,482.47006879997207,481.9694598999922,None,,,,,,,,,,,,,,,,,,,,,,,,,,,,,,,,,,,,,,,,,,11009,001,2024_Jan_01_1645,nback,2021.2.3,60.46058877427872,
0-back,instructions\back-0.png,conditions\0back-p.xlsx,instructions\0-BACK.png,"(15, 8)",practice,0,3,stim\gray.png,stim\gray.png,stim\yellow.png,stim\gray.png,right,2,0,2,0,0,0,0,0,0,8,8,8,,,,,,,,,,,,,,,,,,,,,,,,,,,483.4716550000012,484.4732081000111,483.4716550000012,484.4732081000111,483.4716550000012,484.4732081000111,483.4716550000012,484.4732081000111,right,1,0.35451069998089224,483.4716550000012,None,483.4716550000012,None,483.4716550000012,483.9724460999714,483.4716550000012,483.9724460999714,483.4716550000012,483.9724460999714,483.4716550000012,483.9724460999714,483.4716550000012,None,,,,,,,,,,,,,,,,,,,,,,,,,,,,,,,,,,,,,,,,,,11009,001,2024_Jan_01_1645,nback,2021.2.3,60.46058877427872,
0-back,instructions\back-0.png,conditions\0back-p.xlsx,instructions\0-BACK.png,"(15, 8)",practice,0,4,stim\gray.png,stim\gray.png,stim\gray.png,stim\yellow.png,down,2,0,2,0,0,0,0,0,0,9,9,9,,,,,,,,,,,,,,,,,,,,,,,,,,,484.97360179998213,485.9752664999687,484.97360179998213,485.9752664999687,484.97360179998213,485.9752664999687,484.97360179998213,485.9752664999687,down,1,0.5888287000125274,484.97360179998213,None,484.97360179998213,None,484.97360179998213,485.4746698999661,484.97360179998213,485.4746698999661,484.97360179998213,485.4746698999661,484.97360179998213,485.4746698999661,484.97360179998213,None,,,,,,,,,,,,,,,,,,,,,,,,,,,,,,,,,,,,,,,,,,11009,001,2024_Jan_01_1645,nback,2021.2.3,60.46058877427872,
0-back,instructions\back-0.png,conditions\0back-p.xlsx,instructions\0-BACK.png,"(15, 8)",practice,0,1,stim\yellow.png,stim\gray.png,stim\gray.png,stim\gray.png,up,2,0,2,0,0,0,0,0,0,10,10,10,,,,,,,,,,,,,,,,,,,,,,,,,,,486.4760318999761,487.47756859997753,486.4760318999761,487.47756859997753,486.4760318999761,487.47756859997753,486.4760318999761,487.47756859997753,up,1,0.4463427000446245,486.4760318999761,None,486.4760318999761,None,486.4760318999761,486.9771011999692,486.4760318999761,486.9771011999692,486.4760318999761,486.9771011999692,486.4760318999761,486.9771011999692,486.4760318999761,None,,,,,,,,,,,,,,,,,,,,,,,,,,,,,,,,,,,,,,,,,,11009,001,2024_Jan_01_1645,nback,2021.2.3,60.46058877427872,
0-back,instructions\back-0.png,conditions\0back-p.xlsx,instructions\0-BACK.png,"(15, 8)",practice,0,2,stim\gray.png,stim\yellow.png,stim\gray.png,stim\gray.png,left,2,0,2,0,0,0,0,0,0,11,11,11,,,,,,,,,,,,,,,,,,,,,,,,,,,487.9780340999714,488.9806559999706,487.9780340999714,488.9806559999706,487.9780340999714,488.9806559999706,487.9780340999714,488.9806559999706,left,1,0.44015689997468144,487.9780340999714,None,487.9780340999714,None,487.9780340999714,488.478982599976,487.9780340999714,488.478982599976,487.9780340999714,488.478982599976,487.9780340999714,488.478982599976,487.9780340999714,None,,,,,,,,,,,,,,,,,,,,,,,,,,,,,,,,,,,,,,,,,,11009,001,2024_Jan_01_1645,nback,2021.2.3,60.46058877427872,
0-back,instructions\back-0.png,conditions\0back-p.xlsx,instructions\0-BACK.png,"(15, 8)",practice,0,4,stim\gray.png,stim\gray.png,stim\gray.png,stim\yellow.png,down,2,0,2,0,0,0,0,0,0,12,12,12,,,,,,,,,,,,,,,,,,,,,,,,,,,489.4809973000083,490.482544199971,489.4809973000083,490.482544199971,489.4809973000083,490.482544199971,489.4809973000083,490.482544199971,down,1,0.7215717000071891,489.4809973000083,None,489.4809973000083,None,489.4809973000083,489.9815872000181,489.4809973000083,489.9815872000181,489.4809973000083,489.9815872000181,489.4809973000083,489.9815872000181,489.4809973000083,None,,,,,,,,,,,,,,,,,,,,,,,,,,,,,,,,,,,,,,,,,,11009,001,2024_Jan_01_1645,nback,2021.2.3,60.46058877427872,
0-back,instructions\back-0.png,conditions\0back-p.xlsx,instructions\0-BACK.png,"(15, 8)",practice,0,3,stim\gray.png,stim\gray.png,stim\yellow.png,stim\gray.png,right,2,0,2,0,0,0,0,0,0,13,13,13,,,,,,,,,,,,,,,,,,,,,,,,,,,490.9829798999708,491.9843320999644,490.9829798999708,491.9843320999644,490.9829798999708,491.9843320999644,490.9829798999708,491.9843320999644,right,1,0.37125780002679676,490.9829798999708,None,490.9829798999708,None,490.9829798999708,491.4834178999881,490.9829798999708,491.4834178999881,490.9829798999708,491.4834178999881,490.9829798999708,491.4834178999881,490.9829798999708,None,,,,,,,,,,,,,,,,,,,,,,,,,,,,,,,,,,,,,,,,,,11009,001,2024_Jan_01_1645,nback,2021.2.3,60.46058877427872,
