backseq,backinstr,backfile,instruction,Trialtype,back,number,P1,P2,P3,P4,corrAns,trials_practice.thisRepN,trials_practice.thisTrialN,trials_practice.thisN,trials_practice.thisIndex,trials.thisRepN,trials.thisTrialN,trials.thisN,trials.thisIndex,trials_3.thisRepN,trials_3.thisTrialN,trials_3.thisN,trials_3.thisIndex,trials_2.thisRepN,trials_2.thisTrialN,trials_2.thisN,trials_2.thisIndex,trials_4.thisRepN,trials_4.thisTrialN,trials_4.thisN,trials_4.thisIndex,image.started,image.stopped,image_2.started,image_2.stopped,key_resp.keys,key_resp.rt,key_resp.started,key_resp.stopped,image_3.started,image_3.stopped,key_resp_2.keys,key_resp_2.rt,key_resp_2.started,key_resp_2.stopped,image_4.started,image_4.stopped,text.started,text.stopped,H1.started,H1.stopped,H2.started,H2.stopped,H3.started,H3.stopped,H4.started,H4.stopped,key_resp_3.keys,key_resp_3.corr,key_resp_3.started,key_resp_3.stopped,text_4.started,text_4.stopped,F1.started,F1.stopped,F2.started,F2.stopped,F3.started,F3.stopped,F4.started,F4.stopped,image_7.started,image_7.stopped,key_resp_3.rt,text_5.started,text_5.stopped,key_resp_6.keys,key_resp_6.rt,key_resp_6.started,key_resp_6.stopped,image_5.started,image_5.stopped,key_resp_4.keys,key_resp_4.rt,key_resp_4.started,key_resp_4.stopped,key_resp_5.keys,key_resp_5.corr,key_resp_5.started,key_resp_5.stopped,text_3.started,text_3.stopped,H1_2.started,H1_2.stopped,H2_2.started,H2_2.stopped,H3_2.started,H3_2.stopped,H4_2.started,H4_2.stopped,F1_2.started,F1_2.stopped,F2_2.started,F2_2.stopped,F3_2.started,F3_2.stopped,F4_2.started,F4_2.stopped,image_8.started,image_8.stopped,key_resp_5.rt,text_2.started,text_2.stopped,image_6.started,image_6.stopped,participant,session,date,expName,psychopyVersion,frameRate,
,,,,,,,,,,,,,,,,,,,,,,,,,,,,,,,,9.056666700002097,None,9.958963899996888,None,space,1.650362700005644,9.958963899996888,None,,,,,,,,,,,,,,,,,,,,,,,,,,,,,,,,,,,,,,,,,,,,,,,,,,,,,,,,,,,,,,,,,,,,,,,,,,,,,11003,001,2023_Dec_29_1211,nback,2021.2.3,59.51321758807262,
0-back,instructions\back-0.png,conditions\0back-p.xlsx,instructions\0-BACK.png,practice,0,1,stim\yellow.png,stim\gray.png,stim\gray.png,stim\gray.png,up,0,0,0,0,0,0,0,0,0,0,0,0,,,,,,,,,,,,,,,,,11.793332200002624,None,space,4.77638090000255,11.793332200002624,None,16.750470300001325,21.257521400002588,21.207511499997054,None,21.625517699998454,22.62629190000007,21.625517699998454,22.62629190000007,21.625517699998454,22.62629190000007,21.625517699998454,22.62629190000007,None,0,21.625517699998454,None,21.625517699998454,None,21.625517699998454,22.126585899997735,21.625517699998454,22.126585899997735,21.625517699998454,22.126585899997735,21.625517699998454,22.126585899997735,21.625517699998454,None,,,,,,,,,,,,,,,,,,,,,,,,,,,,,,,,,,,,,,,,,,,11003,001,2023_Dec_29_1211,nback,2021.2.3,59.51321758807262,
0-back,instructions\back-0.png,conditions\0back-p.xlsx,instructions\0-BACK.png,practice,0,2,stim\gray.png,stim\yellow.png,stim\gray.png,stim\gray.png,left,0,0,0,0,0,0,0,0,0,1,1,1,,,,,,,,,,,,,,,,,,,,,,,,,,,23.110155599999416,24.11257160000241,23.110155599999416,24.11257160000241,23.110155599999416,24.11257160000241,23.110155599999416,24.11257160000241,left,1,23.110155599999416,None,23.110155599999416,None,23.110155599999416,23.611116500003845,23.110155599999416,23.611116500003845,23.110155599999416,23.611116500003845,23.110155599999416,23.611116500003845,23.110155599999416,None,0.7393646999989869,,,,,,,,,,,,,,,,,,,,,,,,,,,,,,,,,,,,,,,,,,11003,001,2023_Dec_29_1211,nback,2021.2.3,59.51321758807262,
0-back,instructions\back-0.png,conditions\0back-p.xlsx,instructions\0-BACK.png,practice,0,3,stim\gray.png,stim\gray.png,stim\yellow.png,stim\gray.png,right,0,0,0,0,0,0,0,0,0,2,2,2,,,,,,,,,,,,,,,,,,,,,,,,,,,24.61251810000249,25.613889300002484,24.61251810000249,25.613889300002484,24.61251810000249,25.613889300002484,24.61251810000249,25.613889300002484,right,1,24.61251810000249,None,24.61251810000249,None,24.61251810000249,25.11444499999925,24.61251810000249,25.11444499999925,24.61251810000249,25.11444499999925,24.61251810000249,25.11444499999925,24.61251810000249,None,0.34925680000014836,,,,,,,,,,,,,,,,,,,,,,,,,,,,,,,,,,,,,,,,,,11003,001,2023_Dec_29_1211,nback,2021.2.3,59.51321758807262,
0-back,instructions\back-0.png,conditions\0back-p.xlsx,instructions\0-BACK.png,practice,0,4,stim\gray.png,stim\gray.png,stim\gray.png,stim\yellow.png,down,0,0,0,0,0,0,0,0,0,3,3,3,,,,,,,,,,,,,,,,,,,,,,,,,,,26.164733600002364,27.166170700002112,26.164733600002364,27.166170700002112,26.164733600002364,27.166170700002112,26.164733600002364,27.166170700002112,down,1,26.164733600002364,None,26.164733600002364,None,26.164733600002364,26.665556599997217,26.164733600002364,26.665556599997217,26.164733600002364,26.665556599997217,26.164733600002364,26.665556599997217,26.164733600002364,None,0.3643974999940838,,,,,,,,,,,,,,,,,,,,,,,,,,,,,,,,,,,,,,,,,,11003,001,2023_Dec_29_1211,nback,2021.2.3,59.51321758807262,
0-back,instructions\back-0.png,conditions\0back-p.xlsx,instructions\0-BACK.png,practice,0,2,stim\gray.png,stim\yellow.png,stim\gray.png,stim\gray.png,left,0,0,0,0,0,0,0,0,0,4,4,4,,,,,,,,,,,,,,,,,,,,,,,,,,,27.616936099999293,28.618791300003068,27.616936099999293,28.618791300003068,27.616936099999293,28.618791300003068,27.616936099999293,28.618791300003068,left,1,27.616936099999293,None,27.616936099999293,None,27.616936099999293,28.1180846999996,27.616936099999293,28.1180846999996,27.616936099999293,28.1180846999996,27.616936099999293,28.1180846999996,27.616936099999293,None,0.3282621999969706,,,,,,,,,,,,,,,,,,,,,,,,,,,,,,,,,,,,,,,,,,11003,001,2023_Dec_29_1211,nback,2021.2.3,59.51321758807262,
0-back,instructions\back-0.png,conditions\0back-p.xlsx,instructions\0-BACK.png,practice,0,1,stim\yellow.png,stim\gray.png,stim\gray.png,stim\gray.png,up,0,0,0,0,0,0,0,0,0,5,5,5,,,,,,,,,,,,,,,,,,,,,,,,,,,29.119100399999297,30.12069160000101,29.119100399999297,30.12069160000101,29.119100399999297,30.12069160000101,29.119100399999297,30.12069160000101,up,1,29.119100399999297,None,29.119100399999297,None,29.119100399999297,29.62021950000053,29.119100399999297,29.62021950000053,29.119100399999297,29.62021950000053,29.119100399999297,29.62021950000053,29.119100399999297,None,0.40985709999949904,,,,,,,,,,,,,,,,,,,,,,,,,,,,,,,,,,,,,,,,,,11003,001,2023_Dec_29_1211,nback,2021.2.3,59.51321758807262,
0-back,instructions\back-0.png,conditions\0back-p.xlsx,instructions\0-BACK.png,practice,0,4,stim\gray.png,stim\gray.png,stim\gray.png,stim\yellow.png,down,0,0,0,0,0,0,0,0,0,6,6,6,,,,,,,,,,,,,,,,,,,,,,,,,,,30.6213190999988,31.62343890000193,30.6213190999988,31.62343890000193,30.6213190999988,31.62343890000193,30.6213190999988,31.62343890000193,down,1,30.6213190999988,None,30.6213190999988,None,30.6213190999988,31.122991700001876,30.6213190999988,31.122991700001876,30.6213190999988,31.122991700001876,30.6213190999988,31.122991700001876,30.6213190999988,None,0.5802615000065998,,,,,,,,,,,,,,,,,,,,,,,,,,,,,,,,,,,,,,,,,,11003,001,2023_Dec_29_1211,nback,2021.2.3,59.51321758807262,
0-back,instructions\back-0.png,conditions\0back-p.xlsx,instructions\0-BACK.png,practice,0,3,stim\gray.png,stim\gray.png,stim\yellow.png,stim\gray.png,right,0,0,0,0,0,0,0,0,0,7,7,7,,,,,,,,,,,,,,,,,,,,,,,,,,,32.10747840000113,33.108374000003096,32.10747840000113,33.108374000003096,32.10747840000113,33.108374000003096,32.10747840000113,33.108374000003096,right,1,32.10747840000113,None,32.10747840000113,None,32.10747840000113,32.60794280000118,32.10747840000113,32.60794280000118,32.10747840000113,32.60794280000118,32.10747840000113,32.60794280000118,32.10747840000113,None,0.6456061999997473,,,,,,,,,,,,,,,,,,,,,,,,,,,,,,,,,,,,,,,,,,11003,001,2023_Dec_29_1211,nback,2021.2.3,59.51321758807262,
0-back,instructions\back-0.png,conditions\0back-p.xlsx,instructions\0-BACK.png,practice,0,3,stim\gray.png,stim\gray.png,stim\yellow.png,stim\gray.png,right,0,0,0,0,0,0,0,0,0,8,8,8,,,,,,,,,,,,,,,,,,,,,,,,,,,33.60846160000074,34.611460400003125,33.60846160000074,34.611460400003125,33.60846160000074,34.611460400003125,33.60846160000074,34.611460400003125,right,1,33.60846160000074,None,33.60846160000074,None,33.60846160000074,34.10975809999945,33.60846160000074,34.10975809999945,33.60846160000074,34.10975809999945,33.60846160000074,34.10975809999945,33.60846160000074,None,0.49650399999518413,,,,,,,,,,,,,,,,,,,,,,,,,,,,,,,,,,,,,,,,,,11003,001,2023_Dec_29_1211,nback,2021.2.3,59.51321758807262,
0-back,instructions\back-0.png,conditions\0back-p.xlsx,instructions\0-BACK.png,practice,0,4,stim\gray.png,stim\gray.png,stim\gray.png,stim\yellow.png,down,0,0,0,0,0,0,0,0,0,9,9,9,,,,,,,,,,,,,,,,,,,,,,,,,,,35.11136319999787,36.112993700000516,35.11136319999787,36.112993700000516,35.11136319999787,36.112993700000516,35.11136319999787,36.112993700000516,down,1,35.11136319999787,None,35.11136319999787,None,35.11136319999787,35.612022200002684,35.11136319999787,35.612022200002684,35.11136319999787,35.612022200002684,35.11136319999787,35.612022200002684,35.11136319999787,None,0.5457345999966492,,,,,,,,,,,,,,,,,,,,,,,,,,,,,,,,,,,,,,,,,,11003,001,2023_Dec_29_1211,nback,2021.2.3,59.51321758807262,
0-back,instructions\back-0.png,conditions\0back-p.xlsx,instructions\0-BACK.png,practice,0,1,stim\yellow.png,stim\gray.png,stim\gray.png,stim\gray.png,up,0,0,0,0,0,0,0,0,0,10,10,10,,,,,,,,,,,,,,,,,,,,,,,,,,,36.61362799999915,37.615099000002374,36.61362799999915,37.615099000002374,36.61362799999915,37.615099000002374,36.61362799999915,37.615099000002374,up,1,36.61362799999915,None,36.61362799999915,None,36.61362799999915,37.11493989999872,36.61362799999915,37.11493989999872,36.61362799999915,37.11493989999872,36.61362799999915,37.11493989999872,36.61362799999915,None,0.4594074999986333,,,,,,,,,,,,,,,,,,,,,,,,,,,,,,,,,,,,,,,,,,11003,001,2023_Dec_29_1211,nback,2021.2.3,59.51321758807262,
0-back,instructions\back-0.png,conditions\0back-p.xlsx,instructions\0-BACK.png,practice,0,2,stim\gray.png,stim\yellow.png,stim\gray.png,stim\gray.png,left,0,0,0,0,0,0,0,0,0,11,11,11,,,,,,,,,,,,,,,,,,,,,,,,,,,38.117000300000655,39.11801220000052,38.117000300000655,39.11801220000052,38.117000300000655,39.11801220000052,38.117000300000655,39.11801220000052,left,1,38.117000300000655,None,38.117000300000655,None,38.117000300000655,38.61660269999993,38.117000300000655,38.61660269999993,38.117000300000655,38.61660269999993,38.117000300000655,38.61660269999993,38.117000300000655,None,0.3880741000029957,,,,,,,,,,,,,,,,,,,,,,,,,,,,,,,,,,,,,,,,,,11003,001,2023_Dec_29_1211,nback,2021.2.3,59.51321758807262,
0-back,instructions\back-0.png,conditions\0back-p.xlsx,instructions\0-BACK.png,practice,0,4,stim\gray.png,stim\gray.png,stim\gray.png,stim\yellow.png,down,0,0,0,0,0,0,0,0,0,12,12,12,,,,,,,,,,,,,,,,,,,,,,,,,,,39.61794170000212,40.61963139999716,39.61794170000212,40.61963139999716,39.61794170000212,40.61963139999716,39.61794170000212,40.61963139999716,down,1,39.61794170000212,None,39.61794170000212,None,39.61794170000212,40.119463100003486,39.61794170000212,40.119463100003486,39.61794170000212,40.119463100003486,39.61794170000212,40.119463100003486,39.61794170000212,None,0.431106699994416,,,,,,,,,,,,,,,,,,,,,,,,,,,,,,,,,,,,,,,,,,11003,001,2023_Dec_29_1211,nback,2021.2.3,59.51321758807262,
0-back,instructions\back-0.png,conditions\0back-p.xlsx,instructions\0-BACK.png,practice,0,3,stim\gray.png,stim\gray.png,stim\yellow.png,stim\gray.png,right,0,0,0,0,0,0,0,0,0,13,13,13,,,,,,,,,,,,,,,,,,,,,,,,,,,41.12012659999891,42.12244649999775,41.12012659999891,42.12244649999775,41.12012659999891,42.12244649999775,41.12012659999891,42.12244649999775,right,1,41.12012659999891,None,41.12012659999891,None,41.12012659999891,41.62152760000026,41.12012659999891,41.62152760000026,41.12012659999891,41.62152760000026,41.12012659999891,41.62152760000026,41.12012659999891,None,0.41741470000124536,,,,,,,,,,,,,,,,,,,,,,,,,,,,,,,,,,,,,,,,,,11003,001,2023_Dec_29_1211,nback,2021.2.3,59.51321758807262,
0-back,instructions\back-0.png,conditions\0back-p.xlsx,instructions\0-BACK.png,practice,0,1,stim\yellow.png,stim\gray.png,stim\gray.png,stim\gray.png,up,0,0,0,0,0,0,0,0,0,14,14,14,,,,,,,,,,,,,,,,,,,,,,,,,,,42.605704100002185,43.607856299997366,42.605704100002185,43.607856299997366,42.605704100002185,43.607856299997366,42.605704100002185,43.607856299997366,up,1,42.605704100002185,None,42.605704100002185,None,42.605704100002185,43.10653750000347,42.605704100002185,43.10653750000347,42.605704100002185,43.10653750000347,42.605704100002185,43.10653750000347,42.605704100002185,None,0.6680094999974244,,,,,,,,,,,,,,,,,,,,,,,,,,,,,,,,,,,,,,,,,,11003,001,2023_Dec_29_1211,nback,2021.2.3,59.51321758807262,
0-back,instructions\back-0.png,conditions\0back-p.xlsx,instructions\0-BACK.png,practice,0,2,stim\gray.png,stim\yellow.png,stim\gray.png,stim\gray.png,left,0,0,0,0,0,0,0,0,0,15,15,15,,,,,,,,,,,,,,,,,,,,,,,,,,,44.10803580000356,45.10938460000034,44.10803580000356,45.10938460000034,44.10803580000356,45.10938460000034,44.10803580000356,45.10938460000034,left,1,44.10803580000356,None,44.10803580000356,None,44.10803580000356,44.60861979999754,44.10803580000356,44.60861979999754,44.10803580000356,44.60861979999754,44.10803580000356,44.60861979999754,44.10803580000356,None,0.35750750000443077,,,,,,,,,,,,,,,,,,,,,,,,,,,,,,,,,,,,,,,,,,11003,001,2023_Dec_29_1211,nback,2021.2.3,59.51321758807262,
0-back,instructions\back-0.png,conditions\0back-p.xlsx,instructions\0-BACK.png,practice,0,3,stim\gray.png,stim\gray.png,stim\yellow.png,stim\gray.png,right,0,0,0,0,0,0,0,0,0,16,16,16,,,,,,,,,,,,,,,,,,,,,,,,,,,45.610577500003274,46.61201230000006,45.610577500003274,46.61201230000006,45.610577500003274,46.61201230000006,45.610577500003274,46.61201230000006,None,0,45.610577500003274,None,45.610577500003274,None,45.610577500003274,46.11164650000137,45.610577500003274,46.11164650000137,45.610577500003274,46.11164650000137,45.610577500003274,46.11164650000137,45.610577500003274,None,,,,,,,,,,,,,,,,,,,,,,,,,,,,,,,,,,,,,,,,,,,11003,001,2023_Dec_29_1211,nback,2021.2.3,59.51321758807262,
0-back,instructions\back-0.png,conditions\0back-p.xlsx,instructions\0-BACK.png,practice,0,1,stim\yellow.png,stim\gray.png,stim\gray.png,stim\gray.png,up,0,0,0,0,0,0,0,0,0,17,17,17,,,,,,,,,,,,,,,,,,,,,,,,,,,47.11230059999798,48.113892399996985,47.11230059999798,48.113892399996985,47.11230059999798,48.113892399996985,47.11230059999798,48.113892399996985,up,1,47.11230059999798,None,47.11230059999798,None,47.11230059999798,47.61327750000055,47.11230059999798,47.61327750000055,47.11230059999798,47.61327750000055,47.11230059999798,47.61327750000055,47.11230059999798,None,0.5049653000023682,,,,,,,,,,,,,,,,,,,,,,,,,,,,,,,,,,,,,,,,,,11003,001,2023_Dec_29_1211,nback,2021.2.3,59.51321758807262,
0-back,instructions\back-0.png,conditions\0back-p.xlsx,instructions\0-BACK.png,practice,0,4,stim\gray.png,stim\gray.png,stim\gray.png,stim\yellow.png,down,0,0,0,0,0,0,0,0,0,18,18,18,,,,,,,,,,,,,,,,,,,,,,,,,,,48.614841499998874,49.61686300000292,48.614841499998874,49.61686300000292,48.614841499998874,49.61686300000292,48.614841499998874,49.61686300000292,down,1,48.614841499998874,None,48.614841499998874,None,48.614841499998874,49.115353799999866,48.614841499998874,49.115353799999866,48.614841499998874,49.115353799999866,48.614841499998874,49.115353799999866,48.614841499998874,None,0.47470520000206307,,,,,,,,,,,,,,,,,,,,,,,,,,,,,,,,,,,,,,,,,,11003,001,2023_Dec_29_1211,nback,2021.2.3,59.51321758807262,
0-back,instructions\back-0.png,conditions\0back-p.xlsx,instructions\0-BACK.png,practice,0,2,stim\gray.png,stim\yellow.png,stim\gray.png,stim\gray.png,left,0,0,0,0,0,0,0,0,0,19,19,19,,,,,,,,,,,,,,,,,,,,,,,,,,,50.116814000000886,51.11911140000302,50.116814000000886,51.11911140000302,50.116814000000886,51.11911140000302,50.116814000000886,51.11911140000302,left,1,50.116814000000886,None,50.116814000000886,None,50.116814000000886,50.61755760000233,50.116814000000886,50.61755760000233,50.116814000000886,50.61755760000233,50.116814000000886,50.61755760000233,50.116814000000886,None,0.3164777999991202,,,,,,,,,,,,,,,,,,,,,,,,,,,,,,,,,,,,,,,,,,11003,001,2023_Dec_29_1211,nback,2021.2.3,59.51321758807262,
0-back,instructions\back-0.png,conditions\0back-p.xlsx,instructions\0-BACK.png,,,,,,,,,0,0,0,0,0,0,0,0,,,,,,,,,,,,,,,,,,,,,,,,,,,,,,,,,,,,,,,,,,,,,,,,,,,,,,,,,,,,,,,,,,,,,,,,,,,,,,,,,,,,,,,,,,,,,,,,,11003,001,2023_Dec_29_1211,nback,2021.2.3,59.51321758807262,
1-back,instructions\back-1.png,conditions\1back-p.xlsx,instructions\1-BACK.png,practice,1,1,stim\yellow.png,stim\gray.png,stim\gray.png,stim\gray.png,None,0,0,0,0,0,1,1,1,0,0,0,0,,,,,,,,,,,,,,,,,51.76935680000315,None,space,4.159425999998348,51.76935680000315,None,56.075681900001655,60.582528300001286,60.54898530000355,None,60.98386149999715,61.98451760000171,60.98386149999715,61.98451760000171,60.98386149999715,61.98451760000171,60.98386149999715,61.98451760000171,None,1,60.98386149999715,None,60.98386149999715,None,60.98386149999715,61.484511499998916,60.98386149999715,61.484511499998916,60.98386149999715,61.484511499998916,60.98386149999715,61.484511499998916,60.98386149999715,None,,,,,,,,,,,,,,,,,,,,,,,,,,,,,,,,,,,,,,,,,,,11003,001,2023_Dec_29_1211,nback,2021.2.3,59.51321758807262,
1-back,instructions\back-1.png,conditions\1back-p.xlsx,instructions\1-BACK.png,practice,1,2,stim\gray.png,stim\yellow.png,stim\gray.png,stim\gray.png,up,0,0,0,0,0,1,1,1,0,1,1,1,,,,,,,,,,,,,,,,,,,,,,,,,,,62.4685959999988,63.47082870000304,62.4685959999988,63.47082870000304,62.4685959999988,63.47082870000304,62.4685959999988,63.47082870000304,left,0,62.4685959999988,None,62.4685959999988,None,62.4685959999988,62.969592399997055,62.4685959999988,62.969592399997055,62.4685959999988,62.969592399997055,62.4685959999988,62.969592399997055,62.4685959999988,None,0.596526499997708,,,,,,,,,,,,,,,,,,,,,,,,,,,,,,,,,,,,,,,,,,11003,001,2023_Dec_29_1211,nback,2021.2.3,59.51321758807262,
1-back,instructions\back-1.png,conditions\1back-p.xlsx,instructions\1-BACK.png,practice,1,3,stim\gray.png,stim\gray.png,stim\yellow.png,stim\gray.png,left,0,0,0,0,0,1,1,1,0,2,2,2,,,,,,,,,,,,,,,,,,,,,,,,,,,63.97074050000083,64.9729593000011,63.97074050000083,64.9729593000011,63.97074050000083,64.9729593000011,63.97074050000083,64.9729593000011,None,0,63.97074050000083,None,63.97074050000083,None,63.97074050000083,64.47163320000254,63.97074050000083,64.47163320000254,63.97074050000083,64.47163320000254,63.97074050000083,64.47163320000254,63.97074050000083,None,,,,,,,,,,,,,,,,,,,,,,,,,,,,,,,,,,,,,,,,,,,11003,001,2023_Dec_29_1211,nback,2021.2.3,59.51321758807262,
1-back,instructions\back-1.png,conditions\1back-p.xlsx,instructions\1-BACK.png,practice,1,4,stim\gray.png,stim\gray.png,stim\gray.png,stim\yellow.png,right,0,0,0,0,0,1,1,1,0,3,3,3,,,,,,,,,,,,,,,,,,,,,,,,,,,65.47299010000279,66.4745716000034,65.47299010000279,66.4745716000034,65.47299010000279,66.4745716000034,65.47299010000279,66.4745716000034,right,1,65.47299010000279,None,65.47299010000279,None,65.47299010000279,65.97435479999695,65.47299010000279,65.97435479999695,65.47299010000279,65.97435479999695,65.47299010000279,65.97435479999695,65.47299010000279,None,0.8245368999996572,,,,,,,,,,,,,,,,,,,,,,,,,,,,,,,,,,,,,,,,,,11003,001,2023_Dec_29_1211,nback,2021.2.3,59.51321758807262,
1-back,instructions\back-1.png,conditions\1back-p.xlsx,instructions\1-BACK.png,practice,1,2,stim\gray.png,stim\yellow.png,stim\gray.png,stim\gray.png,down,0,0,0,0,0,1,1,1,0,4,4,4,,,,,,,,,,,,,,,,,,,,,,,,,,,66.97531819999858,67.97739710000315,66.97531819999858,67.97739710000315,66.97531819999858,67.97739710000315,66.97531819999858,67.97739710000315,None,0,66.97531819999858,None,66.97531819999858,None,66.97531819999858,67.47671640000044,66.97531819999858,67.47671640000044,66.97531819999858,67.47671640000044,66.97531819999858,67.47671640000044,66.97531819999858,None,,,,,,,,,,,,,,,,,,,,,,,,,,,,,,,,,,,,,,,,,,,11003,001,2023_Dec_29_1211,nback,2021.2.3,59.51321758807262,
1-back,instructions\back-1.png,conditions\1back-p.xlsx,instructions\1-BACK.png,practice,1,1,stim\yellow.png,stim\gray.png,stim\gray.png,stim\gray.png,left,0,0,0,0,0,1,1,1,0,5,5,5,,,,,,,,,,,,,,,,,,,,,,,,,,,68.4774350000007,69.47882129999925,68.4774350000007,69.47882129999925,68.4774350000007,69.47882129999925,68.4774350000007,69.47882129999925,down,0,68.4774350000007,None,68.4774350000007,None,68.4774350000007,68.97948460000043,68.4774350000007,68.97948460000043,68.4774350000007,68.97948460000043,68.4774350000007,68.97948460000043,68.4774350000007,None,0.09158450000541052,,,,,,,,,,,,,,,,,,,,,,,,,,,,,,,,,,,,,,,,,,11003,001,2023_Dec_29_1211,nback,2021.2.3,59.51321758807262,
1-back,instructions\back-1.png,conditions\1back-p.xlsx,instructions\1-BACK.png,practice,1,4,stim\gray.png,stim\gray.png,stim\gray.png,stim\yellow.png,up,0,0,0,0,0,1,1,1,0,6,6,6,,,,,,,,,,,,,,,,,,,,,,,,,,,69.96299900000304,70.96535969999968,69.96299900000304,70.96535969999968,69.96299900000304,70.96535969999968,69.96299900000304,70.96535969999968,up,1,69.96299900000304,None,69.96299900000304,None,69.96299900000304,70.46436079999694,69.96299900000304,70.46436079999694,69.96299900000304,70.46436079999694,69.96299900000304,70.46436079999694,69.96299900000304,None,0.8382057000053464,,,,,,,,,,,,,,,,,,,,,,,,,,,,,,,,,,,,,,,,,,11003,001,2023_Dec_29_1211,nback,2021.2.3,59.51321758807262,
1-back,instructions\back-1.png,conditions\1back-p.xlsx,instructions\1-BACK.png,practice,1,3,stim\gray.png,stim\gray.png,stim\yellow.png,stim\gray.png,down,0,0,0,0,0,1,1,1,0,7,7,7,,,,,,,,,,,,,,,,,,,,,,,,,,,71.46589929999755,72.46829460000299,71.46589929999755,72.46829460000299,71.46589929999755,72.46829460000299,71.46589929999755,72.46829460000299,None,0,71.46589929999755,None,71.46589929999755,None,71.46589929999755,71.96667760000128,71.46589929999755,71.96667760000128,71.46589929999755,71.96667760000128,71.46589929999755,71.96667760000128,71.46589929999755,None,,,,,,,,,,,,,,,,,,,,,,,,,,,,,,,,,,,,,,,,,,,11003,001,2023_Dec_29_1211,nback,2021.2.3,59.51321758807262,
1-back,instructions\back-1.png,conditions\1back-p.xlsx,instructions\1-BACK.png,practice,1,3,stim\gray.png,stim\gray.png,stim\yellow.png,stim\gray.png,right,0,0,0,0,0,1,1,1,0,8,8,8,,,,,,,,,,,,,,,,,,,,,,,,,,,72.9681808000023,73.96932760000345,72.9681808000023,73.96932760000345,72.9681808000023,73.96932760000345,72.9681808000023,73.96932760000345,right,1,72.9681808000023,None,72.9681808000023,None,72.9681808000023,73.46857740000269,72.9681808000023,73.46857740000269,72.9681808000023,73.46857740000269,72.9681808000023,73.46857740000269,72.9681808000023,None,1.0500159000002895,,,,,,,,,,,,,,,,,,,,,,,,,,,,,,,,,,,,,,,,,,11003,001,2023_Dec_29_1211,nback,2021.2.3,59.51321758807262,
1-back,instructions\back-1.png,conditions\1back-p.xlsx,instructions\1-BACK.png,practice,1,4,stim\gray.png,stim\gray.png,stim\gray.png,stim\yellow.png,right,0,0,0,0,0,1,1,1,0,9,9,9,,,,,,,,,,,,,,,,,,,,,,,,,,,74.47061630000098,75.47181960000307,74.47061630000098,75.47181960000307,74.47061630000098,75.47181960000307,74.47061630000098,75.47181960000307,None,0,74.47061630000098,None,74.47061630000098,None,74.47061630000098,74.97044409999944,74.47061630000098,74.97044409999944,74.47061630000098,74.97044409999944,74.47061630000098,74.97044409999944,74.47061630000098,None,,,,,,,,,,,,,,,,,,,,,,,,,,,,,,,,,,,,,,,,,,,11003,001,2023_Dec_29_1211,nback,2021.2.3,59.51321758807262,
1-back,instructions\back-1.png,conditions\1back-p.xlsx,instructions\1-BACK.png,practice,1,1,stim\yellow.png,stim\gray.png,stim\gray.png,stim\gray.png,down,0,0,0,0,0,1,1,1,0,10,10,10,,,,,,,,,,,,,,,,,,,,,,,,,,,75.97205380000378,76.97382130000187,75.97205380000378,76.97382130000187,75.97205380000378,76.97382130000187,75.97205380000378,76.97382130000187,down,1,75.97205380000378,None,75.97205380000378,None,75.97205380000378,76.47320330000366,75.97205380000378,76.47320330000366,75.97205380000378,76.47320330000366,75.97205380000378,76.47320330000366,75.97205380000378,None,1.252939999998489,,,,,,,,,,,,,,,,,,,,,,,,,,,,,,,,,,,,,,,,,,11003,001,2023_Dec_29_1211,nback,2021.2.3,59.51321758807262,
1-back,instructions\back-1.png,conditions\1back-p.xlsx,instructions\1-BACK.png,practice,1,2,stim\gray.png,stim\yellow.png,stim\gray.png,stim\gray.png,up,0,0,0,0,0,1,1,1,0,11,11,11,,,,,,,,,,,,,,,,,,,,,,,,,,,77.47413909999887,78.4756103999971,77.47413909999887,78.4756103999971,77.47413909999887,78.4756103999971,77.47413909999887,78.4756103999971,None,0,77.47413909999887,None,77.47413909999887,None,77.47413909999887,77.97491440000158,77.47413909999887,77.97491440000158,77.47413909999887,77.97491440000158,77.47413909999887,77.97491440000158,77.47413909999887,None,,,,,,,,,,,,,,,,,,,,,,,,,,,,,,,,,,,,,,,,,,,11003,001,2023_Dec_29_1211,nback,2021.2.3,59.51321758807262,
1-back,instructions\back-1.png,conditions\1back-p.xlsx,instructions\1-BACK.png,practice,1,4,stim\gray.png,stim\gray.png,stim\gray.png,stim\yellow.png,left,0,0,0,0,0,1,1,1,0,12,12,12,,,,,,,,,,,,,,,,,,,,,,,,,,,78.97642269999778,79.97792320000008,78.97642269999778,79.97792320000008,78.97642269999778,79.97792320000008,78.97642269999778,79.97792320000008,None,0,78.97642269999778,None,78.97642269999778,None,78.97642269999778,79.47799569999916,78.97642269999778,79.47799569999916,78.97642269999778,79.47799569999916,78.97642269999778,79.47799569999916,78.97642269999778,None,,,,,,,,,,,,,,,,,,,,,,,,,,,,,,,,,,,,,,,,,,,11003,001,2023_Dec_29_1211,nback,2021.2.3,59.51321758807262,
1-back,instructions\back-1.png,conditions\1back-p.xlsx,instructions\1-BACK.png,practice,1,3,stim\gray.png,stim\gray.png,stim\yellow.png,stim\gray.png,down,0,0,0,0,0,1,1,1,0,13,13,13,,,,,,,,,,,,,,,,,,,,,,,,,,,80.47847100000217,81.48017660000187,80.47847100000217,81.48017660000187,80.47847100000217,81.48017660000187,80.47847100000217,81.48017660000187,None,0,80.47847100000217,None,80.47847100000217,None,80.47847100000217,80.97956140000315,80.47847100000217,80.97956140000315,80.47847100000217,80.97956140000315,80.47847100000217,80.97956140000315,80.47847100000217,None,,,,,,,,,,,,,,,,,,,,,,,,,,,,,,,,,,,,,,,,,,,11003,001,2023_Dec_29_1211,nback,2021.2.3,59.51321758807262,
1-back,instructions\back-1.png,conditions\1back-p.xlsx,instructions\1-BACK.png,practice,1,1,stim\yellow.png,stim\gray.png,stim\gray.png,stim\gray.png,right,0,0,0,0,0,1,1,1,0,14,14,14,,,,,,,,,,,,,,,,,,,,,,,,,,,81.96397470000375,82.96566359999997,81.96397470000375,82.96566359999997,81.96397470000375,82.96566359999997,81.96397470000375,82.96566359999997,right,1,81.96397470000375,None,81.96397470000375,None,81.96397470000375,82.46587410000211,81.96397470000375,82.46587410000211,81.96397470000375,82.46587410000211,81.96397470000375,82.46587410000211,81.96397470000375,None,0.8373360999976285,,,,,,,,,,,,,,,,,,,,,,,,,,,,,,,,,,,,,,,,,,11003,001,2023_Dec_29_1211,nback,2021.2.3,59.51321758807262,
1-back,instructions\back-1.png,conditions\1back-p.xlsx,instructions\1-BACK.png,practice,1,2,stim\gray.png,stim\yellow.png,stim\gray.png,stim\gray.png,up,0,0,0,0,0,1,1,1,0,15,15,15,,,,,,,,,,,,,,,,,,,,,,,,,,,83.46704619999946,84.46836510000139,83.46704619999946,84.46836510000139,83.46704619999946,84.46836510000139,83.46704619999946,84.46836510000139,None,0,83.46704619999946,None,83.46704619999946,None,83.46704619999946,83.96784669999761,83.46704619999946,83.96784669999761,83.46704619999946,83.96784669999761,83.46704619999946,83.96784669999761,83.46704619999946,None,,,,,,,,,,,,,,,,,,,,,,,,,,,,,,,,,,,,,,,,,,,11003,001,2023_Dec_29_1211,nback,2021.2.3,59.51321758807262,
1-back,instructions\back-1.png,conditions\1back-p.xlsx,instructions\1-BACK.png,practice,1,3,stim\gray.png,stim\gray.png,stim\yellow.png,stim\gray.png,left,0,0,0,0,0,1,1,1,0,16,16,16,,,,,,,,,,,,,,,,,,,,,,,,,,,84.96846699999878,85.97017529999721,84.96846699999878,85.97017529999721,84.96846699999878,85.97017529999721,84.96846699999878,85.97017529999721,right,0,84.96846699999878,None,84.96846699999878,None,84.96846699999878,85.46939089999796,84.96846699999878,85.46939089999796,84.96846699999878,85.46939089999796,84.96846699999878,85.46939089999796,84.96846699999878,None,1.2650288000004366,,,,,,,,,,,,,,,,,,,,,,,,,,,,,,,,,,,,,,,,,,11003,001,2023_Dec_29_1211,nback,2021.2.3,59.51321758807262,
1-back,instructions\back-1.png,conditions\1back-p.xlsx,instructions\1-BACK.png,practice,1,1,stim\yellow.png,stim\gray.png,stim\gray.png,stim\gray.png,right,0,0,0,0,0,1,1,1,0,17,17,17,,,,,,,,,,,,,,,,,,,,,,,,,,,86.47074869999778,87.47324110000045,86.47074869999778,87.47324110000045,86.47074869999778,87.47324110000045,86.47074869999778,87.47324110000045,None,0,86.47074869999778,None,86.47074869999778,None,86.47074869999778,86.97173230000044,86.47074869999778,86.97173230000044,86.47074869999778,86.97173230000044,86.47074869999778,86.97173230000044,86.47074869999778,None,,,,,,,,,,,,,,,,,,,,,,,,,,,,,,,,,,,,,,,,,,,11003,001,2023_Dec_29_1211,nback,2021.2.3,59.51321758807262,
1-back,instructions\back-1.png,conditions\1back-p.xlsx,instructions\1-BACK.png,practice,1,4,stim\gray.png,stim\gray.png,stim\gray.png,stim\yellow.png,up,0,0,0,0,0,1,1,1,0,18,18,18,,,,,,,,,,,,,,,,,,,,,,,,,,,87.97306920000119,88.97564540000167,87.97306920000119,88.97564540000167,87.97306920000119,88.97564540000167,87.97306920000119,88.97564540000167,down,0,87.97306920000119,None,87.97306920000119,None,87.97306920000119,88.4737341,87.97306920000119,88.4737341,87.97306920000119,88.4737341,87.97306920000119,88.4737341,87.97306920000119,None,0.8601488000058453,,,,,,,,,,,,,,,,,,,,,,,,,,,,,,,,,,,,,,,,,,11003,001,2023_Dec_29_1211,nback,2021.2.3,59.51321758807262,
1-back,instructions\back-1.png,conditions\1back-p.xlsx,instructions\1-BACK.png,practice,1,2,stim\gray.png,stim\yellow.png,stim\gray.png,stim\gray.png,down,0,0,0,0,0,1,1,1,0,19,19,19,,,,,,,,,,,,,,,,,,,,,,,,,,,89.47672379999858,90.47698590000073,89.47672379999858,90.47698590000073,89.47672379999858,90.47698590000073,89.47672379999858,90.47698590000073,None,0,89.47672379999858,None,89.47672379999858,None,89.47672379999858,89.9765206000011,89.47672379999858,89.9765206000011,89.47672379999858,89.9765206000011,89.47672379999858,89.9765206000011,89.47672379999858,None,,,,,,,,,,,,,,,,,,,,,,,,,,,,,,,,,,,,,,,,,,,11003,001,2023_Dec_29_1211,nback,2021.2.3,59.51321758807262,
1-back,instructions\back-1.png,conditions\1back-p.xlsx,instructions\1-BACK.png,,,,,,,,,0,0,0,0,0,1,1,1,,,,,,,,,,,,,,,,,,,,,,,,,,,,,,,,,,,,,,,,,,,,,,,,,,,,,,,,,,,,,,,,,,,,,,,,,,,,,,,,,,,,,,,,,,,,,,,,,11003,001,2023_Dec_29_1211,nback,2021.2.3,59.51321758807262,
2-back,instructions\back-2.png,conditions\2back-p.xlsx,instructions\2-BACK.png,practice,2,1,stim\yellow.png,stim\gray.png,stim\gray.png,stim\gray.png,None,0,0,0,0,0,2,2,2,0,0,0,0,,,,,,,,,,,,,,,,,91.11135279999871,None,space,18.37763239999913,91.11135279999871,None,109.6548821000033,114.16224520000105,114.12872320000315,None,114.52893770000082,115.53043640000396,114.52893770000082,115.53043640000396,114.52893770000082,115.53043640000396,114.52893770000082,115.53043640000396,None,1,114.52893770000082,None,114.52893770000082,None,114.52893770000082,115.03004399999918,114.52893770000082,115.03004399999918,114.52893770000082,115.03004399999918,114.52893770000082,115.03004399999918,114.52893770000082,None,,,,,,,,,,,,,,,,,,,,,,,,,,,,,,,,,,,,,,,,,,,11003,001,2023_Dec_29_1211,nback,2021.2.3,59.51321758807262,
2-back,instructions\back-2.png,conditions\2back-p.xlsx,instructions\2-BACK.png,practice,2,2,stim\gray.png,stim\yellow.png,stim\gray.png,stim\gray.png,None,0,0,0,0,0,2,2,2,0,1,1,1,,,,,,,,,,,,,,,,,,,,,,,,,,,116.01528829999734,117.0160035000008,116.01528829999734,117.0160035000008,116.01528829999734,117.0160035000008,116.01528829999734,117.0160035000008,None,1,116.01528829999734,None,116.01528829999734,None,116.01528829999734,116.51536889999988,116.01528829999734,116.51536889999988,116.01528829999734,116.51536889999988,116.01528829999734,116.51536889999988,116.01528829999734,None,,,,,,,,,,,,,,,,,,,,,,,,,,,,,,,,,,,,,,,,,,,11003,001,2023_Dec_29_1211,nback,2021.2.3,59.51321758807262,
2-back,instructions\back-2.png,conditions\2back-p.xlsx,instructions\2-BACK.png,practice,2,3,stim\gray.png,stim\gray.png,stim\yellow.png,stim\gray.png,up,0,0,0,0,0,2,2,2,0,2,2,2,,,,,,,,,,,,,,,,,,,,,,,,,,,117.51714499999798,118.51827369999955,117.51714499999798,118.51827369999955,117.51714499999798,118.51827369999955,117.51714499999798,118.51827369999955,up,1,117.51714499999798,None,117.51714499999798,None,117.51714499999798,118.01832909999939,117.51714499999798,118.01832909999939,117.51714499999798,118.01832909999939,117.51714499999798,118.01832909999939,117.51714499999798,None,0.8845306000002893,,,,,,,,,,,,,,,,,,,,,,,,,,,,,,,,,,,,,,,,,,11003,001,2023_Dec_29_1211,nback,2021.2.3,59.51321758807262,
2-back,instructions\back-2.png,conditions\2back-p.xlsx,instructions\2-BACK.png,practice,2,4,stim\gray.png,stim\gray.png,stim\gray.png,stim\yellow.png,left,0,0,0,0,0,2,2,2,0,3,3,3,,,,,,,,,,,,,,,,,,,,,,,,,,,119.01989529999992,120.0205661,119.01989529999992,120.0205661,119.01989529999992,120.0205661,119.01989529999992,120.0205661,None,0,119.01989529999992,None,119.01989529999992,None,119.01989529999992,119.51977430000261,119.01989529999992,119.51977430000261,119.01989529999992,119.51977430000261,119.01989529999992,119.51977430000261,119.01989529999992,None,,,,,,,,,,,,,,,,,,,,,,,,,,,,,,,,,,,,,,,,,,,11003,001,2023_Dec_29_1211,nback,2021.2.3,59.51321758807262,
2-back,instructions\back-2.png,conditions\2back-p.xlsx,instructions\2-BACK.png,practice,2,2,stim\gray.png,stim\yellow.png,stim\gray.png,stim\gray.png,right,0,0,0,0,0,2,2,2,0,4,4,4,,,,,,,,,,,,,,,,,,,,,,,,,,,120.52125150000211,121.52285200000188,120.52125150000211,121.52285200000188,120.52125150000211,121.52285200000188,120.52125150000211,121.52285200000188,left,0,120.52125150000211,None,120.52125150000211,None,120.52125150000211,121.02192220000143,120.52125150000211,121.02192220000143,120.52125150000211,121.02192220000143,120.52125150000211,121.02192220000143,120.52125150000211,None,0.008070099996984936,,,,,,,,,,,,,,,,,,,,,,,,,,,,,,,,,,,,,,,,,,11003,001,2023_Dec_29_1211,nback,2021.2.3,59.51321758807262,
2-back,instructions\back-2.png,conditions\2back-p.xlsx,instructions\2-BACK.png,practice,2,1,stim\yellow.png,stim\gray.png,stim\gray.png,stim\gray.png,down,0,0,0,0,0,2,2,2,0,5,5,5,,,,,,,,,,,,,,,,,,,,,,,,,,,122.02385830000276,123.02582760000223,122.02385830000276,123.02582760000223,122.02385830000276,123.02582760000223,122.02385830000276,123.02582760000223,up,0,122.02385830000276,None,122.02385830000276,None,122.02385830000276,122.52428350000264,122.02385830000276,122.52428350000264,122.02385830000276,122.52428350000264,122.02385830000276,122.52428350000264,122.02385830000276,None,1.1932860999950208,,,,,,,,,,,,,,,,,,,,,,,,,,,,,,,,,,,,,,,,,,11003,001,2023_Dec_29_1211,nback,2021.2.3,59.51321758807262,
2-back,instructions\back-2.png,conditions\2back-p.xlsx,instructions\2-BACK.png,practice,2,4,stim\gray.png,stim\gray.png,stim\gray.png,stim\yellow.png,left,0,0,0,0,0,2,2,2,0,6,6,6,,,,,,,,,,,,,,,,,,,,,,,,,,,123.52583579999919,124.52723100000003,123.52583579999919,124.52723100000003,123.52583579999919,124.52723100000003,123.52583579999919,124.52723100000003,None,0,123.52583579999919,None,123.52583579999919,None,123.52583579999919,124.02675090000412,123.52583579999919,124.02675090000412,123.52583579999919,124.02675090000412,123.52583579999919,124.02675090000412,123.52583579999919,None,,,,,,,,,,,,,,,,,,,,,,,,,,,,,,,,,,,,,,,,,,,11003,001,2023_Dec_29_1211,nback,2021.2.3,59.51321758807262,
2-back,instructions\back-2.png,conditions\2back-p.xlsx,instructions\2-BACK.png,practice,2,3,stim\gray.png,stim\gray.png,stim\yellow.png,stim\gray.png,up,0,0,0,0,0,2,2,2,0,7,7,7,,,,,,,,,,,,,,,,,,,,,,,,,,,125.01124859999982,126.01391110000259,125.01124859999982,126.01391110000259,125.01124859999982,126.01391110000259,125.01124859999982,126.01391110000259,left,0,125.01124859999982,None,125.01124859999982,None,125.01124859999982,125.51264850000007,125.01124859999982,125.51264850000007,125.01124859999982,125.51264850000007,125.01124859999982,125.51264850000007,125.01124859999982,None,0.45381459999771323,,,,,,,,,,,,,,,,,,,,,,,,,,,,,,,,,,,,,,,,,,11003,001,2023_Dec_29_1211,nback,2021.2.3,59.51321758807262,
2-back,instructions\back-2.png,conditions\2back-p.xlsx,instructions\2-BACK.png,practice,2,3,stim\gray.png,stim\gray.png,stim\yellow.png,stim\gray.png,down,0,0,0,0,0,2,2,2,0,8,8,8,,,,,,,,,,,,,,,,,,,,,,,,,,,126.51355270000204,127.51657539999724,126.51355270000204,127.51657539999724,126.51355270000204,127.51657539999724,126.51355270000204,127.51657539999724,None,0,126.51355270000204,None,126.51355270000204,None,126.51355270000204,127.0147008999993,126.51355270000204,127.0147008999993,126.51355270000204,127.0147008999993,126.51355270000204,127.0147008999993,126.51355270000204,None,,,,,,,,,,,,,,,,,,,,,,,,,,,,,,,,,,,,,,,,,,,11003,001,2023_Dec_29_1211,nback,2021.2.3,59.51321758807262,
2-back,instructions\back-2.png,conditions\2back-p.xlsx,instructions\2-BACK.png,practice,2,4,stim\gray.png,stim\gray.png,stim\gray.png,stim\yellow.png,right,0,0,0,0,0,2,2,2,0,9,9,9,,,,,,,,,,,,,,,,,,,,,,,,,,,128.0164769999974,129.0172292999996,128.0164769999974,129.0172292999996,128.0164769999974,129.0172292999996,128.0164769999974,129.0172292999996,left,0,128.0164769999974,None,128.0164769999974,None,128.0164769999974,128.51648209999985,128.0164769999974,128.51648209999985,128.0164769999974,128.51648209999985,128.0164769999974,128.51648209999985,128.0164769999974,None,0.009047100000316277,,,,,,,,,,,,,,,,,,,,,,,,,,,,,,,,,,,,,,,,,,11003,001,2023_Dec_29_1211,nback,2021.2.3,59.51321758807262,
2-back,instructions\back-2.png,conditions\2back-p.xlsx,instructions\2-BACK.png,practice,2,1,stim\yellow.png,stim\gray.png,stim\gray.png,stim\gray.png,right,0,0,0,0,0,2,2,2,0,10,10,10,,,,,,,,,,,,,,,,,,,,,,,,,,,129.5180193999986,130.51983589999872,129.5180193999986,130.51983589999872,129.5180193999986,130.51983589999872,129.5180193999986,130.51983589999872,None,0,129.5180193999986,None,129.5180193999986,None,129.5180193999986,130.0186767999985,129.5180193999986,130.0186767999985,129.5180193999986,130.0186767999985,129.5180193999986,130.0186767999985,129.5180193999986,None,,,,,,,,,,,,,,,,,,,,,,,,,,,,,,,,,,,,,,,,,,,11003,001,2023_Dec_29_1211,nback,2021.2.3,59.51321758807262,
2-back,instructions\back-2.png,conditions\2back-p.xlsx,instructions\2-BACK.png,practice,2,2,stim\gray.png,stim\yellow.png,stim\gray.png,stim\gray.png,down,0,0,0,0,0,2,2,2,0,11,11,11,,,,,,,,,,,,,,,,,,,,,,,,,,,131.02079880000383,132.022438400003,131.02079880000383,132.022438400003,131.02079880000383,132.022438400003,131.02079880000383,132.022438400003,None,0,131.02079880000383,None,131.02079880000383,None,131.02079880000383,131.52099389999785,131.02079880000383,131.52099389999785,131.02079880000383,131.52099389999785,131.02079880000383,131.52099389999785,131.02079880000383,None,,,,,,,,,,,,,,,,,,,,,,,,,,,,,,,,,,,,,,,,,,,11003,001,2023_Dec_29_1211,nback,2021.2.3,59.51321758807262,
2-back,instructions\back-2.png,conditions\2back-p.xlsx,instructions\2-BACK.png,practice,2,4,stim\gray.png,stim\gray.png,stim\gray.png,stim\yellow.png,up,0,0,0,0,0,2,2,2,0,12,12,12,,,,,,,,,,,,,,,,,,,,,,,,,,,132.52238880000368,133.52399259999947,132.52238880000368,133.52399259999947,132.52238880000368,133.52399259999947,132.52238880000368,133.52399259999947,up,1,132.52238880000368,None,132.52238880000368,None,132.52238880000368,133.02310769999895,132.52238880000368,133.02310769999895,132.52238880000368,133.02310769999895,132.52238880000368,133.02310769999895,132.52238880000368,None,0.40697549999458715,,,,,,,,,,,,,,,,,,,,,,,,,,,,,,,,,,,,,,,,,,11003,001,2023_Dec_29_1211,nback,2021.2.3,59.51321758807262,
2-back,instructions\back-2.png,conditions\2back-p.xlsx,instructions\2-BACK.png,practice,2,3,stim\gray.png,stim\gray.png,stim\yellow.png,stim\gray.png,left,0,0,0,0,0,2,2,2,0,13,13,13,,,,,,,,,,,,,,,,,,,,,,,,,,,134.02464589999727,135.02640590000374,134.02464589999727,135.02640590000374,134.02464589999727,135.02640590000374,134.02464589999727,135.02640590000374,left,1,134.02464589999727,None,134.02464589999727,None,134.02464589999727,134.5254896999977,134.02464589999727,134.5254896999977,134.02464589999727,134.5254896999977,134.02464589999727,134.5254896999977,134.02464589999727,None,0.39272989999881247,,,,,,,,,,,,,,,,,,,,,,,,,,,,,,,,,,,,,,,,,,11003,001,2023_Dec_29_1211,nback,2021.2.3,59.51321758807262,
2-back,instructions\back-2.png,conditions\2back-p.xlsx,instructions\2-BACK.png,practice,2,1,stim\yellow.png,stim\gray.png,stim\gray.png,stim\gray.png,down,0,0,0,0,0,2,2,2,0,14,14,14,,,,,,,,,,,,,,,,,,,,,,,,,,,135.51014350000332,136.51201269999729,135.51014350000332,136.51201269999729,135.51014350000332,136.51201269999729,135.51014350000332,136.51201269999729,None,0,135.51014350000332,None,135.51014350000332,None,135.51014350000332,136.01146580000204,135.51014350000332,136.01146580000204,135.51014350000332,136.01146580000204,135.51014350000332,136.01146580000204,135.51014350000332,None,,,,,,,,,,,,,,,,,,,,,,,,,,,,,,,,,,,,,,,,,,,11003,001,2023_Dec_29_1211,nback,2021.2.3,59.51321758807262,
2-back,instructions\back-2.png,conditions\2back-p.xlsx,instructions\2-BACK.png,practice,2,2,stim\gray.png,stim\yellow.png,stim\gray.png,stim\gray.png,right,0,0,0,0,0,2,2,2,0,15,15,15,,,,,,,,,,,,,,,,,,,,,,,,,,,137.01229839999723,138.01442620000307,137.01229839999723,138.01442620000307,137.01229839999723,138.01442620000307,137.01229839999723,138.01442620000307,left,0,137.01229839999723,None,137.01229839999723,None,137.01229839999723,137.51373869999952,137.01229839999723,137.51373869999952,137.01229839999723,137.51373869999952,137.01229839999723,137.51373869999952,137.01229839999723,None,1.3091314999983297,,,,,,,,,,,,,,,,,,,,,,,,,,,,,,,,,,,,,,,,,,11003,001,2023_Dec_29_1211,nback,2021.2.3,59.51321758807262,
2-back,instructions\back-2.png,conditions\2back-p.xlsx,instructions\2-BACK.png,practice,2,3,stim\gray.png,stim\gray.png,stim\yellow.png,stim\gray.png,up,0,0,0,0,0,2,2,2,0,16,16,16,,,,,,,,,,,,,,,,,,,,,,,,,,,138.51462729999912,139.51659759999893,138.51462729999912,139.51659759999893,138.51462729999912,139.51659759999893,138.51462729999912,139.51659759999893,None,0,138.51462729999912,None,138.51462729999912,None,138.51462729999912,139.0160762000014,138.51462729999912,139.0160762000014,138.51462729999912,139.0160762000014,138.51462729999912,139.0160762000014,138.51462729999912,None,,,,,,,,,,,,,,,,,,,,,,,,,,,,,,,,,,,,,,,,,,,11003,001,2023_Dec_29_1211,nback,2021.2.3,59.51321758807262,
2-back,instructions\back-2.png,conditions\2back-p.xlsx,instructions\2-BACK.png,practice,2,1,stim\yellow.png,stim\gray.png,stim\gray.png,stim\gray.png,left,0,0,0,0,0,2,2,2,0,17,17,17,,,,,,,,,,,,,,,,,,,,,,,,,,,140.01691009999922,141.0180554000035,140.01691009999922,141.0180554000035,140.01691009999922,141.0180554000035,140.01691009999922,141.0180554000035,down,0,140.01691009999922,None,140.01691009999922,None,140.01691009999922,140.5175767999972,140.01691009999922,140.5175767999972,140.01691009999922,140.5175767999972,140.01691009999922,140.5175767999972,140.01691009999922,None,0.6486746999944444,,,,,,,,,,,,,,,,,,,,,,,,,,,,,,,,,,,,,,,,,,11003,001,2023_Dec_29_1211,nback,2021.2.3,59.51321758807262,
2-back,instructions\back-2.png,conditions\2back-p.xlsx,instructions\2-BACK.png,practice,2,4,stim\gray.png,stim\gray.png,stim\gray.png,stim\yellow.png,right,0,0,0,0,0,2,2,2,0,18,18,18,,,,,,,,,,,,,,,,,,,,,,,,,,,141.51916640000127,142.5205857999972,141.51916640000127,142.5205857999972,141.51916640000127,142.5205857999972,141.51916640000127,142.5205857999972,None,0,141.51916640000127,None,141.51916640000127,None,141.51916640000127,142.02036139999836,141.51916640000127,142.02036139999836,141.51916640000127,142.02036139999836,141.51916640000127,142.02036139999836,141.51916640000127,None,,,,,,,,,,,,,,,,,,,,,,,,,,,,,,,,,,,,,,,,,,,11003,001,2023_Dec_29_1211,nback,2021.2.3,59.51321758807262,
2-back,instructions\back-2.png,conditions\2back-p.xlsx,instructions\2-BACK.png,practice,2,2,stim\gray.png,stim\yellow.png,stim\gray.png,stim\gray.png,up,0,0,0,0,0,2,2,2,0,19,19,19,,,,,,,,,,,,,,,,,,,,,,,,,,,143.02128850000008,144.02282440000272,143.02128850000008,144.02282440000272,143.02128850000008,144.02282440000272,143.02128850000008,144.02282440000272,None,0,143.02128850000008,None,143.02128850000008,None,143.02128850000008,143.52217550000205,143.02128850000008,143.52217550000205,143.02128850000008,143.52217550000205,143.02128850000008,143.52217550000205,143.02128850000008,None,,,,,,,,,,,,,,,,,,,,,,,,,,,,,,,,,,,,,,,,,,,11003,001,2023_Dec_29_1211,nback,2021.2.3,59.51321758807262,
2-back,instructions\back-2.png,conditions\2back-p.xlsx,instructions\2-BACK.png,,,,,,,,,0,0,0,0,0,2,2,2,,,,,,,,,,,,,,,,,,,,,,,,,,,,,,,,,,,,,,,,,,,,,,,,,,,,,,,,,,,,,,,,,,,,,,,,,,,,,,,,,,,,,,,,,,,,,,,,,11003,001,2023_Dec_29_1211,nback,2021.2.3,59.51321758807262,
,,,,,,,,,,,,0,0,0,0,,,,,,,,,,,,,,,,,,,,,,,,,,,,,,,,,,,,,,,,,,,,,,,,,,,,,,,,,,,,144.52354229999764,None,space,7.822101699995983,144.52354229999764,None,,,,,,,,,,,,,,,,,,,,,,,,,,,,,,,,,,,,11003,001,2023_Dec_29_1211,nback,2021.2.3,59.51321758807262,
,,,,,,,,,,,,,,,,,,,,,,,,,,,,,,,,,,,,,,,,,,,,,,,,,,,,,,,,,,,,,,,,,,,,,,,,,,,,,,,,,152.3685536999983,None,space,2.808714200000395,152.3685536999983,None,,,,,,,,,,,,,,,,,,,,,,,,,,,,,,11003,001,2023_Dec_29_1211,nback,2021.2.3,59.51321758807262,
1-back,instructions\back-1.png,conditions\11back-e.xlsx,,experiment,1,3,stim\gray.png,stim\gray.png,stim\yellow.png,stim\gray.png,None,,,,,,,,,,,,,0,0,0,5,0,0,0,0,,,,,,,,,,,,,,,155.38871030000155,159.8972442000013,159.86339550000412,None,,,,,,,,,,,,,,,,,,,,,,,,,,,,,,,,,,,,,,None,1,160.23005790000025,None,160.23005790000025,None,160.23005790000025,161.23192869999912,160.23005790000025,161.23192869999912,160.23005790000025,161.23192869999912,160.23005790000025,161.23192869999912,160.23005790000025,160.73087320000195,160.23005790000025,160.73087320000195,160.23005790000025,160.73087320000195,160.23005790000025,160.73087320000195,160.23005790000025,None,,,,,,11003,001,2023_Dec_29_1211,nback,2021.2.3,59.51321758807262,
1-back,instructions\back-1.png,conditions\11back-e.xlsx,,experiment,1,1,stim\yellow.png,stim\gray.png,stim\gray.png,stim\gray.png,right,,,,,,,,,,,,,0,0,0,5,0,1,1,1,,,,,,,,,,,,,,,,,,,,,,,,,,,,,,,,,,,,,,,,,,,,,,,,,,,,,,,,up,0,161.7161780000024,None,161.7161780000024,None,161.7161780000024,162.71939389999898,161.7161780000024,162.71939389999898,161.7161780000024,162.71939389999898,161.7161780000024,162.71939389999898,161.7161780000024,162.21692220000114,161.7161780000024,162.21692220000114,161.7161780000024,162.21692220000114,161.7161780000024,162.21692220000114,161.7161780000024,None,1.4290107000051648,,,,,11003,001,2023_Dec_29_1211,nback,2021.2.3,59.51321758807262,
1-back,instructions\back-1.png,conditions\11back-e.xlsx,,experiment,1,4,stim\gray.png,stim\gray.png,stim\gray.png,stim\yellow.png,up,,,,,,,,,,,,,0,0,0,5,0,2,2,2,,,,,,,,,,,,,,,,,,,,,,,,,,,,,,,,,,,,,,,,,,,,,,,,,,,,,,,,None,0,163.21764960000291,None,163.21764960000291,None,163.21764960000291,164.2196236000018,163.21764960000291,164.2196236000018,163.21764960000291,164.2196236000018,163.21764960000291,164.2196236000018,163.21764960000291,163.7190163999985,163.21764960000291,163.7190163999985,163.21764960000291,163.7190163999985,163.21764960000291,163.7190163999985,163.21764960000291,None,,,,,,11003,001,2023_Dec_29_1211,nback,2021.2.3,59.51321758807262,
1-back,instructions\back-1.png,conditions\11back-e.xlsx,,experiment,1,2,stim\gray.png,stim\yellow.png,stim\gray.png,stim\gray.png,down,,,,,,,,,,,,,0,0,0,5,0,3,3,3,,,,,,,,,,,,,,,,,,,,,,,,,,,,,,,,,,,,,,,,,,,,,,,,,,,,,,,,None,0,164.72013549999974,None,164.72013549999974,None,164.72013549999974,165.7225860000035,164.72013549999974,165.7225860000035,164.72013549999974,165.7225860000035,164.72013549999974,165.7225860000035,164.72013549999974,165.22154030000092,164.72013549999974,165.22154030000092,164.72013549999974,165.22154030000092,164.72013549999974,165.22154030000092,164.72013549999974,None,,,,,,11003,001,2023_Dec_29_1211,nback,2021.2.3,59.51321758807262,
1-back,instructions\back-1.png,conditions\11back-e.xlsx,,experiment,1,1,stim\yellow.png,stim\gray.png,stim\gray.png,stim\gray.png,left,,,,,,,,,,,,,0,0,0,5,0,4,4,4,,,,,,,,,,,,,,,,,,,,,,,,,,,,,,,,,,,,,,,,,,,,,,,,,,,,,,,,down,0,166.22266530000343,None,166.22266530000343,None,166.22266530000343,167.22423870000057,166.22266530000343,167.22423870000057,166.22266530000343,167.22423870000057,166.22266530000343,167.22423870000057,166.22266530000343,166.7230122999972,166.22266530000343,166.7230122999972,166.22266530000343,166.7230122999972,166.22266530000343,166.7230122999972,166.22266530000343,None,0.2508181999946828,,,,,11003,001,2023_Dec_29_1211,nback,2021.2.3,59.51321758807262,
1-back,instructions\back-1.png,conditions\11back-e.xlsx,,experiment,1,2,stim\gray.png,stim\yellow.png,stim\gray.png,stim\gray.png,up,,,,,,,,,,,,,0,0,0,5,0,5,5,5,,,,,,,,,,,,,,,,,,,,,,,,,,,,,,,,,,,,,,,,,,,,,,,,,,,,,,,,None,0,167.72453159999714,None,167.72453159999714,None,167.72453159999714,168.72716670000227,167.72453159999714,168.72716670000227,167.72453159999714,168.72716670000227,167.72453159999714,168.72716670000227,167.72453159999714,168.2260282999996,167.72453159999714,168.2260282999996,167.72453159999714,168.2260282999996,167.72453159999714,168.2260282999996,167.72453159999714,None,,,,,,11003,001,2023_Dec_29_1211,nback,2021.2.3,59.51321758807262,
1-back,instructions\back-1.png,conditions\11back-e.xlsx,,experiment,1,3,stim\gray.png,stim\gray.png,stim\yellow.png,stim\gray.png,left,,,,,,,,,,,,,0,0,0,5,0,6,6,6,,,,,,,,,,,,,,,,,,,,,,,,,,,,,,,,,,,,,,,,,,,,,,,,,,,,,,,,left,1,169.2107640000031,None,169.2107640000031,None,169.2107640000031,170.21258020000096,169.2107640000031,170.21258020000096,169.2107640000031,170.21258020000096,169.2107640000031,170.21258020000096,169.2107640000031,169.7112541000024,169.2107640000031,169.7112541000024,169.2107640000031,169.7112541000024,169.2107640000031,169.7112541000024,169.2107640000031,None,1.0144207000048482,,,,,11003,001,2023_Dec_29_1211,nback,2021.2.3,59.51321758807262,
1-back,instructions\back-1.png,conditions\11back-e.xlsx,,experiment,1,4,stim\gray.png,stim\gray.png,stim\gray.png,stim\yellow.png,right,,,,,,,,,,,,,0,0,0,5,0,7,7,7,,,,,,,,,,,,,,,,,,,,,,,,,,,,,,,,,,,,,,,,,,,,,,,,,,,,,,,,None,0,170.7123567000017,None,170.7123567000017,None,170.7123567000017,171.714458800001,170.7123567000017,171.714458800001,170.7123567000017,171.714458800001,170.7123567000017,171.714458800001,170.7123567000017,171.21385790000204,170.7123567000017,171.21385790000204,170.7123567000017,171.21385790000204,170.7123567000017,171.21385790000204,170.7123567000017,None,,,,,,11003,001,2023_Dec_29_1211,nback,2021.2.3,59.51321758807262,
1-back,instructions\back-1.png,conditions\11back-e.xlsx,,experiment,1,4,stim\gray.png,stim\gray.png,stim\gray.png,stim\yellow.png,down,,,,,,,,,,,,,0,0,0,5,0,8,8,8,,,,,,,,,,,,,,,,,,,,,,,,,,,,,,,,,,,,,,,,,,,,,,,,,,,,,,,,None,0,172.21508200000244,None,172.21508200000244,None,172.21508200000244,173.2166645000034,172.21508200000244,173.2166645000034,172.21508200000244,173.2166645000034,172.21508200000244,173.2166645000034,172.21508200000244,172.71605860000273,172.21508200000244,172.71605860000273,172.21508200000244,172.71605860000273,172.21508200000244,172.71605860000273,172.21508200000244,None,,,,,,11003,001,2023_Dec_29_1211,nback,2021.2.3,59.51321758807262,
1-back,instructions\back-1.png,conditions\11back-e.xlsx,,experiment,1,3,stim\gray.png,stim\gray.png,stim\yellow.png,stim\gray.png,down,,,,,,,,,,,,,0,0,0,5,0,9,9,9,,,,,,,,,,,,,,,,,,,,,,,,,,,,,,,,,,,,,,,,,,,,,,,,,,,,,,,,right,0,173.71675259999756,None,173.71675259999756,None,173.71675259999756,174.71831440000096,173.71675259999756,174.71831440000096,173.71675259999756,174.71831440000096,173.71675259999756,174.71831440000096,173.71675259999756,174.21837919999962,173.71675259999756,174.21837919999962,173.71675259999756,174.21837919999962,173.71675259999756,174.21837919999962,173.71675259999756,None,0.4363926999940304,,,,,11003,001,2023_Dec_29_1211,nback,2021.2.3,59.51321758807262,
1-back,instructions\back-1.png,conditions\11back-e.xlsx,,experiment,1,1,stim\yellow.png,stim\gray.png,stim\gray.png,stim\gray.png,right,,,,,,,,,,,,,0,0,0,5,0,10,10,10,,,,,,,,,,,,,,,,,,,,,,,,,,,,,,,,,,,,,,,,,,,,,,,,,,,,,,,,None,0,175.21961980000196,None,175.21961980000196,None,175.21961980000196,176.22060280000005,175.21961980000196,176.22060280000005,175.21961980000196,176.22060280000005,175.21961980000196,176.22060280000005,175.21961980000196,175.72022930000094,175.21961980000196,175.72022930000094,175.21961980000196,175.72022930000094,175.21961980000196,175.72022930000094,175.21961980000196,None,,,,,,11003,001,2023_Dec_29_1211,nback,2021.2.3,59.51321758807262,
1-back,instructions\back-1.png,conditions\11back-e.xlsx,,experiment,1,2,stim\gray.png,stim\yellow.png,stim\gray.png,stim\gray.png,up,,,,,,,,,,,,,0,0,0,5,0,11,11,11,,,,,,,,,,,,,,,,,,,,,,,,,,,,,,,,,,,,,,,,,,,,,,,,,,,,,,,,None,0,176.72123170000123,None,176.72123170000123,None,176.72123170000123,177.7226759000041,176.72123170000123,177.7226759000041,176.72123170000123,177.7226759000041,176.72123170000123,177.7226759000041,176.72123170000123,177.2232942999981,176.72123170000123,177.2232942999981,176.72123170000123,177.2232942999981,176.72123170000123,177.2232942999981,176.72123170000123,None,,,,,,11003,001,2023_Dec_29_1211,nback,2021.2.3,59.51321758807262,
1-back,instructions\back-1.png,conditions\11back-e.xlsx,,experiment,1,3,stim\gray.png,stim\gray.png,stim\yellow.png,stim\gray.png,left,,,,,,,,,,,,,0,0,0,5,0,12,12,12,,,,,,,,,,,,,,,,,,,,,,,,,,,,,,,,,,,,,,,,,,,,,,,,,,,,,,,,up,0,178.22349920000124,None,178.22349920000124,None,178.22349920000124,179.22566070000175,178.22349920000124,179.22566070000175,178.22349920000124,179.22566070000175,178.22349920000124,179.22566070000175,178.22349920000124,178.72432619999745,178.22349920000124,178.72432619999745,178.22349920000124,178.72432619999745,178.22349920000124,178.72432619999745,178.22349920000124,None,0.12171130000206176,,,,,11003,001,2023_Dec_29_1211,nback,2021.2.3,59.51321758807262,
1-back,instructions\back-1.png,conditions\11back-e.xlsx,,experiment,1,4,stim\gray.png,stim\gray.png,stim\gray.png,stim\yellow.png,right,,,,,,,,,,,,,0,0,0,5,0,13,13,13,,,,,,,,,,,,,,,,,,,,,,,,,,,,,,,,,,,,,,,,,,,,,,,,,,,,,,,,right,1,179.72560779999912,None,179.72560779999912,None,179.72560779999912,180.72788880000007,179.72560779999912,180.72788880000007,179.72560779999912,180.72788880000007,179.72560779999912,180.72788880000007,179.72560779999912,180.22758359999716,179.72560779999912,180.22758359999716,179.72560779999912,180.22758359999716,179.72560779999912,180.22758359999716,179.72560779999912,None,0.8995620999994571,,,,,11003,001,2023_Dec_29_1211,nback,2021.2.3,59.51321758807262,
1-back,instructions\back-1.png,conditions\11back-e.xlsx,,experiment,1,1,stim\yellow.png,stim\gray.png,stim\gray.png,stim\gray.png,down,,,,,,,,,,,,,0,0,0,5,0,14,14,14,,,,,,,,,,,,,,,,,,,,,,,,,,,,,,,,,,,,,,,,,,,,,,,,,,,,,,,,down,1,181.21110469999985,None,181.21110469999985,None,181.21110469999985,182.21302580000338,181.21110469999985,182.21302580000338,181.21110469999985,182.21302580000338,181.21110469999985,182.21302580000338,181.21110469999985,181.712681099998,181.21110469999985,181.712681099998,181.21110469999985,181.712681099998,181.21110469999985,181.712681099998,181.21110469999985,None,0.7421663999994053,,,,,11003,001,2023_Dec_29_1211,nback,2021.2.3,59.51321758807262,
1-back,instructions\back-1.png,conditions\11back-e.xlsx,,experiment,1,2,stim\gray.png,stim\yellow.png,stim\gray.png,stim\gray.png,up,,,,,,,,,,,,,0,0,0,5,0,15,15,15,,,,,,,,,,,,,,,,,,,,,,,,,,,,,,,,,,,,,,,,,,,,,,,,,,,,,,,,None,0,182.7139881999974,None,182.7139881999974,None,182.7139881999974,183.7151223000037,182.7139881999974,183.7151223000037,182.7139881999974,183.7151223000037,182.7139881999974,183.7151223000037,182.7139881999974,183.21446480000304,182.7139881999974,183.21446480000304,182.7139881999974,183.21446480000304,182.7139881999974,183.21446480000304,182.7139881999974,None,,,,,,11003,001,2023_Dec_29_1211,nback,2021.2.3,59.51321758807262,
1-back,instructions\back-1.png,conditions\11back-e.xlsx,,experiment,1,2,stim\gray.png,stim\yellow.png,stim\gray.png,stim\gray.png,left,,,,,,,,,,,,,0,0,0,5,0,16,16,16,,,,,,,,,,,,,,,,,,,,,,,,,,,,,,,,,,,,,,,,,,,,,,,,,,,,,,,,left,1,184.21563700000115,None,184.21563700000115,None,184.21563700000115,185.217664900003,184.21563700000115,185.217664900003,184.21563700000115,185.217664900003,184.21563700000115,185.217664900003,184.21563700000115,184.7176266000024,184.21563700000115,184.7176266000024,184.21563700000115,184.7176266000024,184.21563700000115,184.7176266000024,184.21563700000115,None,0.9615912000008393,,,,,11003,001,2023_Dec_29_1211,nback,2021.2.3,59.51321758807262,
1-back,instructions\back-1.png,conditions\11back-e.xlsx,,experiment,1,1,stim\yellow.png,stim\gray.png,stim\gray.png,stim\gray.png,left,,,,,,,,,,,,,0,0,0,5,0,17,17,17,,,,,,,,,,,,,,,,,,,,,,,,,,,,,,,,,,,,,,,,,,,,,,,,,,,,,,,,None,0,185.71799089999695,None,185.71799089999695,None,185.71799089999695,186.71929710000404,185.71799089999695,186.71929710000404,185.71799089999695,186.71929710000404,185.71799089999695,186.71929710000404,185.71799089999695,186.21856619999744,185.71799089999695,186.21856619999744,185.71799089999695,186.21856619999744,185.71799089999695,186.21856619999744,185.71799089999695,None,,,,,,11003,001,2023_Dec_29_1211,nback,2021.2.3,59.51321758807262,
1-back,instructions\back-1.png,conditions\11back-e.xlsx,,experiment,1,4,stim\gray.png,stim\gray.png,stim\gray.png,stim\yellow.png,up,,,,,,,,,,,,,0,0,0,5,0,18,18,18,,,,,,,,,,,,,,,,,,,,,,,,,,,,,,,,,,,,,,,,,,,,,,,,,,,,,,,,up,1,187.22013000000152,None,187.22013000000152,None,187.22013000000152,188.2231111000001,187.22013000000152,188.2231111000001,187.22013000000152,188.2231111000001,187.22013000000152,188.2231111000001,187.22013000000152,187.72073539999838,187.22013000000152,187.72073539999838,187.22013000000152,187.72073539999838,187.22013000000152,187.72073539999838,187.22013000000152,None,0.8213613000043551,,,,,11003,001,2023_Dec_29_1211,nback,2021.2.3,59.51321758807262,
1-back,instructions\back-1.png,conditions\11back-e.xlsx,,experiment,1,3,stim\gray.png,stim\gray.png,stim\yellow.png,stim\gray.png,down,,,,,,,,,,,,,0,0,0,5,0,19,19,19,,,,,,,,,,,,,,,,,,,,,,,,,,,,,,,,,,,,,,,,,,,,,,,,,,,,,,,,None,0,188.72252180000214,None,188.72252180000214,None,188.72252180000214,189.72430030000396,188.72252180000214,189.72430030000396,188.72252180000214,189.72430030000396,188.72252180000214,189.72430030000396,188.72252180000214,189.22340540000005,188.72252180000214,189.22340540000005,188.72252180000214,189.22340540000005,188.72252180000214,189.22340540000005,188.72252180000214,None,,,,,,11003,001,2023_Dec_29_1211,nback,2021.2.3,59.51321758807262,
1-back,instructions\back-1.png,conditions\11back-e.xlsx,,,,,,,,,,,,,,,,,,,,,,0,0,0,5,,,,,,,,,,,,,,,,,,,,,,,,,,,,,,,,,,,,,,,,,,,,,,,,,,,,,,,,,,,,,,,,,,,,,,,,,,,,,,,,,,,,,190.22455510000145,None,,,11003,001,2023_Dec_29_1211,nback,2021.2.3,59.51321758807262,
1-back,instructions\back-1.png,conditions\12back-e.xlsx,,experiment,1,2,stim\gray.png,stim\yellow.png,stim\gray.png,stim\gray.png,None,,,,,,,,,,,,,0,1,1,6,0,0,0,0,,,,,,,,,,,,,,,191.34377259999746,195.8502582000001,195.8162336000023,None,,,,,,,,,,,,,,,,,,,,,,,,,,,,,,,,,,,,,,None,1,196.2347069000025,None,196.2347069000025,None,196.2347069000025,197.23526039999706,196.2347069000025,197.23526039999706,196.2347069000025,197.23526039999706,196.2347069000025,197.23526039999706,196.2347069000025,196.73482379999768,196.2347069000025,196.73482379999768,196.2347069000025,196.73482379999768,196.2347069000025,196.73482379999768,196.2347069000025,None,,,,,,11003,001,2023_Dec_29_1211,nback,2021.2.3,59.51321758807262,
1-back,instructions\back-1.png,conditions\12back-e.xlsx,,experiment,1,3,stim\gray.png,stim\gray.png,stim\yellow.png,stim\gray.png,left,,,,,,,,,,,,,0,1,1,6,0,1,1,1,,,,,,,,,,,,,,,,,,,,,,,,,,,,,,,,,,,,,,,,,,,,,,,,,,,,,,,,None,0,197.71890330000315,None,197.71890330000315,None,197.71890330000315,198.72054149999894,197.71890330000315,198.72054149999894,197.71890330000315,198.72054149999894,197.71890330000315,198.72054149999894,197.71890330000315,198.2198686999982,197.71890330000315,198.2198686999982,197.71890330000315,198.2198686999982,197.71890330000315,198.2198686999982,197.71890330000315,None,,,,,,11003,001,2023_Dec_29_1211,nback,2021.2.3,59.51321758807262,
1-back,instructions\back-1.png,conditions\12back-e.xlsx,,experiment,1,4,stim\gray.png,stim\gray.png,stim\gray.png,stim\yellow.png,right,,,,,,,,,,,,,0,1,1,6,0,2,2,2,,,,,,,,,,,,,,,,,,,,,,,,,,,,,,,,,,,,,,,,,,,,,,,,,,,,,,,,right,1,199.22119979999843,None,199.22119979999843,None,199.22119979999843,200.22335819999716,199.22119979999843,200.22335819999716,199.22119979999843,200.22335819999716,199.22119979999843,200.22335819999716,199.22119979999843,199.72243159999925,199.22119979999843,199.72243159999925,199.22119979999843,199.72243159999925,199.22119979999843,199.72243159999925,199.22119979999843,None,0.740308799999184,,,,,11003,001,2023_Dec_29_1211,nback,2021.2.3,59.51321758807262,
1-back,instructions\back-1.png,conditions\12back-e.xlsx,,experiment,1,3,stim\gray.png,stim\gray.png,stim\yellow.png,stim\gray.png,down,,,,,,,,,,,,,0,1,1,6,0,3,3,3,,,,,,,,,,,,,,,,,,,,,,,,,,,,,,,,,,,,,,,,,,,,,,,,,,,,,,,,down,1,200.72381490000407,None,200.72381490000407,None,200.72381490000407,201.72471889999724,200.72381490000407,201.72471889999724,200.72381490000407,201.72471889999724,200.72381490000407,201.72471889999724,200.72381490000407,201.2249765000015,200.72381490000407,201.2249765000015,200.72381490000407,201.2249765000015,200.72381490000407,201.2249765000015,200.72381490000407,None,1.4702757000050042,,,,,11003,001,2023_Dec_29_1211,nback,2021.2.3,59.51321758807262,
1-back,instructions\back-1.png,conditions\12back-e.xlsx,,experiment,1,1,stim\yellow.png,stim\gray.png,stim\gray.png,stim\gray.png,right,,,,,,,,,,,,,0,1,1,6,0,4,4,4,,,,,,,,,,,,,,,,,,,,,,,,,,,,,,,,,,,,,,,,,,,,,,,,,,,,,,,,right,1,202.22618689999945,None,202.22618689999945,None,202.22618689999945,203.22817609999765,202.22618689999945,203.22817609999765,202.22618689999945,203.22817609999765,202.22618689999945,203.22817609999765,202.22618689999945,202.72680380000384,202.22618689999945,202.72680380000384,202.22618689999945,202.72680380000384,202.22618689999945,202.72680380000384,202.22618689999945,None,1.2956669999985024,,,,,11003,001,2023_Dec_29_1211,nback,2021.2.3,59.51321758807262,
1-back,instructions\back-1.png,conditions\12back-e.xlsx,,experiment,1,2,stim\gray.png,stim\yellow.png,stim\gray.png,stim\gray.png,up,,,,,,,,,,,,,0,1,1,6,0,5,5,5,,,,,,,,,,,,,,,,,,,,,,,,,,,,,,,,,,,,,,,,,,,,,,,,,,,,,,,,None,0,203.71123619999707,None,203.71123619999707,None,203.71123619999707,204.71320109999942,203.71123619999707,204.71320109999942,203.71123619999707,204.71320109999942,203.71123619999707,204.71320109999942,203.71123619999707,204.21193389999826,203.71123619999707,204.21193389999826,203.71123619999707,204.21193389999826,203.71123619999707,204.21193389999826,203.71123619999707,None,,,,,,11003,001,2023_Dec_29_1211,nback,2021.2.3,59.51321758807262,
1-back,instructions\back-1.png,conditions\12back-e.xlsx,,experiment,1,2,stim\gray.png,stim\yellow.png,stim\gray.png,stim\gray.png,left,,,,,,,,,,,,,0,1,1,6,0,6,6,6,,,,,,,,,,,,,,,,,,,,,,,,,,,,,,,,,,,,,,,,,,,,,,,,,,,,,,,,left,1,205.21433329999854,None,205.21433329999854,None,205.21433329999854,206.2153102000011,205.21433329999854,206.2153102000011,205.21433329999854,206.2153102000011,205.21433329999854,206.2153102000011,205.21433329999854,205.71487229999912,205.21433329999854,205.71487229999912,205.21433329999854,205.71487229999912,205.21433329999854,205.71487229999912,205.21433329999854,None,1.1391509999957634,,,,,11003,001,2023_Dec_29_1211,nback,2021.2.3,59.51321758807262,
1-back,instructions\back-1.png,conditions\12back-e.xlsx,,experiment,1,4,stim\gray.png,stim\gray.png,stim\gray.png,stim\yellow.png,left,,,,,,,,,,,,,0,1,1,6,0,7,7,7,,,,,,,,,,,,,,,,,,,,,,,,,,,,,,,,,,,,,,,,,,,,,,,,,,,,,,,,None,0,206.71597800000018,None,206.71597800000018,None,206.71597800000018,207.7171606999982,206.71597800000018,207.7171606999982,206.71597800000018,207.7171606999982,206.71597800000018,207.7171606999982,206.71597800000018,207.21688800000265,206.71597800000018,207.21688800000265,206.71597800000018,207.21688800000265,206.71597800000018,207.21688800000265,206.71597800000018,None,,,,,,11003,001,2023_Dec_29_1211,nback,2021.2.3,59.51321758807262,
1-back,instructions\back-1.png,conditions\12back-e.xlsx,,experiment,1,1,stim\yellow.png,stim\gray.png,stim\gray.png,stim\gray.png,down,,,,,,,,,,,,,0,1,1,6,0,8,8,8,,,,,,,,,,,,,,,,,,,,,,,,,,,,,,,,,,,,,,,,,,,,,,,,,,,,,,,,left,0,208.21785490000184,None,208.21785490000184,None,208.21785490000184,209.21985130000394,208.21785490000184,209.21985130000394,208.21785490000184,209.21985130000394,208.21785490000184,209.21985130000394,208.21785490000184,208.71955739999976,208.21785490000184,208.71955739999976,208.21785490000184,208.71955739999976,208.21785490000184,208.71955739999976,208.21785490000184,None,0.6558751999982633,,,,,11003,001,2023_Dec_29_1211,nback,2021.2.3,59.51321758807262,
1-back,instructions\back-1.png,conditions\12back-e.xlsx,,experiment,1,3,stim\gray.png,stim\gray.png,stim\yellow.png,stim\gray.png,up,,,,,,,,,,,,,0,1,1,6,0,9,9,9,,,,,,,,,,,,,,,,,,,,,,,,,,,,,,,,,,,,,,,,,,,,,,,,,,,,,,,,None,0,209.72088729999814,None,209.72088729999814,None,209.72088729999814,210.72143569999753,209.72088729999814,210.72143569999753,209.72088729999814,210.72143569999753,209.72088729999814,210.72143569999753,209.72088729999814,210.22159269999975,209.72088729999814,210.22159269999975,209.72088729999814,210.22159269999975,209.72088729999814,210.22159269999975,209.72088729999814,None,,,,,,11003,001,2023_Dec_29_1211,nback,2021.2.3,59.51321758807262,
1-back,instructions\back-1.png,conditions\12back-e.xlsx,,experiment,1,4,stim\gray.png,stim\gray.png,stim\gray.png,stim\yellow.png,right,,,,,,,,,,,,,0,1,1,6,0,10,10,10,,,,,,,,,,,,,,,,,,,,,,,,,,,,,,,,,,,,,,,,,,,,,,,,,,,,,,,,right,1,211.2223157999979,None,211.2223157999979,None,211.2223157999979,212.22484070000064,211.2223157999979,212.22484070000064,211.2223157999979,212.22484070000064,211.2223157999979,212.22484070000064,211.2223157999979,211.7234896000009,211.2223157999979,211.7234896000009,211.2223157999979,211.7234896000009,211.2223157999979,211.7234896000009,211.2223157999979,None,0.891584299999522,,,,,11003,001,2023_Dec_29_1211,nback,2021.2.3,59.51321758807262,
1-back,instructions\back-1.png,conditions\12back-e.xlsx,,experiment,1,3,stim\gray.png,stim\gray.png,stim\yellow.png,stim\gray.png,down,,,,,,,,,,,,,0,1,1,6,0,11,11,11,,,,,,,,,,,,,,,,,,,,,,,,,,,,,,,,,,,,,,,,,,,,,,,,,,,,,,,,None,0,212.72558849999768,None,212.72558849999768,None,212.72558849999768,213.72603769999841,212.72558849999768,213.72603769999841,212.72558849999768,213.72603769999841,212.72558849999768,213.72603769999841,212.72558849999768,213.22537439999724,212.72558849999768,213.22537439999724,212.72558849999768,213.22537439999724,212.72558849999768,213.22537439999724,212.72558849999768,None,,,,,,11003,001,2023_Dec_29_1211,nback,2021.2.3,59.51321758807262,
1-back,instructions\back-1.png,conditions\12back-e.xlsx,,experiment,1,1,stim\yellow.png,stim\gray.png,stim\gray.png,stim\gray.png,left,,,,,,,,,,,,,0,1,1,6,0,12,12,12,,,,,,,,,,,,,,,,,,,,,,,,,,,,,,,,,,,,,,,,,,,,,,,,,,,,,,,,None,0,214.22703780000302,None,214.22703780000302,None,214.22703780000302,215.22926089999964,214.22703780000302,215.22926089999964,214.22703780000302,215.22926089999964,214.22703780000302,215.22926089999964,214.22703780000302,214.72832010000275,214.22703780000302,214.72832010000275,214.22703780000302,214.72832010000275,214.22703780000302,214.72832010000275,214.22703780000302,None,,,,,,11003,001,2023_Dec_29_1211,nback,2021.2.3,59.51321758807262,
1-back,instructions\back-1.png,conditions\12back-e.xlsx,,experiment,1,4,stim\gray.png,stim\gray.png,stim\gray.png,stim\yellow.png,up,,,,,,,,,,,,,0,1,1,6,0,13,13,13,,,,,,,,,,,,,,,,,,,,,,,,,,,,,,,,,,,,,,,,,,,,,,,,,,,,,,,,right,0,215.71223060000193,None,215.71223060000193,None,215.71223060000193,216.71463609999773,215.71223060000193,216.71463609999773,215.71223060000193,216.71463609999773,215.71223060000193,216.71463609999773,215.71223060000193,216.21385320000263,215.71223060000193,216.21385320000263,215.71223060000193,216.21385320000263,215.71223060000193,216.21385320000263,215.71223060000193,None,0.2894278999956441,,,,,11003,001,2023_Dec_29_1211,nback,2021.2.3,59.51321758807262,
1-back,instructions\back-1.png,conditions\12back-e.xlsx,,experiment,1,1,stim\yellow.png,stim\gray.png,stim\gray.png,stim\gray.png,down,,,,,,,,,,,,,0,1,1,6,0,14,14,14,,,,,,,,,,,,,,,,,,,,,,,,,,,,,,,,,,,,,,,,,,,,,,,,,,,,,,,,None,0,217.21514880000177,None,217.21514880000177,None,217.21514880000177,218.21684079999977,217.21514880000177,218.21684079999977,217.21514880000177,218.21684079999977,217.21514880000177,218.21684079999977,217.21514880000177,217.7152045000039,217.21514880000177,217.7152045000039,217.21514880000177,217.7152045000039,217.21514880000177,217.7152045000039,217.21514880000177,None,,,,,,11003,001,2023_Dec_29_1211,nback,2021.2.3,59.51321758807262,
1-back,instructions\back-1.png,conditions\12back-e.xlsx,,experiment,1,2,stim\gray.png,stim\yellow.png,stim\gray.png,stim\gray.png,up,,,,,,,,,,,,,0,1,1,6,0,15,15,15,,,,,,,,,,,,,,,,,,,,,,,,,,,,,,,,,,,,,,,,,,,,,,,,,,,,,,,,left,0,218.7167002999995,None,218.7167002999995,None,218.7167002999995,219.7192320000031,218.7167002999995,219.7192320000031,218.7167002999995,219.7192320000031,218.7167002999995,219.7192320000031,218.7167002999995,219.21877980000136,218.7167002999995,219.21877980000136,218.7167002999995,219.21877980000136,218.7167002999995,219.21877980000136,218.7167002999995,None,1.3012118999977247,,,,,11003,001,2023_Dec_29_1211,nback,2021.2.3,59.51321758807262,
1-back,instructions\back-1.png,conditions\12back-e.xlsx,,experiment,1,1,stim\yellow.png,stim\gray.png,stim\gray.png,stim\gray.png,left,,,,,,,,,,,,,0,1,1,6,0,16,16,16,,,,,,,,,,,,,,,,,,,,,,,,,,,,,,,,,,,,,,,,,,,,,,,,,,,,,,,,None,0,220.2188731999995,None,220.2188731999995,None,220.2188731999995,221.22065809999913,220.2188731999995,221.22065809999913,220.2188731999995,221.22065809999913,220.2188731999995,221.22065809999913,220.2188731999995,220.71999900000083,220.2188731999995,220.71999900000083,220.2188731999995,220.71999900000083,220.2188731999995,220.71999900000083,220.2188731999995,None,,,,,,11003,001,2023_Dec_29_1211,nback,2021.2.3,59.51321758807262,
1-back,instructions\back-1.png,conditions\12back-e.xlsx,,experiment,1,3,stim\gray.png,stim\gray.png,stim\yellow.png,stim\gray.png,up,,,,,,,,,,,,,0,1,1,6,0,17,17,17,,,,,,,,,,,,,,,,,,,,,,,,,,,,,,,,,,,,,,,,,,,,,,,,,,,,,,,,None,0,221.72206729999743,None,221.72206729999743,None,221.72206729999743,222.7233008999974,221.72206729999743,222.7233008999974,221.72206729999743,222.7233008999974,221.72206729999743,222.7233008999974,221.72206729999743,222.2227208999975,221.72206729999743,222.2227208999975,221.72206729999743,222.2227208999975,221.72206729999743,222.2227208999975,221.72206729999743,None,,,,,,11003,001,2023_Dec_29_1211,nback,2021.2.3,59.51321758807262,
1-back,instructions\back-1.png,conditions\12back-e.xlsx,,experiment,1,2,stim\gray.png,stim\yellow.png,stim\gray.png,stim\gray.png,right,,,,,,,,,,,,,0,1,1,6,0,18,18,18,,,,,,,,,,,,,,,,,,,,,,,,,,,,,,,,,,,,,,,,,,,,,,,,,,,,,,,,right,1,223.22381080000196,None,223.22381080000196,None,223.22381080000196,224.22514149999915,223.22381080000196,224.22514149999915,223.22381080000196,224.22514149999915,223.22381080000196,224.22514149999915,223.22381080000196,223.72426879999693,223.22381080000196,223.72426879999693,223.22381080000196,223.72426879999693,223.22381080000196,223.72426879999693,223.22381080000196,None,0.7613318999938201,,,,,11003,001,2023_Dec_29_1211,nback,2021.2.3,59.51321758807262,
1-back,instructions\back-1.png,conditions\12back-e.xlsx,,experiment,1,4,stim\gray.png,stim\gray.png,stim\gray.png,stim\yellow.png,left,,,,,,,,,,,,,0,1,1,6,0,19,19,19,,,,,,,,,,,,,,,,,,,,,,,,,,,,,,,,,,,,,,,,,,,,,,,,,,,,,,,,None,0,224.7257815999983,None,224.7257815999983,None,224.7257815999983,225.72787329999846,224.7257815999983,225.72787329999846,224.7257815999983,225.72787329999846,224.7257815999983,225.72787329999846,224.7257815999983,225.2262916000036,224.7257815999983,225.2262916000036,224.7257815999983,225.2262916000036,224.7257815999983,225.2262916000036,224.7257815999983,None,,,,,,11003,001,2023_Dec_29_1211,nback,2021.2.3,59.51321758807262,
1-back,instructions\back-1.png,conditions\12back-e.xlsx,,,,,,,,,,,,,,,,,,,,,,0,1,1,6,,,,,,,,,,,,,,,,,,,,,,,,,,,,,,,,,,,,,,,,,,,,,,,,,,,,,,,,,,,,,,,,,,,,,,,,,,,,,,,,,,,,,226.21199850000266,None,,,11003,001,2023_Dec_29_1211,nback,2021.2.3,59.51321758807262,
1-back,instructions\back-1.png,conditions\10back-e.xlsx,,experiment,1,3,stim\gray.png,stim\gray.png,stim\yellow.png,stim\gray.png,None,,,,,,,,,,,,,0,2,2,1,0,0,0,0,,,,,,,,,,,,,,,227.32953380000254,231.83711459999904,231.81942439999693,None,,,,,,,,,,,,,,,,,,,,,,,,,,,,,,,,,,,,,,None,1,232.23725879999984,None,232.23725879999984,None,232.23725879999984,233.23844670000108,232.23725879999984,233.23844670000108,232.23725879999984,233.23844670000108,232.23725879999984,233.23844670000108,232.23725879999984,232.73757099999784,232.23725879999984,232.73757099999784,232.23725879999984,232.73757099999784,232.23725879999984,232.73757099999784,232.23725879999984,None,,,,,,11003,001,2023_Dec_29_1211,nback,2021.2.3,59.51321758807262,
1-back,instructions\back-1.png,conditions\10back-e.xlsx,,experiment,1,4,stim\gray.png,stim\gray.png,stim\gray.png,stim\yellow.png,right,,,,,,,,,,,,,0,2,2,1,0,1,1,1,,,,,,,,,,,,,,,,,,,,,,,,,,,,,,,,,,,,,,,,,,,,,,,,,,,,,,,,right,1,233.722528899998,None,233.722528899998,None,233.722528899998,234.72437440000067,233.722528899998,234.72437440000067,233.722528899998,234.72437440000067,233.722528899998,234.72437440000067,233.722528899998,234.22443419999763,233.722528899998,234.22443419999763,233.722528899998,234.22443419999763,233.722528899998,234.22443419999763,233.722528899998,None,0.7669251000043005,,,,,11003,001,2023_Dec_29_1211,nback,2021.2.3,59.51321758807262,
1-back,instructions\back-1.png,conditions\10back-e.xlsx,,experiment,1,4,stim\gray.png,stim\gray.png,stim\gray.png,stim\yellow.png,down,,,,,,,,,,,,,0,2,2,1,0,2,2,2,,,,,,,,,,,,,,,,,,,,,,,,,,,,,,,,,,,,,,,,,,,,,,,,,,,,,,,,down,1,235.22456989999773,None,235.22456989999773,None,235.22456989999773,236.2260224999991,235.22456989999773,236.2260224999991,235.22456989999773,236.2260224999991,235.22456989999773,236.2260224999991,235.22456989999773,235.72595759999967,235.22456989999773,235.72595759999967,235.22456989999773,235.72595759999967,235.22456989999773,235.72595759999967,235.22456989999773,None,1.1286576999991667,,,,,11003,001,2023_Dec_29_1211,nback,2021.2.3,59.51321758807262,
1-back,instructions\back-1.png,conditions\10back-e.xlsx,,experiment,1,2,stim\gray.png,stim\yellow.png,stim\gray.png,stim\gray.png,down,,,,,,,,,,,,,0,2,2,1,0,3,3,3,,,,,,,,,,,,,,,,,,,,,,,,,,,,,,,,,,,,,,,,,,,,,,,,,,,,,,,,down,1,236.7268385999996,None,236.7268385999996,None,236.7268385999996,237.72886550000112,236.7268385999996,237.72886550000112,236.7268385999996,237.72886550000112,236.7268385999996,237.72886550000112,236.7268385999996,237.22764150000148,236.7268385999996,237.22764150000148,236.7268385999996,237.22764150000148,236.7268385999996,237.22764150000148,236.7268385999996,None,1.1465042999989237,,,,,11003,001,2023_Dec_29_1211,nback,2021.2.3,59.51321758807262,
1-back,instructions\back-1.png,conditions\10back-e.xlsx,,experiment,1,1,stim\yellow.png,stim\gray.png,stim\gray.png,stim\gray.png,left,,,,,,,,,,,,,0,2,2,1,0,4,4,4,,,,,,,,,,,,,,,,,,,,,,,,,,,,,,,,,,,,,,,,,,,,,,,,,,,,,,,,left,1,238.2132281000013,None,238.2132281000013,None,238.2132281000013,239.214559,238.2132281000013,239.214559,238.2132281000013,239.214559,238.2132281000013,239.214559,238.2132281000013,238.71359369999846,238.2132281000013,238.71359369999846,238.2132281000013,238.71359369999846,238.2132281000013,238.71359369999846,238.2132281000013,None,1.332453399998485,,,,,11003,001,2023_Dec_29_1211,nback,2021.2.3,59.51321758807262,
1-back,instructions\back-1.png,conditions\10back-e.xlsx,,experiment,1,2,stim\gray.png,stim\yellow.png,stim\gray.png,stim\gray.png,up,,,,,,,,,,,,,0,2,2,1,0,5,5,5,,,,,,,,,,,,,,,,,,,,,,,,,,,,,,,,,,,,,,,,,,,,,,,,,,,,,,,,up,1,239.71461629999976,None,239.71461629999976,None,239.71461629999976,240.71683789999952,239.71461629999976,240.71683789999952,239.71461629999976,240.71683789999952,239.71461629999976,240.71683789999952,239.71461629999976,240.21637120000378,239.71461629999976,240.21637120000378,239.71461629999976,240.21637120000378,239.71461629999976,240.21637120000378,239.71461629999976,None,1.4546914999955334,,,,,11003,001,2023_Dec_29_1211,nback,2021.2.3,59.51321758807262,
1-back,instructions\back-1.png,conditions\10back-e.xlsx,,experiment,1,3,stim\gray.png,stim\gray.png,stim\yellow.png,stim\gray.png,left,,,,,,,,,,,,,0,2,2,1,0,6,6,6,,,,,,,,,,,,,,,,,,,,,,,,,,,,,,,,,,,,,,,,,,,,,,,,,,,,,,,,up,0,241.21694749999733,None,241.21694749999733,None,241.21694749999733,242.219010300003,241.21694749999733,242.219010300003,241.21694749999733,242.219010300003,241.21694749999733,242.219010300003,241.21694749999733,241.71733759999915,241.21694749999733,241.71733759999915,241.21694749999733,241.71733759999915,241.21694749999733,241.71733759999915,241.21694749999733,None,1.4163924000022234,,,,,11003,001,2023_Dec_29_1211,nback,2021.2.3,59.51321758807262,
1-back,instructions\back-1.png,conditions\10back-e.xlsx,,experiment,1,4,stim\gray.png,stim\gray.png,stim\gray.png,stim\yellow.png,right,,,,,,,,,,,,,0,2,2,1,0,7,7,7,,,,,,,,,,,,,,,,,,,,,,,,,,,,,,,,,,,,,,,,,,,,,,,,,,,,,,,,left,0,242.7189911000023,None,242.7189911000023,None,242.7189911000023,243.72061360000225,242.7189911000023,243.72061360000225,242.7189911000023,243.72061360000225,242.7189911000023,243.72061360000225,242.7189911000023,243.22082260000025,242.7189911000023,243.22082260000025,242.7189911000023,243.22082260000025,242.7189911000023,243.22082260000025,242.7189911000023,None,0.4027656000034767,,,,,11003,001,2023_Dec_29_1211,nback,2021.2.3,59.51321758807262,
1-back,instructions\back-1.png,conditions\10back-e.xlsx,,experiment,1,1,stim\yellow.png,stim\gray.png,stim\gray.png,stim\gray.png,down,,,,,,,,,,,,,0,2,2,1,0,8,8,8,,,,,,,,,,,,,,,,,,,,,,,,,,,,,,,,,,,,,,,,,,,,,,,,,,,,,,,,None,0,244.2212545000002,None,244.2212545000002,None,244.2212545000002,245.22281430000294,244.2212545000002,245.22281430000294,244.2212545000002,245.22281430000294,244.2212545000002,245.22281430000294,244.2212545000002,244.72195430000284,244.2212545000002,244.72195430000284,244.2212545000002,244.72195430000284,244.2212545000002,244.72195430000284,244.2212545000002,None,,,,,,11003,001,2023_Dec_29_1211,nback,2021.2.3,59.51321758807262,
1-back,instructions\back-1.png,conditions\10back-e.xlsx,,experiment,1,3,stim\gray.png,stim\gray.png,stim\yellow.png,stim\gray.png,up,,,,,,,,,,,,,0,2,2,1,0,9,9,9,,,,,,,,,,,,,,,,,,,,,,,,,,,,,,,,,,,,,,,,,,,,,,,,,,,,,,,,None,0,245.7235148999971,None,245.7235148999971,None,245.7235148999971,246.7256200999982,245.7235148999971,246.7256200999982,245.7235148999971,246.7256200999982,245.7235148999971,246.7256200999982,245.7235148999971,246.22499780000362,245.7235148999971,246.22499780000362,245.7235148999971,246.22499780000362,245.7235148999971,246.22499780000362,245.7235148999971,None,,,,,,11003,001,2023_Dec_29_1211,nback,2021.2.3,59.51321758807262,
1-back,instructions\back-1.png,conditions\10back-e.xlsx,,experiment,1,1,stim\yellow.png,stim\gray.png,stim\gray.png,stim\gray.png,right,,,,,,,,,,,,,0,2,2,1,0,10,10,10,,,,,,,,,,,,,,,,,,,,,,,,,,,,,,,,,,,,,,,,,,,,,,,,,,,,,,,,down,0,247.22564090000378,None,247.22564090000378,None,247.22564090000378,248.2271774000037,247.22564090000378,248.2271774000037,247.22564090000378,248.2271774000037,247.22564090000378,248.2271774000037,247.22564090000378,247.72657600000093,247.22564090000378,247.72657600000093,247.22564090000378,247.72657600000093,247.22564090000378,247.72657600000093,247.22564090000378,None,0.4719815999997081,,,,,11003,001,2023_Dec_29_1211,nback,2021.2.3,59.51321758807262,
1-back,instructions\back-1.png,conditions\10back-e.xlsx,,experiment,1,2,stim\gray.png,stim\yellow.png,stim\gray.png,stim\gray.png,up,,,,,,,,,,,,,0,2,2,1,0,11,11,11,,,,,,,,,,,,,,,,,,,,,,,,,,,,,,,,,,,,,,,,,,,,,,,,,,,,,,,,left,0,248.7112433000002,None,248.7112433000002,None,248.7112433000002,249.713347900004,248.7112433000002,249.713347900004,248.7112433000002,249.713347900004,248.7112433000002,249.713347900004,248.7112433000002,249.2121236000021,248.7112433000002,249.2121236000021,248.7112433000002,249.2121236000021,248.7112433000002,249.2121236000021,248.7112433000002,None,0.8820513999962714,,,,,11003,001,2023_Dec_29_1211,nback,2021.2.3,59.51321758807262,
1-back,instructions\back-1.png,conditions\10back-e.xlsx,,experiment,1,4,stim\gray.png,stim\gray.png,stim\gray.png,stim\yellow.png,left,,,,,,,,,,,,,0,2,2,1,0,12,12,12,,,,,,,,,,,,,,,,,,,,,,,,,,,,,,,,,,,,,,,,,,,,,,,,,,,,,,,,None,0,250.21355310000217,None,250.21355310000217,None,250.21355310000217,251.21516659999907,250.21355310000217,251.21516659999907,250.21355310000217,251.21516659999907,250.21355310000217,251.21516659999907,250.21355310000217,250.71550769999885,250.21355310000217,250.71550769999885,250.21355310000217,250.71550769999885,250.21355310000217,250.71550769999885,250.21355310000217,None,,,,,,11003,001,2023_Dec_29_1211,nback,2021.2.3,59.51321758807262,
1-back,instructions\back-1.png,conditions\10back-e.xlsx,,experiment,1,3,stim\gray.png,stim\gray.png,stim\yellow.png,stim\gray.png,down,,,,,,,,,,,,,0,2,2,1,0,13,13,13,,,,,,,,,,,,,,,,,,,,,,,,,,,,,,,,,,,,,,,,,,,,,,,,,,,,,,,,right,0,251.71630710000318,None,251.71630710000318,None,251.71630710000318,252.71716240000387,251.71630710000318,252.71716240000387,251.71630710000318,252.71716240000387,251.71630710000318,252.71716240000387,251.71630710000318,252.21676090000255,251.71630710000318,252.21676090000255,251.71630710000318,252.21676090000255,251.71630710000318,252.21676090000255,251.71630710000318,None,1.157303600004525,,,,,11003,001,2023_Dec_29_1211,nback,2021.2.3,59.51321758807262,
1-back,instructions\back-1.png,conditions\10back-e.xlsx,,experiment,1,1,stim\yellow.png,stim\gray.png,stim\gray.png,stim\gray.png,right,,,,,,,,,,,,,0,2,2,1,0,14,14,14,,,,,,,,,,,,,,,,,,,,,,,,,,,,,,,,,,,,,,,,,,,,,,,,,,,,,,,,right,1,253.21795399999974,None,253.21795399999974,None,253.21795399999974,254.2193477999972,253.21795399999974,254.2193477999972,253.21795399999974,254.2193477999972,253.21795399999974,254.2193477999972,253.21795399999974,253.7185871000038,253.21795399999974,253.7185871000038,253.21795399999974,253.7185871000038,253.21795399999974,253.7185871000038,253.21795399999974,None,1.351470400004473,,,,,11003,001,2023_Dec_29_1211,nback,2021.2.3,59.51321758807262,
1-back,instructions\back-1.png,conditions\10back-e.xlsx,,experiment,1,2,stim\gray.png,stim\yellow.png,stim\gray.png,stim\gray.png,up,,,,,,,,,,,,,0,2,2,1,0,15,15,15,,,,,,,,,,,,,,,,,,,,,,,,,,,,,,,,,,,,,,,,,,,,,,,,,,,,,,,,up,1,254.72081350000371,None,254.72081350000371,None,254.72081350000371,255.72253490000003,254.72081350000371,255.72253490000003,254.72081350000371,255.72253490000003,254.72081350000371,255.72253490000003,254.72081350000371,255.22153960000287,254.72081350000371,255.22153960000287,254.72081350000371,255.22153960000287,254.72081350000371,255.22153960000287,254.72081350000371,None,1.0015051000009407,,,,,11003,001,2023_Dec_29_1211,nback,2021.2.3,59.51321758807262,
1-back,instructions\back-1.png,conditions\10back-e.xlsx,,experiment,1,3,stim\gray.png,stim\gray.png,stim\yellow.png,stim\gray.png,left,,,,,,,,,,,,,0,2,2,1,0,16,16,16,,,,,,,,,,,,,,,,,,,,,,,,,,,,,,,,,,,,,,,,,,,,,,,,,,,,,,,,None,0,256.2221838999976,None,256.2221838999976,None,256.2221838999976,257.2244905999978,256.2221838999976,257.2244905999978,256.2221838999976,257.2244905999978,256.2221838999976,257.2244905999978,256.2221838999976,256.724718999998,256.2221838999976,256.724718999998,256.2221838999976,256.724718999998,256.2221838999976,256.724718999998,256.2221838999976,None,,,,,,11003,001,2023_Dec_29_1211,nback,2021.2.3,59.51321758807262,
1-back,instructions\back-1.png,conditions\10back-e.xlsx,,experiment,1,2,stim\gray.png,stim\yellow.png,stim\gray.png,stim\gray.png,right,,,,,,,,,,,,,0,2,2,1,0,17,17,17,,,,,,,,,,,,,,,,,,,,,,,,,,,,,,,,,,,,,,,,,,,,,,,,,,,,,,,,right,1,257.72468579999986,None,257.72468579999986,None,257.72468579999986,258.7261548000024,257.72468579999986,258.7261548000024,257.72468579999986,258.7261548000024,257.72468579999986,258.7261548000024,257.72468579999986,258.2250930000009,257.72468579999986,258.2250930000009,257.72468579999986,258.2250930000009,257.72468579999986,258.2250930000009,257.72468579999986,None,1.0534635000003618,,,,,11003,001,2023_Dec_29_1211,nback,2021.2.3,59.51321758807262,
1-back,instructions\back-1.png,conditions\10back-e.xlsx,,experiment,1,1,stim\yellow.png,stim\gray.png,stim\gray.png,stim\gray.png,left,,,,,,,,,,,,,0,2,2,1,0,18,18,18,,,,,,,,,,,,,,,,,,,,,,,,,,,,,,,,,,,,,,,,,,,,,,,,,,,,,,,,None,0,259.2267770000035,None,259.2267770000035,None,259.2267770000035,260.2289512999996,259.2267770000035,260.2289512999996,259.2267770000035,260.2289512999996,259.2267770000035,260.2289512999996,259.2267770000035,259.72839009999734,259.2267770000035,259.72839009999734,259.2267770000035,259.72839009999734,259.2267770000035,259.72839009999734,259.2267770000035,None,,,,,,11003,001,2023_Dec_29_1211,nback,2021.2.3,59.51321758807262,
1-back,instructions\back-1.png,conditions\10back-e.xlsx,,experiment,1,4,stim\gray.png,stim\gray.png,stim\gray.png,stim\yellow.png,up,,,,,,,,,,,,,0,2,2,1,0,19,19,19,,,,,,,,,,,,,,,,,,,,,,,,,,,,,,,,,,,,,,,,,,,,,,,,,,,,,,,,up,1,260.71262790000037,None,260.71262790000037,None,260.71262790000037,261.7141341000024,260.71262790000037,261.7141341000024,260.71262790000037,261.7141341000024,260.71262790000037,261.7141341000024,260.71262790000037,261.2132980000024,260.71262790000037,261.2132980000024,260.71262790000037,261.2132980000024,260.71262790000037,261.2132980000024,260.71262790000037,None,0.9205753999995068,,,,,11003,001,2023_Dec_29_1211,nback,2021.2.3,59.51321758807262,
1-back,instructions\back-1.png,conditions\10back-e.xlsx,,,,,,,,,,,,,,,,,,,,,,0,2,2,1,,,,,,,,,,,,,,,,,,,,,,,,,,,,,,,,,,,,,,,,,,,,,,,,,,,,,,,,,,,,,,,,,,,,,,,,,,,,,,,,,,,,,262.2146422000005,None,,,11003,001,2023_Dec_29_1211,nback,2021.2.3,59.51321758807262,
0-back,instructions\back-0.png,conditions\04back-e.xlsx,,experiment,0,3,stim\gray.png,stim\gray.png,stim\yellow.png,stim\gray.png,right,,,,,,,,,,,,,0,3,3,13,0,0,0,0,,,,,,,,,,,,,,,263.34948129999975,267.8583701000025,267.8236173000041,None,,,,,,,,,,,,,,,,,,,,,,,,,,,,,,,,,,,,,,right,1,268.24128290000226,None,268.24128290000226,None,268.24128290000226,269.24249460000283,268.24128290000226,269.24249460000283,268.24128290000226,269.24249460000283,268.24128290000226,269.24249460000283,268.24128290000226,268.74084920000314,268.24128290000226,268.74084920000314,268.24128290000226,268.74084920000314,268.24128290000226,268.74084920000314,268.24128290000226,None,0.49663090000103693,,,,,11003,001,2023_Dec_29_1211,nback,2021.2.3,59.51321758807262,
0-back,instructions\back-0.png,conditions\04back-e.xlsx,,experiment,0,1,stim\yellow.png,stim\gray.png,stim\gray.png,stim\gray.png,up,,,,,,,,,,,,,0,3,3,13,0,1,1,1,,,,,,,,,,,,,,,,,,,,,,,,,,,,,,,,,,,,,,,,,,,,,,,,,,,,,,,,up,1,269.7261671000015,None,269.7261671000015,None,269.7261671000015,270.727266300004,269.7261671000015,270.727266300004,269.7261671000015,270.727266300004,269.7261671000015,270.727266300004,269.7261671000015,270.22694110000157,269.7261671000015,270.22694110000157,269.7261671000015,270.22694110000157,269.7261671000015,270.22694110000157,269.7261671000015,None,0.5715168000024278,,,,,11003,001,2023_Dec_29_1211,nback,2021.2.3,59.51321758807262,
0-back,instructions\back-0.png,conditions\04back-e.xlsx,,experiment,0,2,stim\gray.png,stim\yellow.png,stim\gray.png,stim\gray.png,left,,,,,,,,,,,,,0,3,3,13,0,2,2,2,,,,,,,,,,,,,,,,,,,,,,,,,,,,,,,,,,,,,,,,,,,,,,,,,,,,,,,,left,1,271.2120464000036,None,271.2120464000036,None,271.2120464000036,272.21296040000016,271.2120464000036,272.21296040000016,271.2120464000036,272.21296040000016,271.2120464000036,272.21296040000016,271.2120464000036,271.71281859999726,271.2120464000036,271.71281859999726,271.2120464000036,271.71281859999726,271.2120464000036,271.71281859999726,271.2120464000036,None,0.42181300000083866,,,,,11003,001,2023_Dec_29_1211,nback,2021.2.3,59.51321758807262,
0-back,instructions\back-0.png,conditions\04back-e.xlsx,,experiment,0,3,stim\gray.png,stim\gray.png,stim\yellow.png,stim\gray.png,right,,,,,,,,,,,,,0,3,3,13,0,3,3,3,,,,,,,,,,,,,,,,,,,,,,,,,,,,,,,,,,,,,,,,,,,,,,,,,,,,,,,,right,1,272.7141333000036,None,272.7141333000036,None,272.7141333000036,273.71494959999836,272.7141333000036,273.71494959999836,272.7141333000036,273.71494959999836,272.7141333000036,273.71494959999836,272.7141333000036,273.2152619999979,272.7141333000036,273.2152619999979,272.7141333000036,273.2152619999979,272.7141333000036,273.2152619999979,272.7141333000036,None,0.5272585999991861,,,,,11003,001,2023_Dec_29_1211,nback,2021.2.3,59.51321758807262,
0-back,instructions\back-0.png,conditions\04back-e.xlsx,,experiment,0,3,stim\gray.png,stim\gray.png,stim\yellow.png,stim\gray.png,right,,,,,,,,,,,,,0,3,3,13,0,4,4,4,,,,,,,,,,,,,,,,,,,,,,,,,,,,,,,,,,,,,,,,,,,,,,,,,,,,,,,,right,1,274.21565949999786,None,274.21565949999786,None,274.21565949999786,275.2173533000023,274.21565949999786,275.2173533000023,274.21565949999786,275.2173533000023,274.21565949999786,275.2173533000023,274.21565949999786,274.7170416000008,274.21565949999786,274.7170416000008,274.21565949999786,274.7170416000008,274.21565949999786,274.7170416000008,274.21565949999786,None,0.6258356999969692,,,,,11003,001,2023_Dec_29_1211,nback,2021.2.3,59.51321758807262,
0-back,instructions\back-0.png,conditions\04back-e.xlsx,,experiment,0,2,stim\gray.png,stim\yellow.png,stim\gray.png,stim\gray.png,left,,,,,,,,,,,,,0,3,3,13,0,5,5,5,,,,,,,,,,,,,,,,,,,,,,,,,,,,,,,,,,,,,,,,,,,,,,,,,,,,,,,,left,1,275.71846760000335,None,275.71846760000335,None,275.71846760000335,276.7201395000011,275.71846760000335,276.7201395000011,275.71846760000335,276.7201395000011,275.71846760000335,276.7201395000011,275.71846760000335,276.21872379999695,275.71846760000335,276.21872379999695,275.71846760000335,276.21872379999695,275.71846760000335,276.21872379999695,275.71846760000335,None,0.4590511999995215,,,,,11003,001,2023_Dec_29_1211,nback,2021.2.3,59.51321758807262,
0-back,instructions\back-0.png,conditions\04back-e.xlsx,,experiment,0,2,stim\gray.png,stim\yellow.png,stim\gray.png,stim\gray.png,left,,,,,,,,,,,,,0,3,3,13,0,6,6,6,,,,,,,,,,,,,,,,,,,,,,,,,,,,,,,,,,,,,,,,,,,,,,,,,,,,,,,,left,1,277.2201303000038,None,277.2201303000038,None,277.2201303000038,278.2228338999994,277.2201303000038,278.2228338999994,277.2201303000038,278.2228338999994,277.2201303000038,278.2228338999994,277.2201303000038,277.7221028999993,277.2201303000038,277.7221028999993,277.2201303000038,277.7221028999993,277.2201303000038,277.7221028999993,277.2201303000038,None,0.5415427000043564,,,,,11003,001,2023_Dec_29_1211,nback,2021.2.3,59.51321758807262,
0-back,instructions\back-0.png,conditions\04back-e.xlsx,,experiment,0,1,stim\yellow.png,stim\gray.png,stim\gray.png,stim\gray.png,up,,,,,,,,,,,,,0,3,3,13,0,7,7,7,,,,,,,,,,,,,,,,,,,,,,,,,,,,,,,,,,,,,,,,,,,,,,,,,,,,,,,,up,1,278.7231055000011,None,278.7231055000011,None,278.7231055000011,279.723865699998,278.7231055000011,279.723865699998,278.7231055000011,279.723865699998,278.7231055000011,279.723865699998,278.7231055000011,279.22340780000377,278.7231055000011,279.22340780000377,278.7231055000011,279.22340780000377,278.7231055000011,279.22340780000377,278.7231055000011,None,0.4544848000005004,,,,,11003,001,2023_Dec_29_1211,nback,2021.2.3,59.51321758807262,
0-back,instructions\back-0.png,conditions\04back-e.xlsx,,experiment,0,4,stim\gray.png,stim\gray.png,stim\gray.png,stim\yellow.png,down,,,,,,,,,,,,,0,3,3,13,0,8,8,8,,,,,,,,,,,,,,,,,,,,,,,,,,,,,,,,,,,,,,,,,,,,,,,,,,,,,,,,down,1,280.2246305000008,None,280.2246305000008,None,280.2246305000008,281.2260862000039,280.2246305000008,281.2260862000039,280.2246305000008,281.2260862000039,280.2246305000008,281.2260862000039,280.2246305000008,280.7261316000004,280.2246305000008,280.7261316000004,280.2246305000008,280.7261316000004,280.2246305000008,280.7261316000004,280.2246305000008,None,0.5694550999978674,,,,,11003,001,2023_Dec_29_1211,nback,2021.2.3,59.51321758807262,
0-back,instructions\back-0.png,conditions\04back-e.xlsx,,experiment,0,4,stim\gray.png,stim\gray.png,stim\gray.png,stim\yellow.png,down,,,,,,,,,,,,,0,3,3,13,0,9,9,9,,,,,,,,,,,,,,,,,,,,,,,,,,,,,,,,,,,,,,,,,,,,,,,,,,,,,,,,down,1,281.72662890000356,None,281.72662890000356,None,281.72662890000356,282.72851239999727,281.72662890000356,282.72851239999727,281.72662890000356,282.72851239999727,281.72662890000356,282.72851239999727,281.72662890000356,282.2277073000005,281.72662890000356,282.2277073000005,281.72662890000356,282.2277073000005,281.72662890000356,282.2277073000005,281.72662890000356,None,0.5312398999958532,,,,,11003,001,2023_Dec_29_1211,nback,2021.2.3,59.51321758807262,
0-back,instructions\back-0.png,conditions\04back-e.xlsx,,experiment,0,1,stim\yellow.png,stim\gray.png,stim\gray.png,stim\gray.png,up,,,,,,,,,,,,,0,3,3,13,0,10,10,10,,,,,,,,,,,,,,,,,,,,,,,,,,,,,,,,,,,,,,,,,,,,,,,,,,,,,,,,up,1,283.21306729999924,None,283.21306729999924,None,283.21306729999924,284.2139437000005,283.21306729999924,284.2139437000005,283.21306729999924,284.2139437000005,283.21306729999924,284.2139437000005,283.21306729999924,283.7139184999978,283.21306729999924,283.7139184999978,283.21306729999924,283.7139184999978,283.21306729999924,283.7139184999978,283.21306729999924,None,0.5885065999973449,,,,,11003,001,2023_Dec_29_1211,nback,2021.2.3,59.51321758807262,
0-back,instructions\back-0.png,conditions\04back-e.xlsx,,experiment,0,4,stim\gray.png,stim\gray.png,stim\gray.png,stim\yellow.png,down,,,,,,,,,,,,,0,3,3,13,0,11,11,11,,,,,,,,,,,,,,,,,,,,,,,,,,,,,,,,,,,,,,,,,,,,,,,,,,,,,,,,down,1,284.71459719999984,None,284.71459719999984,None,284.71459719999984,285.7161266000039,284.71459719999984,285.7161266000039,284.71459719999984,285.7161266000039,284.71459719999984,285.7161266000039,284.71459719999984,285.21658720000414,284.71459719999984,285.21658720000414,284.71459719999984,285.21658720000414,284.71459719999984,285.21658720000414,284.71459719999984,None,0.5350860000035027,,,,,11003,001,2023_Dec_29_1211,nback,2021.2.3,59.51321758807262,
0-back,instructions\back-0.png,conditions\04back-e.xlsx,,experiment,0,1,stim\yellow.png,stim\gray.png,stim\gray.png,stim\gray.png,up,,,,,,,,,,,,,0,3,3,13,0,12,12,12,,,,,,,,,,,,,,,,,,,,,,,,,,,,,,,,,,,,,,,,,,,,,,,,,,,,,,,,up,1,286.21682970000256,None,286.21682970000256,None,286.21682970000256,287.21810160000314,286.21682970000256,287.21810160000314,286.21682970000256,287.21810160000314,286.21682970000256,287.21810160000314,286.21682970000256,286.7182556999978,286.21682970000256,286.7182556999978,286.21682970000256,286.7182556999978,286.21682970000256,286.7182556999978,286.21682970000256,None,0.6809380999984569,,,,,11003,001,2023_Dec_29_1211,nback,2021.2.3,59.51321758807262,
0-back,instructions\back-0.png,conditions\04back-e.xlsx,,experiment,0,3,stim\gray.png,stim\gray.png,stim\yellow.png,stim\gray.png,right,,,,,,,,,,,,,0,3,3,13,0,13,13,13,,,,,,,,,,,,,,,,,,,,,,,,,,,,,,,,,,,,,,,,,,,,,,,,,,,,,,,,right,1,287.71925519999786,None,287.71925519999786,None,287.71925519999786,288.7206303999992,287.71925519999786,288.7206303999992,287.71925519999786,288.7206303999992,287.71925519999786,288.7206303999992,287.71925519999786,288.2204084000041,287.71925519999786,288.2204084000041,287.71925519999786,288.2204084000041,287.71925519999786,288.2204084000041,287.71925519999786,None,0.5780419999937294,,,,,11003,001,2023_Dec_29_1211,nback,2021.2.3,59.51321758807262,
0-back,instructions\back-0.png,conditions\04back-e.xlsx,,experiment,0,4,stim\gray.png,stim\gray.png,stim\gray.png,stim\yellow.png,down,,,,,,,,,,,,,0,3,3,13,0,14,14,14,,,,,,,,,,,,,,,,,,,,,,,,,,,,,,,,,,,,,,,,,,,,,,,,,,,,,,,,down,1,289.2209651000012,None,289.2209651000012,None,289.2209651000012,290.2244466999982,289.2209651000012,290.2244466999982,289.2209651000012,290.2244466999982,289.2209651000012,290.2244466999982,289.2209651000012,289.72217739999905,289.2209651000012,289.72217739999905,289.2209651000012,289.72217739999905,289.2209651000012,289.72217739999905,289.2209651000012,None,0.4607209000023431,,,,,11003,001,2023_Dec_29_1211,nback,2021.2.3,59.51321758807262,
0-back,instructions\back-0.png,conditions\04back-e.xlsx,,experiment,0,1,stim\yellow.png,stim\gray.png,stim\gray.png,stim\gray.png,up,,,,,,,,,,,,,0,3,3,13,0,15,15,15,,,,,,,,,,,,,,,,,,,,,,,,,,,,,,,,,,,,,,,,,,,,,,,,,,,,,,,,up,1,290.72368149999966,None,290.72368149999966,None,290.72368149999966,291.72552089999954,290.72368149999966,291.72552089999954,290.72368149999966,291.72552089999954,290.72368149999966,291.72552089999954,290.72368149999966,291.2249379999994,290.72368149999966,291.2249379999994,290.72368149999966,291.2249379999994,290.72368149999966,291.2249379999994,290.72368149999966,None,0.5188586000003852,,,,,11003,001,2023_Dec_29_1211,nback,2021.2.3,59.51321758807262,
0-back,instructions\back-0.png,conditions\04back-e.xlsx,,experiment,0,2,stim\gray.png,stim\yellow.png,stim\gray.png,stim\gray.png,left,,,,,,,,,,,,,0,3,3,13,0,16,16,16,,,,,,,,,,,,,,,,,,,,,,,,,,,,,,,,,,,,,,,,,,,,,,,,,,,,,,,,left,1,292.22504550000303,None,292.22504550000303,None,292.22504550000303,293.2279615000007,292.22504550000303,293.2279615000007,292.22504550000303,293.2279615000007,292.22504550000303,293.2279615000007,292.22504550000303,292.7264689000003,292.22504550000303,292.7264689000003,292.22504550000303,292.7264689000003,292.22504550000303,292.7264689000003,292.22504550000303,None,0.3764162000006763,,,,,11003,001,2023_Dec_29_1211,nback,2021.2.3,59.51321758807262,
0-back,instructions\back-0.png,conditions\04back-e.xlsx,,experiment,0,3,stim\gray.png,stim\gray.png,stim\yellow.png,stim\gray.png,right,,,,,,,,,,,,,0,3,3,13,0,17,17,17,,,,,,,,,,,,,,,,,,,,,,,,,,,,,,,,,,,,,,,,,,,,,,,,,,,,,,,,right,1,293.7113437000007,None,293.7113437000007,None,293.7113437000007,294.71353459999955,293.7113437000007,294.71353459999955,293.7113437000007,294.71353459999955,293.7113437000007,294.71353459999955,293.7113437000007,294.21190529999876,293.7113437000007,294.21190529999876,293.7113437000007,294.21190529999876,293.7113437000007,294.21190529999876,293.7113437000007,None,0.3860121999969124,,,,,11003,001,2023_Dec_29_1211,nback,2021.2.3,59.51321758807262,
0-back,instructions\back-0.png,conditions\04back-e.xlsx,,experiment,0,2,stim\gray.png,stim\yellow.png,stim\gray.png,stim\gray.png,left,,,,,,,,,,,,,0,3,3,13,0,18,18,18,,,,,,,,,,,,,,,,,,,,,,,,,,,,,,,,,,,,,,,,,,,,,,,,,,,,,,,,left,1,295.213505599997,None,295.213505599997,None,295.213505599997,296.2149522000036,295.213505599997,296.2149522000036,295.213505599997,296.2149522000036,295.213505599997,296.2149522000036,295.213505599997,295.71463219999714,295.213505599997,295.71463219999714,295.213505599997,295.71463219999714,295.213505599997,295.71463219999714,295.213505599997,None,0.5079885000013746,,,,,11003,001,2023_Dec_29_1211,nback,2021.2.3,59.51321758807262,
0-back,instructions\back-0.png,conditions\04back-e.xlsx,,experiment,0,4,stim\gray.png,stim\gray.png,stim\gray.png,stim\yellow.png,down,,,,,,,,,,,,,0,3,3,13,0,19,19,19,,,,,,,,,,,,,,,,,,,,,,,,,,,,,,,,,,,,,,,,,,,,,,,,,,,,,,,,down,1,296.7163370999988,None,296.7163370999988,None,296.7163370999988,297.7174770999991,296.7163370999988,297.7174770999991,296.7163370999988,297.7174770999991,296.7163370999988,297.7174770999991,296.7163370999988,297.2170600000027,296.7163370999988,297.2170600000027,296.7163370999988,297.2170600000027,296.7163370999988,297.2170600000027,296.7163370999988,None,0.3409698000032222,,,,,11003,001,2023_Dec_29_1211,nback,2021.2.3,59.51321758807262,
