backseq,backinstr,backfile,instruction,size_in,Trialtype,back,number,P1,P2,P3,P4,corrAns,trials_practice.thisRepN,trials_practice.thisTrialN,trials_practice.thisN,trials_practice.thisIndex,trials.thisRepN,trials.thisTrialN,trials.thisN,trials.thisIndex,trials_3.thisRepN,trials_3.thisTrialN,trials_3.thisN,trials_3.thisIndex,trials_2.thisRepN,trials_2.thisTrialN,trials_2.thisN,trials_2.thisIndex,trials_4.thisRepN,trials_4.thisTrialN,trials_4.thisN,trials_4.thisIndex,image.started,image.stopped,image_2.started,image_2.stopped,key_resp.keys,key_resp.rt,key_resp.started,key_resp.stopped,image_3.started,image_3.stopped,key_resp_2.keys,key_resp_2.rt,key_resp_2.started,key_resp_2.stopped,image_4.started,image_4.stopped,text.started,text.stopped,H1.started,H1.stopped,H2.started,H2.stopped,H3.started,H3.stopped,H4.started,H4.stopped,key_resp_3.keys,key_resp_3.corr,key_resp_3.rt,key_resp_3.started,key_resp_3.stopped,text_4.started,text_4.stopped,F1.started,F1.stopped,F2.started,F2.stopped,F3.started,F3.stopped,F4.started,F4.stopped,image_7.started,image_7.stopped,text_5.started,text_5.stopped,key_resp_6.keys,key_resp_6.rt,key_resp_6.started,key_resp_6.stopped,image_5.started,image_5.stopped,key_resp_4.keys,key_resp_4.rt,key_resp_4.started,key_resp_4.stopped,key_resp_5.keys,key_resp_5.corr,key_resp_5.rt,key_resp_5.started,key_resp_5.stopped,text_3.started,text_3.stopped,H1_2.started,H1_2.stopped,H2_2.started,H2_2.stopped,H3_2.started,H3_2.stopped,H4_2.started,H4_2.stopped,F1_2.started,F1_2.stopped,F2_2.started,F2_2.stopped,F3_2.started,F3_2.stopped,F4_2.started,F4_2.stopped,image_8.started,image_8.stopped,text_2.started,text_2.stopped,image_6.started,image_6.stopped,participant,session,date,expName,psychopyVersion,frameRate,
,,,,,,,,,,,,,,,,,,,,,,,,,,,,,,,,,9.94012990000192,None,10.90976030001184,None,space,7.833216099999845,10.90976030001184,None,,,,,,,,,,,,,,,,,,,,,,,,,,,,,,,,,,,,,,,,,,,,,,,,,,,,,,,,,,,,,,,,,,,,,,,,,,,,,11006,001,2024_Jan_01_1033,nback,2021.2.3,60.02336110931093,
0-back,instructions\back-0.png,conditions\0back-p.xlsx,instructions\0-BACK.png,"(15, 8)",practice,0,1,stim\yellow.png,stim\gray.png,stim\gray.png,stim\gray.png,up,0,0,0,0,0,0,0,0,0,0,0,0,,,,,,,,,,,,,,,,,18.802513000031468,None,space,53.733038800011855,18.802513000031468,None,72.68301780003821,77.19178079999983,77.17352890002076,None,77.59095380001236,78.59201840002788,77.59095380001236,78.59201840002788,77.59095380001236,78.59201840002788,77.59095380001236,78.59201840002788,up,1,0.7523154999944381,77.59095380001236,None,77.59095380001236,None,77.59095380001236,78.09189999999944,77.59095380001236,78.09189999999944,77.59095380001236,78.09189999999944,77.59095380001236,78.09189999999944,77.59095380001236,None,,,,,,,,,,,,,,,,,,,,,,,,,,,,,,,,,,,,,,,,,,11006,001,2024_Jan_01_1033,nback,2021.2.3,60.02336110931093,
0-back,instructions\back-0.png,conditions\0back-p.xlsx,instructions\0-BACK.png,"(15, 8)",practice,0,2,stim\gray.png,stim\yellow.png,stim\gray.png,stim\gray.png,left,0,0,0,0,0,0,0,0,0,1,1,1,,,,,,,,,,,,,,,,,,,,,,,,,,,79.075954800006,80.07755700004054,79.075954800006,80.07755700004054,79.075954800006,80.07755700004054,79.075954800006,80.07755700004054,left,1,0.5073762000538409,79.075954800006,None,79.075954800006,None,79.075954800006,79.57683150004596,79.075954800006,79.57683150004596,79.075954800006,79.57683150004596,79.075954800006,79.57683150004596,79.075954800006,None,,,,,,,,,,,,,,,,,,,,,,,,,,,,,,,,,,,,,,,,,,11006,001,2024_Jan_01_1033,nback,2021.2.3,60.02336110931093,
0-back,instructions\back-0.png,conditions\0back-p.xlsx,instructions\0-BACK.png,"(15, 8)",practice,0,3,stim\gray.png,stim\gray.png,stim\yellow.png,stim\gray.png,right,0,0,0,0,0,0,0,0,0,2,2,2,,,,,,,,,,,,,,,,,,,,,,,,,,,80.57812850002665,81.57976049999706,80.57812850002665,81.57976049999706,80.57812850002665,81.57976049999706,80.57812850002665,81.57976049999706,right,1,0.34106980002252385,80.57812850002665,None,80.57812850002665,None,80.57812850002665,81.07948110002326,80.57812850002665,81.07948110002326,80.57812850002665,81.07948110002326,80.57812850002665,81.07948110002326,80.57812850002665,None,,,,,,,,,,,,,,,,,,,,,,,,,,,,,,,,,,,,,,,,,,11006,001,2024_Jan_01_1033,nback,2021.2.3,60.02336110931093,
0-back,instructions\back-0.png,conditions\0back-p.xlsx,instructions\0-BACK.png,"(15, 8)",practice,0,4,stim\gray.png,stim\gray.png,stim\gray.png,stim\yellow.png,down,0,0,0,0,0,0,0,0,0,3,3,3,,,,,,,,,,,,,,,,,,,,,,,,,,,82.08057829999598,83.08238989999518,82.08057829999598,83.08238989999518,82.08057829999598,83.08238989999518,82.08057829999598,83.08238989999518,down,1,0.34257760003674775,82.08057829999598,None,82.08057829999598,None,82.08057829999598,82.5818750000326,82.08057829999598,82.5818750000326,82.08057829999598,82.5818750000326,82.08057829999598,82.5818750000326,82.08057829999598,None,,,,,,,,,,,,,,,,,,,,,,,,,,,,,,,,,,,,,,,,,,11006,001,2024_Jan_01_1033,nback,2021.2.3,60.02336110931093,
0-back,instructions\back-0.png,conditions\0back-p.xlsx,instructions\0-BACK.png,"(15, 8)",practice,0,2,stim\gray.png,stim\yellow.png,stim\gray.png,stim\gray.png,left,0,0,0,0,0,0,0,0,0,4,4,4,,,,,,,,,,,,,,,,,,,,,,,,,,,83.58249630004866,84.58348180004396,83.58249630004866,84.58348180004396,83.58249630004866,84.58348180004396,83.58249630004866,84.58348180004396,left,1,0.32071140001062304,83.58249630004866,None,83.58249630004866,None,83.58249630004866,84.08389400003944,83.58249630004866,84.08389400003944,83.58249630004866,84.08389400003944,83.58249630004866,84.08389400003944,83.58249630004866,None,,,,,,,,,,,,,,,,,,,,,,,,,,,,,,,,,,,,,,,,,,11006,001,2024_Jan_01_1033,nback,2021.2.3,60.02336110931093,
0-back,instructions\back-0.png,conditions\0back-p.xlsx,instructions\0-BACK.png,"(15, 8)",practice,0,1,stim\yellow.png,stim\gray.png,stim\gray.png,stim\gray.png,up,0,0,0,0,0,0,0,0,0,5,5,5,,,,,,,,,,,,,,,,,,,,,,,,,,,85.08477360004326,86.08702540001832,85.08477360004326,86.08702540001832,85.08477360004326,86.08702540001832,85.08477360004326,86.08702540001832,up,1,0.2584745000349358,85.08477360004326,None,85.08477360004326,None,85.08477360004326,85.5852832000237,85.08477360004326,85.5852832000237,85.08477360004326,85.5852832000237,85.08477360004326,85.5852832000237,85.08477360004326,None,,,,,,,,,,,,,,,,,,,,,,,,,,,,,,,,,,,,,,,,,,11006,001,2024_Jan_01_1033,nback,2021.2.3,60.02336110931093,
0-back,instructions\back-0.png,conditions\0back-p.xlsx,instructions\0-BACK.png,"(15, 8)",practice,0,4,stim\gray.png,stim\gray.png,stim\gray.png,stim\yellow.png,down,0,0,0,0,0,0,0,0,0,6,6,6,,,,,,,,,,,,,,,,,,,,,,,,,,,86.58731100003934,87.58836250001332,86.58731100003934,87.58836250001332,86.58731100003934,87.58836250001332,86.58731100003934,87.58836250001332,down,1,0.5639739999896847,86.58731100003934,None,86.58731100003934,None,86.58731100003934,87.08775589999277,86.58731100003934,87.08775589999277,86.58731100003934,87.08775589999277,86.58731100003934,87.08775589999277,86.58731100003934,None,,,,,,,,,,,,,,,,,,,,,,,,,,,,,,,,,,,,,,,,,,11006,001,2024_Jan_01_1033,nback,2021.2.3,60.02336110931093,
0-back,instructions\back-0.png,conditions\0back-p.xlsx,instructions\0-BACK.png,"(15, 8)",practice,0,3,stim\gray.png,stim\gray.png,stim\yellow.png,stim\gray.png,right,0,0,0,0,0,0,0,0,0,7,7,7,,,,,,,,,,,,,,,,,,,,,,,,,,,88.0726237000199,89.0747903000447,88.0726237000199,89.0747903000447,88.0726237000199,89.0747903000447,88.0726237000199,89.0747903000447,right,1,0.31059469998581335,88.0726237000199,None,88.0726237000199,None,88.0726237000199,88.57325880002463,88.0726237000199,88.57325880002463,88.0726237000199,88.57325880002463,88.0726237000199,88.57325880002463,88.0726237000199,None,,,,,,,,,,,,,,,,,,,,,,,,,,,,,,,,,,,,,,,,,,11006,001,2024_Jan_01_1033,nback,2021.2.3,60.02336110931093,
0-back,instructions\back-0.png,conditions\0back-p.xlsx,instructions\0-BACK.png,"(15, 8)",practice,0,3,stim\gray.png,stim\gray.png,stim\yellow.png,stim\gray.png,right,0,0,0,0,0,0,0,0,0,8,8,8,,,,,,,,,,,,,,,,,,,,,,,,,,,89.57567869999912,90.5768834000337,89.57567869999912,90.5768834000337,89.57567869999912,90.5768834000337,89.57567869999912,90.5768834000337,right,1,0.3514918999862857,89.57567869999912,None,89.57567869999912,None,89.57567869999912,90.07576010003686,89.57567869999912,90.07576010003686,89.57567869999912,90.07576010003686,89.57567869999912,90.07576010003686,89.57567869999912,None,,,,,,,,,,,,,,,,,,,,,,,,,,,,,,,,,,,,,,,,,,11006,001,2024_Jan_01_1033,nback,2021.2.3,60.02336110931093,
0-back,instructions\back-0.png,conditions\0back-p.xlsx,instructions\0-BACK.png,"(15, 8)",practice,0,4,stim\gray.png,stim\gray.png,stim\gray.png,stim\yellow.png,down,0,0,0,0,0,0,0,0,0,9,9,9,,,,,,,,,,,,,,,,,,,,,,,,,,,91.0769126000232,92.0789819000056,91.0769126000232,92.0789819000056,91.0769126000232,92.0789819000056,91.0769126000232,92.0789819000056,down,1,0.4022359999944456,91.0769126000232,None,91.0769126000232,None,91.0769126000232,91.57851220003795,91.0769126000232,91.57851220003795,91.0769126000232,91.57851220003795,91.0769126000232,91.57851220003795,91.0769126000232,None,,,,,,,,,,,,,,,,,,,,,,,,,,,,,,,,,,,,,,,,,,11006,001,2024_Jan_01_1033,nback,2021.2.3,60.02336110931093,
0-back,instructions\back-0.png,conditions\0back-p.xlsx,instructions\0-BACK.png,"(15, 8)",practice,0,1,stim\yellow.png,stim\gray.png,stim\gray.png,stim\gray.png,up,0,0,0,0,0,0,0,0,0,10,10,10,,,,,,,,,,,,,,,,,,,,,,,,,,,92.57987439999124,93.58078950003255,92.57987439999124,93.58078950003255,92.57987439999124,93.58078950003255,92.57987439999124,93.58078950003255,up,1,0.44335259997751564,92.57987439999124,None,92.57987439999124,None,92.57987439999124,93.08090260002064,92.57987439999124,93.08090260002064,92.57987439999124,93.08090260002064,92.57987439999124,93.08090260002064,92.57987439999124,None,,,,,,,,,,,,,,,,,,,,,,,,,,,,,,,,,,,,,,,,,,11006,001,2024_Jan_01_1033,nback,2021.2.3,60.02336110931093,
0-back,instructions\back-0.png,conditions\0back-p.xlsx,instructions\0-BACK.png,"(15, 8)",practice,0,2,stim\gray.png,stim\yellow.png,stim\gray.png,stim\gray.png,left,0,0,0,0,0,0,0,0,0,11,11,11,,,,,,,,,,,,,,,,,,,,,,,,,,,94.08134520001477,95.08407320000697,94.08134520001477,95.08407320000697,94.08134520001477,95.08407320000697,94.08134520001477,95.08407320000697,left,1,0.2537258999655023,94.08134520001477,None,94.08134520001477,None,94.08134520001477,94.58243220002623,94.08134520001477,94.58243220002623,94.08134520001477,94.58243220002623,94.08134520001477,94.58243220002623,94.08134520001477,None,,,,,,,,,,,,,,,,,,,,,,,,,,,,,,,,,,,,,,,,,,11006,001,2024_Jan_01_1033,nback,2021.2.3,60.02336110931093,
0-back,instructions\back-0.png,conditions\0back-p.xlsx,instructions\0-BACK.png,"(15, 8)",practice,0,4,stim\gray.png,stim\gray.png,stim\gray.png,stim\yellow.png,down,0,0,0,0,0,0,0,0,0,12,12,12,,,,,,,,,,,,,,,,,,,,,,,,,,,95.58439630002249,96.5848968999926,95.58439630002249,96.5848968999926,95.58439630002249,96.5848968999926,95.58439630002249,96.5848968999926,down,1,0.4233764000236988,95.58439630002249,None,95.58439630002249,None,95.58439630002249,96.08445030002622,95.58439630002249,96.08445030002622,95.58439630002249,96.08445030002622,95.58439630002249,96.08445030002622,95.58439630002249,None,,,,,,,,,,,,,,,,,,,,,,,,,,,,,,,,,,,,,,,,,,11006,001,2024_Jan_01_1033,nback,2021.2.3,60.02336110931093,
0-back,instructions\back-0.png,conditions\0back-p.xlsx,instructions\0-BACK.png,"(15, 8)",practice,0,3,stim\gray.png,stim\gray.png,stim\yellow.png,stim\gray.png,right,0,0,0,0,0,0,0,0,0,13,13,13,,,,,,,,,,,,,,,,,,,,,,,,,,,97.08595209999476,98.08735069999238,97.08595209999476,98.08735069999238,97.08595209999476,98.08735069999238,97.08595209999476,98.08735069999238,right,1,0.24965479999082163,97.08595209999476,None,97.08595209999476,None,97.08595209999476,97.58724960003747,97.08595209999476,97.58724960003747,97.08595209999476,97.58724960003747,97.08595209999476,97.58724960003747,97.08595209999476,None,,,,,,,,,,,,,,,,,,,,,,,,,,,,,,,,,,,,,,,,,,11006,001,2024_Jan_01_1033,nback,2021.2.3,60.02336110931093,
0-back,instructions\back-0.png,conditions\0back-p.xlsx,instructions\0-BACK.png,"(15, 8)",practice,0,1,stim\yellow.png,stim\gray.png,stim\gray.png,stim\gray.png,up,0,0,0,0,0,0,0,0,0,14,14,14,,,,,,,,,,,,,,,,,,,,,,,,,,,98.58764040004462,99.59025240002666,98.58764040004462,99.59025240002666,98.58764040004462,99.59025240002666,98.58764040004462,99.59025240002666,up,1,0.2683017000090331,98.58764040004462,None,98.58764040004462,None,98.58764040004462,99.08940300001996,98.58764040004462,99.08940300001996,98.58764040004462,99.08940300001996,98.58764040004462,99.08940300001996,98.58764040004462,None,,,,,,,,,,,,,,,,,,,,,,,,,,,,,,,,,,,,,,,,,,11006,001,2024_Jan_01_1033,nback,2021.2.3,60.02336110931093,
0-back,instructions\back-0.png,conditions\0back-p.xlsx,instructions\0-BACK.png,"(15, 8)",practice,0,2,stim\gray.png,stim\yellow.png,stim\gray.png,stim\gray.png,left,0,0,0,0,0,0,0,0,0,15,15,15,,,,,,,,,,,,,,,,,,,,,,,,,,,100.07386090001091,101.07579820003593,100.07386090001091,101.07579820003593,100.07386090001091,101.07579820003593,100.07386090001091,101.07579820003593,left,1,0.24592989997472614,100.07386090001091,None,100.07386090001091,None,100.07386090001091,100.5747274000314,100.07386090001091,100.5747274000314,100.07386090001091,100.5747274000314,100.07386090001091,100.5747274000314,100.07386090001091,None,,,,,,,,,,,,,,,,,,,,,,,,,,,,,,,,,,,,,,,,,,11006,001,2024_Jan_01_1033,nback,2021.2.3,60.02336110931093,
0-back,instructions\back-0.png,conditions\0back-p.xlsx,instructions\0-BACK.png,"(15, 8)",practice,0,3,stim\gray.png,stim\gray.png,stim\yellow.png,stim\gray.png,right,0,0,0,0,0,0,0,0,0,16,16,16,,,,,,,,,,,,,,,,,,,,,,,,,,,101.5765323000378,102.57800249999855,101.5765323000378,102.57800249999855,101.5765323000378,102.57800249999855,101.5765323000378,102.57800249999855,right,1,0.3030213000020012,101.5765323000378,None,101.5765323000378,None,101.5765323000378,102.07739650004078,101.5765323000378,102.07739650004078,101.5765323000378,102.07739650004078,101.5765323000378,102.07739650004078,101.5765323000378,None,,,,,,,,,,,,,,,,,,,,,,,,,,,,,,,,,,,,,,,,,,11006,001,2024_Jan_01_1033,nback,2021.2.3,60.02336110931093,
0-back,instructions\back-0.png,conditions\0back-p.xlsx,instructions\0-BACK.png,"(15, 8)",practice,0,1,stim\yellow.png,stim\gray.png,stim\gray.png,stim\gray.png,up,0,0,0,0,0,0,0,0,0,17,17,17,,,,,,,,,,,,,,,,,,,,,,,,,,,103.07844450004632,104.08020070003113,103.07844450004632,104.08020070003113,103.07844450004632,104.08020070003113,103.07844450004632,104.08020070003113,up,1,0.2170918000047095,103.07844450004632,None,103.07844450004632,None,103.07844450004632,103.57827520003775,103.07844450004632,103.57827520003775,103.07844450004632,103.57827520003775,103.07844450004632,103.57827520003775,103.07844450004632,None,,,,,,,,,,,,,,,,,,,,,,,,,,,,,,,,,,,,,,,,,,11006,001,2024_Jan_01_1033,nback,2021.2.3,60.02336110931093,
0-back,instructions\back-0.png,conditions\0back-p.xlsx,instructions\0-BACK.png,"(15, 8)",practice,0,4,stim\gray.png,stim\gray.png,stim\gray.png,stim\yellow.png,down,0,0,0,0,0,0,0,0,0,18,18,18,,,,,,,,,,,,,,,,,,,,,,,,,,,104.58068230003119,105.58204840001417,104.58068230003119,105.58204840001417,104.58068230003119,105.58204840001417,104.58068230003119,105.58204840001417,down,1,0.24263480002991855,104.58068230003119,None,104.58068230003119,None,104.58068230003119,105.08110680000391,104.58068230003119,105.08110680000391,104.58068230003119,105.08110680000391,104.58068230003119,105.08110680000391,104.58068230003119,None,,,,,,,,,,,,,,,,,,,,,,,,,,,,,,,,,,,,,,,,,,11006,001,2024_Jan_01_1033,nback,2021.2.3,60.02336110931093,
0-back,instructions\back-0.png,conditions\0back-p.xlsx,instructions\0-BACK.png,"(15, 8)",practice,0,2,stim\gray.png,stim\yellow.png,stim\gray.png,stim\gray.png,left,0,0,0,0,0,0,0,0,0,19,19,19,,,,,,,,,,,,,,,,,,,,,,,,,,,106.08260480000172,107.08475130004808,106.08260480000172,107.08475130004808,106.08260480000172,107.08475130004808,106.08260480000172,107.08475130004808,left,1,0.23659260000567883,106.08260480000172,None,106.08260480000172,None,106.08260480000172,106.58336750004673,106.08260480000172,106.58336750004673,106.08260480000172,106.58336750004673,106.08260480000172,106.58336750004673,106.08260480000172,None,,,,,,,,,,,,,,,,,,,,,,,,,,,,,,,,,,,,,,,,,,11006,001,2024_Jan_01_1033,nback,2021.2.3,60.02336110931093,
0-back,instructions\back-0.png,conditions\0back-p.xlsx,instructions\0-BACK.png,"(15, 8)",,,,,,,,,0,0,0,0,0,0,0,0,,,,,,,,,,,,,,,,,,,,,,,,,,,,,,,,,,,,,,,,,,,,,,,,,,,,,,,,,,,,,,,,,,,,,,,,,,,,,,,,,,,,,,,,,,,,,,,,,11006,001,2024_Jan_01_1033,nback,2021.2.3,60.02336110931093,
1-back,instructions\back-1.png,conditions\1back-p.xlsx,instructions\1-BACK.png,"(25, 15)",practice,1,1,stim\yellow.png,stim\gray.png,stim\gray.png,stim\gray.png,None,0,0,0,0,0,1,1,1,0,0,0,0,,,,,,,,,,,,,,,,,107.70209979999345,None,space,6.688776800001506,107.70209979999345,None,114.51195509999525,119.01919660001295,118.98698240000522,None,119.43654359999346,120.43801520002307,119.43654359999346,120.43801520002307,119.43654359999346,120.43801520002307,119.43654359999346,120.43801520002307,None,1,,119.43654359999346,None,119.43654359999346,None,119.43654359999346,119.93711679999251,119.43654359999346,119.93711679999251,119.43654359999346,119.93711679999251,119.43654359999346,119.93711679999251,119.43654359999346,None,,,,,,,,,,,,,,,,,,,,,,,,,,,,,,,,,,,,,,,,,,11006,001,2024_Jan_01_1033,nback,2021.2.3,60.02336110931093,
1-back,instructions\back-1.png,conditions\1back-p.xlsx,instructions\1-BACK.png,"(25, 15)",practice,1,2,stim\gray.png,stim\yellow.png,stim\gray.png,stim\gray.png,up,0,0,0,0,0,1,1,1,0,1,1,1,,,,,,,,,,,,,,,,,,,,,,,,,,,120.9212802000111,121.92333660001168,120.9212802000111,121.92333660001168,120.9212802000111,121.92333660001168,120.9212802000111,121.92333660001168,up,1,0.4059319000225514,120.9212802000111,None,120.9212802000111,None,120.9212802000111,121.42298040003516,120.9212802000111,121.42298040003516,120.9212802000111,121.42298040003516,120.9212802000111,121.42298040003516,120.9212802000111,None,,,,,,,,,,,,,,,,,,,,,,,,,,,,,,,,,,,,,,,,,,11006,001,2024_Jan_01_1033,nback,2021.2.3,60.02336110931093,
1-back,instructions\back-1.png,conditions\1back-p.xlsx,instructions\1-BACK.png,"(25, 15)",practice,1,3,stim\gray.png,stim\gray.png,stim\yellow.png,stim\gray.png,left,0,0,0,0,0,1,1,1,0,2,2,2,,,,,,,,,,,,,,,,,,,,,,,,,,,122.42332739999983,123.42568869999377,122.42332739999983,123.42568869999377,122.42332739999983,123.42568869999377,122.42332739999983,123.42568869999377,left,1,0.31994509999640286,122.42332739999983,None,122.42332739999983,None,122.42332739999983,122.92485050001414,122.42332739999983,122.92485050001414,122.42332739999983,122.92485050001414,122.42332739999983,122.92485050001414,122.42332739999983,None,,,,,,,,,,,,,,,,,,,,,,,,,,,,,,,,,,,,,,,,,,11006,001,2024_Jan_01_1033,nback,2021.2.3,60.02336110931093,
1-back,instructions\back-1.png,conditions\1back-p.xlsx,instructions\1-BACK.png,"(25, 15)",practice,1,4,stim\gray.png,stim\gray.png,stim\gray.png,stim\yellow.png,right,0,0,0,0,0,1,1,1,0,3,3,3,,,,,,,,,,,,,,,,,,,,,,,,,,,123.9260334999999,124.92719310004031,123.9260334999999,124.92719310004031,123.9260334999999,124.92719310004031,123.9260334999999,124.92719310004031,right,1,0.3212282999884337,123.9260334999999,None,123.9260334999999,None,123.9260334999999,124.4270855000359,123.9260334999999,124.4270855000359,123.9260334999999,124.4270855000359,123.9260334999999,124.4270855000359,123.9260334999999,None,,,,,,,,,,,,,,,,,,,,,,,,,,,,,,,,,,,,,,,,,,11006,001,2024_Jan_01_1033,nback,2021.2.3,60.02336110931093,
1-back,instructions\back-1.png,conditions\1back-p.xlsx,instructions\1-BACK.png,"(25, 15)",practice,1,2,stim\gray.png,stim\yellow.png,stim\gray.png,stim\gray.png,down,0,0,0,0,0,1,1,1,0,4,4,4,,,,,,,,,,,,,,,,,,,,,,,,,,,125.42786540003726,126.42936760000885,125.42786540003726,126.42936760000885,125.42786540003726,126.42936760000885,125.42786540003726,126.42936760000885,down,1,0.21160039998358116,125.42786540003726,None,125.42786540003726,None,125.42786540003726,125.9297871000017,125.42786540003726,125.9297871000017,125.42786540003726,125.9297871000017,125.42786540003726,125.9297871000017,125.42786540003726,None,,,,,,,,,,,,,,,,,,,,,,,,,,,,,,,,,,,,,,,,,,11006,001,2024_Jan_01_1033,nback,2021.2.3,60.02336110931093,
1-back,instructions\back-1.png,conditions\1back-p.xlsx,instructions\1-BACK.png,"(25, 15)",practice,1,1,stim\yellow.png,stim\gray.png,stim\gray.png,stim\gray.png,left,0,0,0,0,0,1,1,1,0,5,5,5,,,,,,,,,,,,,,,,,,,,,,,,,,,126.9301695000031,127.93184279999696,126.9301695000031,127.93184279999696,126.9301695000031,127.93184279999696,126.9301695000031,127.93184279999696,down,0,1.229696199996397,126.9301695000031,None,126.9301695000031,None,126.9301695000031,127.43184040003689,126.9301695000031,127.43184040003689,126.9301695000031,127.43184040003689,126.9301695000031,127.43184040003689,126.9301695000031,None,,,,,,,,,,,,,,,,,,,,,,,,,,,,,,,,,,,,,,,,,,11006,001,2024_Jan_01_1033,nback,2021.2.3,60.02336110931093,
1-back,instructions\back-1.png,conditions\1back-p.xlsx,instructions\1-BACK.png,"(25, 15)",practice,1,4,stim\gray.png,stim\gray.png,stim\gray.png,stim\yellow.png,up,0,0,0,0,0,1,1,1,0,6,6,6,,,,,,,,,,,,,,,,,,,,,,,,,,,128.41559280001093,129.41701710002962,128.41559280001093,129.41701710002962,128.41559280001093,129.41701710002962,128.41559280001093,129.41701710002962,up,1,0.7839853999903426,128.41559280001093,None,128.41559280001093,None,128.41559280001093,128.9164221000392,128.41559280001093,128.9164221000392,128.41559280001093,128.9164221000392,128.41559280001093,128.9164221000392,128.41559280001093,None,,,,,,,,,,,,,,,,,,,,,,,,,,,,,,,,,,,,,,,,,,11006,001,2024_Jan_01_1033,nback,2021.2.3,60.02336110931093,
1-back,instructions\back-1.png,conditions\1back-p.xlsx,instructions\1-BACK.png,"(25, 15)",practice,1,3,stim\gray.png,stim\gray.png,stim\yellow.png,stim\gray.png,down,0,0,0,0,0,1,1,1,0,7,7,7,,,,,,,,,,,,,,,,,,,,,,,,,,,129.91791690001264,130.92003410001053,129.91791690001264,130.92003410001053,129.91791690001264,130.92003410001053,129.91791690001264,130.92003410001053,up,0,0.4094127000425942,129.91791690001264,None,129.91791690001264,None,129.91791690001264,130.4196507000015,129.91791690001264,130.4196507000015,129.91791690001264,130.4196507000015,129.91791690001264,130.4196507000015,129.91791690001264,None,,,,,,,,,,,,,,,,,,,,,,,,,,,,,,,,,,,,,,,,,,11006,001,2024_Jan_01_1033,nback,2021.2.3,60.02336110931093,
1-back,instructions\back-1.png,conditions\1back-p.xlsx,instructions\1-BACK.png,"(25, 15)",practice,1,3,stim\gray.png,stim\gray.png,stim\yellow.png,stim\gray.png,right,0,0,0,0,0,1,1,1,0,8,8,8,,,,,,,,,,,,,,,,,,,,,,,,,,,131.41998030000832,132.42162100004498,131.41998030000832,132.42162100004498,131.41998030000832,132.42162100004498,131.41998030000832,132.42162100004498,left,0,0.17959119996521622,131.41998030000832,None,131.41998030000832,None,131.41998030000832,131.92122489999747,131.41998030000832,131.92122489999747,131.41998030000832,131.92122489999747,131.41998030000832,131.92122489999747,131.41998030000832,None,,,,,,,,,,,,,,,,,,,,,,,,,,,,,,,,,,,,,,,,,,11006,001,2024_Jan_01_1033,nback,2021.2.3,60.02336110931093,
1-back,instructions\back-1.png,conditions\1back-p.xlsx,instructions\1-BACK.png,"(25, 15)",practice,1,4,stim\gray.png,stim\gray.png,stim\gray.png,stim\yellow.png,right,0,0,0,0,0,1,1,1,0,9,9,9,,,,,,,,,,,,,,,,,,,,,,,,,,,132.92221099999733,133.92446650000056,132.92221099999733,133.92446650000056,132.92221099999733,133.92446650000056,132.92221099999733,133.92446650000056,left,0,0.2930236999527551,132.92221099999733,None,132.92221099999733,None,132.92221099999733,133.42332320002606,132.92221099999733,133.42332320002606,132.92221099999733,133.42332320002606,132.92221099999733,133.42332320002606,132.92221099999733,None,,,,,,,,,,,,,,,,,,,,,,,,,,,,,,,,,,,,,,,,,,11006,001,2024_Jan_01_1033,nback,2021.2.3,60.02336110931093,
1-back,instructions\back-1.png,conditions\1back-p.xlsx,instructions\1-BACK.png,"(25, 15)",practice,1,1,stim\yellow.png,stim\gray.png,stim\gray.png,stim\gray.png,down,0,0,0,0,0,1,1,1,0,10,10,10,,,,,,,,,,,,,,,,,,,,,,,,,,,134.4246452000225,135.42596020002384,134.4246452000225,135.42596020002384,134.4246452000225,135.42596020002384,134.4246452000225,135.42596020002384,up,0,0.2388201000285335,134.4246452000225,None,134.4246452000225,None,134.4246452000225,134.92612680001184,134.4246452000225,134.92612680001184,134.4246452000225,134.92612680001184,134.4246452000225,134.92612680001184,134.4246452000225,None,,,,,,,,,,,,,,,,,,,,,,,,,,,,,,,,,,,,,,,,,,11006,001,2024_Jan_01_1033,nback,2021.2.3,60.02336110931093,
1-back,instructions\back-1.png,conditions\1back-p.xlsx,instructions\1-BACK.png,"(25, 15)",practice,1,2,stim\gray.png,stim\yellow.png,stim\gray.png,stim\gray.png,up,0,0,0,0,0,1,1,1,0,11,11,11,,,,,,,,,,,,,,,,,,,,,,,,,,,135.9268071000115,136.92879740003264,135.9268071000115,136.92879740003264,135.9268071000115,136.92879740003264,135.9268071000115,136.92879740003264,down,0,0.21709890000056475,135.9268071000115,None,135.9268071000115,None,135.9268071000115,136.427596500027,135.9268071000115,136.427596500027,135.9268071000115,136.427596500027,135.9268071000115,136.427596500027,135.9268071000115,None,,,,,,,,,,,,,,,,,,,,,,,,,,,,,,,,,,,,,,,,,,11006,001,2024_Jan_01_1033,nback,2021.2.3,60.02336110931093,
1-back,instructions\back-1.png,conditions\1back-p.xlsx,instructions\1-BACK.png,"(25, 15)",practice,1,4,stim\gray.png,stim\gray.png,stim\gray.png,stim\yellow.png,left,0,0,0,0,0,1,1,1,0,12,12,12,,,,,,,,,,,,,,,,,,,,,,,,,,,137.42944450001232,138.43042290001176,137.42944450001232,138.43042290001176,137.42944450001232,138.43042290001176,137.42944450001232,138.43042290001176,right,0,0.09018930001184344,137.42944450001232,None,137.42944450001232,None,137.42944450001232,137.9302407000214,137.42944450001232,137.9302407000214,137.42944450001232,137.9302407000214,137.42944450001232,137.9302407000214,137.42944450001232,None,,,,,,,,,,,,,,,,,,,,,,,,,,,,,,,,,,,,,,,,,,11006,001,2024_Jan_01_1033,nback,2021.2.3,60.02336110931093,
1-back,instructions\back-1.png,conditions\1back-p.xlsx,instructions\1-BACK.png,"(25, 15)",practice,1,3,stim\gray.png,stim\gray.png,stim\yellow.png,stim\gray.png,down,0,0,0,0,0,1,1,1,0,13,13,13,,,,,,,,,,,,,,,,,,,,,,,,,,,138.9312181000132,139.93301179999253,138.9312181000132,139.93301179999253,138.9312181000132,139.93301179999253,138.9312181000132,139.93301179999253,up,0,0.035919399990234524,138.9312181000132,None,138.9312181000132,None,138.9312181000132,139.4320735000074,138.9312181000132,139.4320735000074,138.9312181000132,139.4320735000074,138.9312181000132,139.4320735000074,138.9312181000132,None,,,,,,,,,,,,,,,,,,,,,,,,,,,,,,,,,,,,,,,,,,11006,001,2024_Jan_01_1033,nback,2021.2.3,60.02336110931093,
1-back,instructions\back-1.png,conditions\1back-p.xlsx,instructions\1-BACK.png,"(25, 15)",practice,1,1,stim\yellow.png,stim\gray.png,stim\gray.png,stim\gray.png,right,0,0,0,0,0,1,1,1,0,14,14,14,,,,,,,,,,,,,,,,,,,,,,,,,,,140.41653260000749,141.4186808000086,140.41653260000749,141.4186808000086,140.41653260000749,141.4186808000086,140.41653260000749,141.4186808000086,left,0,0.1028848999994807,140.41653260000749,None,140.41653260000749,None,140.41653260000749,140.91763510002056,140.41653260000749,140.91763510002056,140.41653260000749,140.91763510002056,140.41653260000749,140.91763510002056,140.41653260000749,None,,,,,,,,,,,,,,,,,,,,,,,,,,,,,,,,,,,,,,,,,,11006,001,2024_Jan_01_1033,nback,2021.2.3,60.02336110931093,
1-back,instructions\back-1.png,conditions\1back-p.xlsx,instructions\1-BACK.png,"(25, 15)",practice,1,2,stim\gray.png,stim\yellow.png,stim\gray.png,stim\gray.png,up,0,0,0,0,0,1,1,1,0,15,15,15,,,,,,,,,,,,,,,,,,,,,,,,,,,141.918992299994,142.92057529999875,141.918992299994,142.92057529999875,141.918992299994,142.92057529999875,141.918992299994,142.92057529999875,down,0,0.09712769999168813,141.918992299994,None,141.918992299994,None,141.918992299994,142.42082650004886,141.918992299994,142.42082650004886,141.918992299994,142.42082650004886,141.918992299994,142.42082650004886,141.918992299994,None,,,,,,,,,,,,,,,,,,,,,,,,,,,,,,,,,,,,,,,,,,11006,001,2024_Jan_01_1033,nback,2021.2.3,60.02336110931093,
1-back,instructions\back-1.png,conditions\1back-p.xlsx,instructions\1-BACK.png,"(25, 15)",practice,1,3,stim\gray.png,stim\gray.png,stim\yellow.png,stim\gray.png,left,0,0,0,0,0,1,1,1,0,16,16,16,,,,,,,,,,,,,,,,,,,,,,,,,,,143.4211669000215,144.42389790003654,143.4211669000215,144.42389790003654,143.4211669000215,144.42389790003654,143.4211669000215,144.42389790003654,left,1,0.41860449995147064,143.4211669000215,None,143.4211669000215,None,143.4211669000215,143.92197110003326,143.4211669000215,143.92197110003326,143.4211669000215,143.92197110003326,143.4211669000215,143.92197110003326,143.4211669000215,None,,,,,,,,,,,,,,,,,,,,,,,,,,,,,,,,,,,,,,,,,,11006,001,2024_Jan_01_1033,nback,2021.2.3,60.02336110931093,
1-back,instructions\back-1.png,conditions\1back-p.xlsx,instructions\1-BACK.png,"(25, 15)",practice,1,1,stim\yellow.png,stim\gray.png,stim\gray.png,stim\gray.png,right,0,0,0,0,0,1,1,1,0,17,17,17,,,,,,,,,,,,,,,,,,,,,,,,,,,144.92345000000205,145.92566730000544,144.92345000000205,145.92566730000544,144.92345000000205,145.92566730000544,144.92345000000205,145.92566730000544,right,1,0.4036439000046812,144.92345000000205,None,144.92345000000205,None,144.92345000000205,145.4249606000376,144.92345000000205,145.4249606000376,144.92345000000205,145.4249606000376,144.92345000000205,145.4249606000376,144.92345000000205,None,,,,,,,,,,,,,,,,,,,,,,,,,,,,,,,,,,,,,,,,,,11006,001,2024_Jan_01_1033,nback,2021.2.3,60.02336110931093,
1-back,instructions\back-1.png,conditions\1back-p.xlsx,instructions\1-BACK.png,"(25, 15)",practice,1,4,stim\gray.png,stim\gray.png,stim\gray.png,stim\yellow.png,up,0,0,0,0,0,1,1,1,0,18,18,18,,,,,,,,,,,,,,,,,,,,,,,,,,,146.42645329999505,147.42787030001637,146.42645329999505,147.42787030001637,146.42645329999505,147.42787030001637,146.42645329999505,147.42787030001637,down,0,0.4926801999681629,146.42645329999505,None,146.42645329999505,None,146.42645329999505,146.926351000031,146.42645329999505,146.926351000031,146.42645329999505,146.926351000031,146.42645329999505,146.926351000031,146.42645329999505,None,,,,,,,,,,,,,,,,,,,,,,,,,,,,,,,,,,,,,,,,,,11006,001,2024_Jan_01_1033,nback,2021.2.3,60.02336110931093,
1-back,instructions\back-1.png,conditions\1back-p.xlsx,instructions\1-BACK.png,"(25, 15)",practice,1,2,stim\gray.png,stim\yellow.png,stim\gray.png,stim\gray.png,down,0,0,0,0,0,1,1,1,0,19,19,19,,,,,,,,,,,,,,,,,,,,,,,,,,,147.9277757999953,148.929891900043,147.9277757999953,148.929891900043,147.9277757999953,148.929891900043,147.9277757999953,148.929891900043,down,1,0.40060229995287955,147.9277757999953,None,147.9277757999953,None,147.9277757999953,148.4292790000327,147.9277757999953,148.4292790000327,147.9277757999953,148.4292790000327,147.9277757999953,148.4292790000327,147.9277757999953,None,,,,,,,,,,,,,,,,,,,,,,,,,,,,,,,,,,,,,,,,,,11006,001,2024_Jan_01_1033,nback,2021.2.3,60.02336110931093,
1-back,instructions\back-1.png,conditions\1back-p.xlsx,instructions\1-BACK.png,"(25, 15)",,,,,,,,,0,0,0,0,0,1,1,1,,,,,,,,,,,,,,,,,,,,,,,,,,,,,,,,,,,,,,,,,,,,,,,,,,,,,,,,,,,,,,,,,,,,,,,,,,,,,,,,,,,,,,,,,,,,,,,,,11006,001,2024_Jan_01_1033,nback,2021.2.3,60.02336110931093,
2-back,instructions\back-2.png,conditions\2back-p.xlsx,instructions\2-BACK.png,"(25, 15)",practice,2,1,stim\yellow.png,stim\gray.png,stim\gray.png,stim\gray.png,None,0,0,0,0,0,2,2,2,0,0,0,0,,,,,,,,,,,,,,,,,149.54700570000568,None,space,3.812180200009607,149.54700570000568,None,153.5027667999966,158.00988990004407,157.9600650999928,None,158.41195820004214,159.41160710004624,158.41195820004214,159.41160710004624,158.41195820004214,159.41160710004624,158.41195820004214,159.41160710004624,None,1,,158.41195820004214,None,158.41195820004214,None,158.41195820004214,158.91144749999512,158.41195820004214,158.91144749999512,158.41195820004214,158.91144749999512,158.41195820004214,158.91144749999512,158.41195820004214,None,,,,,,,,,,,,,,,,,,,,,,,,,,,,,,,,,,,,,,,,,,11006,001,2024_Jan_01_1033,nback,2021.2.3,60.02336110931093,
2-back,instructions\back-2.png,conditions\2back-p.xlsx,instructions\2-BACK.png,"(25, 15)",practice,2,2,stim\gray.png,stim\yellow.png,stim\gray.png,stim\gray.png,None,0,0,0,0,0,2,2,2,0,1,1,1,,,,,,,,,,,,,,,,,,,,,,,,,,,159.89555380004458,160.89802520000376,159.89555380004458,160.89802520000376,159.89555380004458,160.89802520000376,159.89555380004458,160.89802520000376,None,1,,159.89555380004458,None,159.89555380004458,None,159.89555380004458,160.39714910002658,159.89555380004458,160.39714910002658,159.89555380004458,160.39714910002658,159.89555380004458,160.39714910002658,159.89555380004458,None,,,,,,,,,,,,,,,,,,,,,,,,,,,,,,,,,,,,,,,,,,11006,001,2024_Jan_01_1033,nback,2021.2.3,60.02336110931093,
2-back,instructions\back-2.png,conditions\2back-p.xlsx,instructions\2-BACK.png,"(25, 15)",practice,2,3,stim\gray.png,stim\gray.png,stim\yellow.png,stim\gray.png,up,0,0,0,0,0,2,2,2,0,2,2,2,,,,,,,,,,,,,,,,,,,,,,,,,,,161.39778090000618,162.40002940001432,161.39778090000618,162.40002940001432,161.39778090000618,162.40002940001432,161.39778090000618,162.40002940001432,up,1,0.31363589997636154,161.39778090000618,None,161.39778090000618,None,161.39778090000618,161.8985886000446,161.39778090000618,161.8985886000446,161.39778090000618,161.8985886000446,161.39778090000618,161.8985886000446,161.39778090000618,None,,,,,,,,,,,,,,,,,,,,,,,,,,,,,,,,,,,,,,,,,,11006,001,2024_Jan_01_1033,nback,2021.2.3,60.02336110931093,
2-back,instructions\back-2.png,conditions\2back-p.xlsx,instructions\2-BACK.png,"(25, 15)",practice,2,4,stim\gray.png,stim\gray.png,stim\gray.png,stim\yellow.png,left,0,0,0,0,0,2,2,2,0,3,3,3,,,,,,,,,,,,,,,,,,,,,,,,,,,162.90067280002404,163.90252910001436,162.90067280002404,163.90252910001436,162.90067280002404,163.90252910001436,162.90067280002404,163.90252910001436,left,1,0.754625599947758,162.90067280002404,None,162.90067280002404,None,162.90067280002404,163.40156020002905,162.90067280002404,163.40156020002905,162.90067280002404,163.40156020002905,162.90067280002404,163.40156020002905,162.90067280002404,None,,,,,,,,,,,,,,,,,,,,,,,,,,,,,,,,,,,,,,,,,,11006,001,2024_Jan_01_1033,nback,2021.2.3,60.02336110931093,
2-back,instructions\back-2.png,conditions\2back-p.xlsx,instructions\2-BACK.png,"(25, 15)",practice,2,2,stim\gray.png,stim\yellow.png,stim\gray.png,stim\gray.png,right,0,0,0,0,0,2,2,2,0,4,4,4,,,,,,,,,,,,,,,,,,,,,,,,,,,164.40212610003073,165.40461190004135,164.40212610003073,165.40461190004135,164.40212610003073,165.40461190004135,164.40212610003073,165.40461190004135,right,1,0.4859394000377506,164.40212610003073,None,164.40212610003073,None,164.40212610003073,164.90310350002255,164.40212610003073,164.90310350002255,164.40212610003073,164.90310350002255,164.40212610003073,164.90310350002255,164.40212610003073,None,,,,,,,,,,,,,,,,,,,,,,,,,,,,,,,,,,,,,,,,,,11006,001,2024_Jan_01_1033,nback,2021.2.3,60.02336110931093,
2-back,instructions\back-2.png,conditions\2back-p.xlsx,instructions\2-BACK.png,"(25, 15)",practice,2,1,stim\yellow.png,stim\gray.png,stim\gray.png,stim\gray.png,down,0,0,0,0,0,2,2,2,0,5,5,5,,,,,,,,,,,,,,,,,,,,,,,,,,,165.9053375000367,166.90675339999143,165.9053375000367,166.90675339999143,165.9053375000367,166.90675339999143,165.9053375000367,166.90675339999143,down,1,0.27832839998882264,165.9053375000367,None,165.9053375000367,None,165.9053375000367,166.4060055000009,165.9053375000367,166.4060055000009,165.9053375000367,166.4060055000009,165.9053375000367,166.4060055000009,165.9053375000367,None,,,,,,,,,,,,,,,,,,,,,,,,,,,,,,,,,,,,,,,,,,11006,001,2024_Jan_01_1033,nback,2021.2.3,60.02336110931093,
2-back,instructions\back-2.png,conditions\2back-p.xlsx,instructions\2-BACK.png,"(25, 15)",practice,2,4,stim\gray.png,stim\gray.png,stim\gray.png,stim\yellow.png,left,0,0,0,0,0,2,2,2,0,6,6,6,,,,,,,,,,,,,,,,,,,,,,,,,,,167.38990800001193,168.3921639000182,167.38990800001193,168.3921639000182,167.38990800001193,168.3921639000182,167.38990800001193,168.3921639000182,right,0,0.11372019996633753,167.38990800001193,None,167.38990800001193,None,167.38990800001193,167.8906905000331,167.38990800001193,167.8906905000331,167.38990800001193,167.8906905000331,167.38990800001193,167.8906905000331,167.38990800001193,None,,,,,,,,,,,,,,,,,,,,,,,,,,,,,,,,,,,,,,,,,,11006,001,2024_Jan_01_1033,nback,2021.2.3,60.02336110931093,
2-back,instructions\back-2.png,conditions\2back-p.xlsx,instructions\2-BACK.png,"(25, 15)",practice,2,3,stim\gray.png,stim\gray.png,stim\yellow.png,stim\gray.png,up,0,0,0,0,0,2,2,2,0,7,7,7,,,,,,,,,,,,,,,,,,,,,,,,,,,168.8930754000321,169.89421699999366,168.8930754000321,169.89421699999366,168.8930754000321,169.89421699999366,168.8930754000321,169.89421699999366,down,0,1.2904599999892525,168.8930754000321,None,168.8930754000321,None,168.8930754000321,169.39368440001272,168.8930754000321,169.39368440001272,168.8930754000321,169.39368440001272,168.8930754000321,169.39368440001272,168.8930754000321,None,,,,,,,,,,,,,,,,,,,,,,,,,,,,,,,,,,,,,,,,,,11006,001,2024_Jan_01_1033,nback,2021.2.3,60.02336110931093,
2-back,instructions\back-2.png,conditions\2back-p.xlsx,instructions\2-BACK.png,"(25, 15)",practice,2,3,stim\gray.png,stim\gray.png,stim\yellow.png,stim\gray.png,down,0,0,0,0,0,2,2,2,0,8,8,8,,,,,,,,,,,,,,,,,,,,,,,,,,,170.39460440003313,171.39592110004742,170.39460440003313,171.39592110004742,170.39460440003313,171.39592110004742,170.39460440003313,171.39592110004742,left,0,1.1491847999859601,170.39460440003313,None,170.39460440003313,None,170.39460440003313,170.89631770004053,170.39460440003313,170.89631770004053,170.39460440003313,170.89631770004053,170.39460440003313,170.89631770004053,170.39460440003313,None,,,,,,,,,,,,,,,,,,,,,,,,,,,,,,,,,,,,,,,,,,11006,001,2024_Jan_01_1033,nback,2021.2.3,60.02336110931093,
2-back,instructions\back-2.png,conditions\2back-p.xlsx,instructions\2-BACK.png,"(25, 15)",practice,2,4,stim\gray.png,stim\gray.png,stim\gray.png,stim\yellow.png,right,0,0,0,0,0,2,2,2,0,9,9,9,,,,,,,,,,,,,,,,,,,,,,,,,,,171.89680800004862,172.89909250003984,171.89680800004862,172.89909250003984,171.89680800004862,172.89909250003984,171.89680800004862,172.89909250003984,right,1,0.31945129996165633,171.89680800004862,None,171.89680800004862,None,171.89680800004862,172.39750469999854,171.89680800004862,172.39750469999854,171.89680800004862,172.39750469999854,171.89680800004862,172.39750469999854,171.89680800004862,None,,,,,,,,,,,,,,,,,,,,,,,,,,,,,,,,,,,,,,,,,,11006,001,2024_Jan_01_1033,nback,2021.2.3,60.02336110931093,
2-back,instructions\back-2.png,conditions\2back-p.xlsx,instructions\2-BACK.png,"(25, 15)",practice,2,1,stim\yellow.png,stim\gray.png,stim\gray.png,stim\gray.png,right,0,0,0,0,0,2,2,2,0,10,10,10,,,,,,,,,,,,,,,,,,,,,,,,,,,173.39904440002283,174.40046249999432,173.39904440002283,174.40046249999432,173.39904440002283,174.40046249999432,173.39904440002283,174.40046249999432,right,1,0.5204221000312828,173.39904440002283,None,173.39904440002283,None,173.39904440002283,173.9004160000477,173.39904440002283,173.9004160000477,173.39904440002283,173.9004160000477,173.39904440002283,173.9004160000477,173.39904440002283,None,,,,,,,,,,,,,,,,,,,,,,,,,,,,,,,,,,,,,,,,,,11006,001,2024_Jan_01_1033,nback,2021.2.3,60.02336110931093,
2-back,instructions\back-2.png,conditions\2back-p.xlsx,instructions\2-BACK.png,"(25, 15)",practice,2,2,stim\gray.png,stim\yellow.png,stim\gray.png,stim\gray.png,down,0,0,0,0,0,2,2,2,0,11,11,11,,,,,,,,,,,,,,,,,,,,,,,,,,,174.90191670000786,175.90248910000082,174.90191670000786,175.90248910000082,174.90191670000786,175.90248910000082,174.90191670000786,175.90248910000082,left,0,0.5856172000057995,174.90191670000786,None,174.90191670000786,None,174.90191670000786,175.40259950002655,174.90191670000786,175.40259950002655,174.90191670000786,175.40259950002655,174.90191670000786,175.40259950002655,174.90191670000786,None,,,,,,,,,,,,,,,,,,,,,,,,,,,,,,,,,,,,,,,,,,11006,001,2024_Jan_01_1033,nback,2021.2.3,60.02336110931093,
2-back,instructions\back-2.png,conditions\2back-p.xlsx,instructions\2-BACK.png,"(25, 15)",practice,2,4,stim\gray.png,stim\gray.png,stim\gray.png,stim\yellow.png,up,0,0,0,0,0,2,2,2,0,12,12,12,,,,,,,,,,,,,,,,,,,,,,,,,,,176.40332219999982,177.40564400004223,176.40332219999982,177.40564400004223,176.40332219999982,177.40564400004223,176.40332219999982,177.40564400004223,None,0,,176.40332219999982,None,176.40332219999982,None,176.40332219999982,176.9047966999933,176.40332219999982,176.9047966999933,176.40332219999982,176.9047966999933,176.40332219999982,176.9047966999933,176.40332219999982,None,,,,,,,,,,,,,,,,,,,,,,,,,,,,,,,,,,,,,,,,,,11006,001,2024_Jan_01_1033,nback,2021.2.3,60.02336110931093,
2-back,instructions\back-2.png,conditions\2back-p.xlsx,instructions\2-BACK.png,"(25, 15)",practice,2,3,stim\gray.png,stim\gray.png,stim\yellow.png,stim\gray.png,left,0,0,0,0,0,2,2,2,0,13,13,13,,,,,,,,,,,,,,,,,,,,,,,,,,,177.90562670002691,178.90779309999198,177.90562670002691,178.90779309999198,177.90562670002691,178.90779309999198,177.90562670002691,178.90779309999198,up,0,0.18225199996959418,177.90562670002691,None,177.90562670002691,None,177.90562670002691,178.4065043000155,177.90562670002691,178.4065043000155,177.90562670002691,178.4065043000155,177.90562670002691,178.4065043000155,177.90562670002691,None,,,,,,,,,,,,,,,,,,,,,,,,,,,,,,,,,,,,,,,,,,11006,001,2024_Jan_01_1033,nback,2021.2.3,60.02336110931093,
2-back,instructions\back-2.png,conditions\2back-p.xlsx,instructions\2-BACK.png,"(25, 15)",practice,2,1,stim\yellow.png,stim\gray.png,stim\gray.png,stim\gray.png,down,0,0,0,0,0,2,2,2,0,14,14,14,,,,,,,,,,,,,,,,,,,,,,,,,,,179.3911589999916,180.39247419999447,179.3911589999916,180.39247419999447,179.3911589999916,180.39247419999447,179.3911589999916,180.39247419999447,left,0,0.12833239999599755,179.3911589999916,None,179.3911589999916,None,179.3911589999916,179.89214170002379,179.3911589999916,179.89214170002379,179.3911589999916,179.89214170002379,179.3911589999916,179.89214170002379,179.3911589999916,None,,,,,,,,,,,,,,,,,,,,,,,,,,,,,,,,,,,,,,,,,,11006,001,2024_Jan_01_1033,nback,2021.2.3,60.02336110931093,
2-back,instructions\back-2.png,conditions\2back-p.xlsx,instructions\2-BACK.png,"(25, 15)",practice,2,2,stim\gray.png,stim\yellow.png,stim\gray.png,stim\gray.png,right,0,0,0,0,0,2,2,2,0,15,15,15,,,,,,,,,,,,,,,,,,,,,,,,,,,180.89387440000428,181.89555690000998,180.89387440000428,181.89555690000998,180.89387440000428,181.89555690000998,180.89387440000428,181.89555690000998,right,1,0.05023069999879226,180.89387440000428,None,180.89387440000428,None,180.89387440000428,181.39460820000386,180.89387440000428,181.39460820000386,180.89387440000428,181.39460820000386,180.89387440000428,181.39460820000386,180.89387440000428,None,,,,,,,,,,,,,,,,,,,,,,,,,,,,,,,,,,,,,,,,,,11006,001,2024_Jan_01_1033,nback,2021.2.3,60.02336110931093,
2-back,instructions\back-2.png,conditions\2back-p.xlsx,instructions\2-BACK.png,"(25, 15)",practice,2,3,stim\gray.png,stim\gray.png,stim\yellow.png,stim\gray.png,up,0,0,0,0,0,2,2,2,0,16,16,16,,,,,,,,,,,,,,,,,,,,,,,,,,,182.39567800000077,183.39720460004173,182.39567800000077,183.39720460004173,182.39567800000077,183.39720460004173,182.39567800000077,183.39720460004173,left,0,1.3080945999827236,182.39567800000077,None,182.39567800000077,None,182.39567800000077,182.89702700002817,182.39567800000077,182.89702700002817,182.39567800000077,182.89702700002817,182.39567800000077,182.89702700002817,182.39567800000077,None,,,,,,,,,,,,,,,,,,,,,,,,,,,,,,,,,,,,,,,,,,11006,001,2024_Jan_01_1033,nback,2021.2.3,60.02336110931093,
2-back,instructions\back-2.png,conditions\2back-p.xlsx,instructions\2-BACK.png,"(25, 15)",practice,2,1,stim\yellow.png,stim\gray.png,stim\gray.png,stim\gray.png,left,0,0,0,0,0,2,2,2,0,17,17,17,,,,,,,,,,,,,,,,,,,,,,,,,,,183.89775270002428,184.89926110004308,183.89775270002428,184.89926110004308,183.89775270002428,184.89926110004308,183.89775270002428,184.89926110004308,right,0,1.3021971000125632,183.89775270002428,None,183.89775270002428,None,183.89775270002428,184.39862280001398,183.89775270002428,184.39862280001398,183.89775270002428,184.39862280001398,183.89775270002428,184.39862280001398,183.89775270002428,None,,,,,,,,,,,,,,,,,,,,,,,,,,,,,,,,,,,,,,,,,,11006,001,2024_Jan_01_1033,nback,2021.2.3,60.02336110931093,
2-back,instructions\back-2.png,conditions\2back-p.xlsx,instructions\2-BACK.png,"(25, 15)",practice,2,4,stim\gray.png,stim\gray.png,stim\gray.png,stim\yellow.png,right,0,0,0,0,0,2,2,2,0,18,18,18,,,,,,,,,,,,,,,,,,,,,,,,,,,185.39998230000492,186.40353190002497,185.39998230000492,186.40353190002497,185.39998230000492,186.40353190002497,185.39998230000492,186.40353190002497,None,0,,185.39998230000492,None,185.39998230000492,None,185.39998230000492,185.90073540003505,185.39998230000492,185.90073540003505,185.39998230000492,185.90073540003505,185.39998230000492,185.90073540003505,185.39998230000492,None,,,,,,,,,,,,,,,,,,,,,,,,,,,,,,,,,,,,,,,,,,11006,001,2024_Jan_01_1033,nback,2021.2.3,60.02336110931093,
2-back,instructions\back-2.png,conditions\2back-p.xlsx,instructions\2-BACK.png,"(25, 15)",practice,2,2,stim\gray.png,stim\yellow.png,stim\gray.png,stim\gray.png,up,0,0,0,0,0,2,2,2,0,19,19,19,,,,,,,,,,,,,,,,,,,,,,,,,,,186.902909299999,187.90416350000305,186.902909299999,187.90416350000305,186.902909299999,187.90416350000305,186.902909299999,187.90416350000305,up,1,0.17643819999648258,186.902909299999,None,186.902909299999,None,186.902909299999,187.40391650004312,186.902909299999,187.40391650004312,186.902909299999,187.40391650004312,186.902909299999,187.40391650004312,186.902909299999,None,,,,,,,,,,,,,,,,,,,,,,,,,,,,,,,,,,,,,,,,,,11006,001,2024_Jan_01_1033,nback,2021.2.3,60.02336110931093,
2-back,instructions\back-2.png,conditions\2back-p.xlsx,instructions\2-BACK.png,"(25, 15)",,,,,,,,,0,0,0,0,0,2,2,2,,,,,,,,,,,,,,,,,,,,,,,,,,,,,,,,,,,,,,,,,,,,,,,,,,,,,,,,,,,,,,,,,,,,,,,,,,,,,,,,,,,,,,,,,,,,,,,,,11006,001,2024_Jan_01_1033,nback,2021.2.3,60.02336110931093,
,,,,,,,,,,,,,0,0,0,0,,,,,,,,,,,,,,,,,,,,,,,,,,,,,,,,,,,,,,,,,,,,,,,,,,,,,,,,,,,,188.40520259999903,None,space,4.810377800022252,188.40520259999903,None,,,,,,,,,,,,,,,,,,,,,,,,,,,,,,,,,,,,11006,001,2024_Jan_01_1033,nback,2021.2.3,60.02336110931093,
,,,,,,,,,,,,,,,,,,,,,,,,,,,,,,,,,,,,,,,,,,,,,,,,,,,,,,,,,,,,,,,,,,,,,,,,,,,,,,,,,,193.24504390003858,None,space,10.762400100007653,193.24504390003858,None,,,,,,,,,,,,,,,,,,,,,,,,,,,,,,11006,001,2024_Jan_01_1033,nback,2021.2.3,60.02336110931093,
0-back,instructions\back-0.png,conditions\02back-e.xlsx,,,experiment,0,4,stim\gray.png,stim\gray.png,stim\gray.png,stim\yellow.png,down,,,,,,,,,,,,,0,0,0,7,0,0,0,0,,,,,,,,,,,,,,,204.1770472000353,208.68674770003418,208.65207060001558,None,,,,,,,,,,,,,,,,,,,,,,,,,,,,,,,,,,,,,,down,1,0.7399555000010878,209.05195970000932,None,209.05195970000932,None,209.05195970000932,210.0540769000072,209.05195970000932,210.0540769000072,209.05195970000932,210.0540769000072,209.05195970000932,210.0540769000072,209.05195970000932,209.55251830001362,209.05195970000932,209.55251830001362,209.05195970000932,209.55251830001362,209.05195970000932,209.55251830001362,209.05195970000932,None,,,,,11006,001,2024_Jan_01_1033,nback,2021.2.3,60.02336110931093,
0-back,instructions\back-0.png,conditions\02back-e.xlsx,,,experiment,0,2,stim\gray.png,stim\yellow.png,stim\gray.png,stim\gray.png,left,,,,,,,,,,,,,0,0,0,7,0,1,1,1,,,,,,,,,,,,,,,,,,,,,,,,,,,,,,,,,,,,,,,,,,,,,,,,,,,,,,,,left,1,0.35065859998576343,210.53732590004802,None,210.53732590004802,None,210.53732590004802,211.5397176000406,210.53732590004802,211.5397176000406,210.53732590004802,211.5397176000406,210.53732590004802,211.5397176000406,210.53732590004802,211.0380413000239,210.53732590004802,211.0380413000239,210.53732590004802,211.0380413000239,210.53732590004802,211.0380413000239,210.53732590004802,None,,,,,11006,001,2024_Jan_01_1033,nback,2021.2.3,60.02336110931093,
0-back,instructions\back-0.png,conditions\02back-e.xlsx,,,experiment,0,1,stim\yellow.png,stim\gray.png,stim\gray.png,stim\gray.png,up,,,,,,,,,,,,,0,0,0,7,0,2,2,2,,,,,,,,,,,,,,,,,,,,,,,,,,,,,,,,,,,,,,,,,,,,,,,,,,,,,,,,up,1,0.3191289000096731,212.04015920002712,None,212.04015920002712,None,212.04015920002712,213.04176660004305,212.04015920002712,213.04176660004305,212.04015920002712,213.04176660004305,212.04015920002712,213.04176660004305,212.04015920002712,212.5409618000267,212.04015920002712,212.5409618000267,212.04015920002712,212.5409618000267,212.04015920002712,212.5409618000267,212.04015920002712,None,,,,,11006,001,2024_Jan_01_1033,nback,2021.2.3,60.02336110931093,
0-back,instructions\back-0.png,conditions\02back-e.xlsx,,,experiment,0,2,stim\gray.png,stim\yellow.png,stim\gray.png,stim\gray.png,left,,,,,,,,,,,,,0,0,0,7,0,3,3,3,,,,,,,,,,,,,,,,,,,,,,,,,,,,,,,,,,,,,,,,,,,,,,,,,,,,,,,,left,1,0.23419839999405667,213.54183260002173,None,213.54183260002173,None,213.54183260002173,214.54395990003832,213.54183260002173,214.54395990003832,213.54183260002173,214.54395990003832,213.54183260002173,214.54395990003832,213.54183260002173,214.043213500001,213.54183260002173,214.043213500001,213.54183260002173,214.043213500001,213.54183260002173,214.043213500001,213.54183260002173,None,,,,,11006,001,2024_Jan_01_1033,nback,2021.2.3,60.02336110931093,
0-back,instructions\back-0.png,conditions\02back-e.xlsx,,,experiment,0,3,stim\gray.png,stim\gray.png,stim\yellow.png,stim\gray.png,right,,,,,,,,,,,,,0,0,0,7,0,4,4,4,,,,,,,,,,,,,,,,,,,,,,,,,,,,,,,,,,,,,,,,,,,,,,,,,,,,,,,,right,1,0.2997253999928944,215.04387980001047,None,215.04387980001047,None,215.04387980001047,216.04584249999607,215.04387980001047,216.04584249999607,215.04387980001047,216.04584249999607,215.04387980001047,216.04584249999607,215.04387980001047,215.54518650000682,215.04387980001047,215.54518650000682,215.04387980001047,215.54518650000682,215.04387980001047,215.54518650000682,215.04387980001047,None,,,,,11006,001,2024_Jan_01_1033,nback,2021.2.3,60.02336110931093,
0-back,instructions\back-0.png,conditions\02back-e.xlsx,,,experiment,0,1,stim\yellow.png,stim\gray.png,stim\gray.png,stim\gray.png,up,,,,,,,,,,,,,0,0,0,7,0,5,5,5,,,,,,,,,,,,,,,,,,,,,,,,,,,,,,,,,,,,,,,,,,,,,,,,,,,,,,,,up,1,0.3565581999719143,216.54701790004037,None,216.54701790004037,None,216.54701790004037,217.5482315000263,216.54701790004037,217.5482315000263,216.54701790004037,217.5482315000263,216.54701790004037,217.5482315000263,216.54701790004037,217.04805620003026,216.54701790004037,217.04805620003026,216.54701790004037,217.04805620003026,216.54701790004037,217.04805620003026,216.54701790004037,None,,,,,11006,001,2024_Jan_01_1033,nback,2021.2.3,60.02336110931093,
0-back,instructions\back-0.png,conditions\02back-e.xlsx,,,experiment,0,2,stim\gray.png,stim\yellow.png,stim\gray.png,stim\gray.png,left,,,,,,,,,,,,,0,0,0,7,0,6,6,6,,,,,,,,,,,,,,,,,,,,,,,,,,,,,,,,,,,,,,,,,,,,,,,,,,,,,,,,left,1,0.24791919998824596,218.03172389999963,None,218.03172389999963,None,218.03172389999963,219.03407560003689,218.03172389999963,219.03407560003689,218.03172389999963,219.03407560003689,218.03172389999963,219.03407560003689,218.03172389999963,218.53323450003518,218.03172389999963,218.53323450003518,218.03172389999963,218.53323450003518,218.03172389999963,218.53323450003518,218.03172389999963,None,,,,,11006,001,2024_Jan_01_1033,nback,2021.2.3,60.02336110931093,
0-back,instructions\back-0.png,conditions\02back-e.xlsx,,,experiment,0,3,stim\gray.png,stim\gray.png,stim\yellow.png,stim\gray.png,right,,,,,,,,,,,,,0,0,0,7,0,7,7,7,,,,,,,,,,,,,,,,,,,,,,,,,,,,,,,,,,,,,,,,,,,,,,,,,,,,,,,,right,1,0.22554750001290813,219.5339524000301,None,219.5339524000301,None,219.5339524000301,220.53641410003183,219.5339524000301,220.53641410003183,219.5339524000301,220.53641410003183,219.5339524000301,220.53641410003183,219.5339524000301,220.03462180000497,219.5339524000301,220.03462180000497,219.5339524000301,220.03462180000497,219.5339524000301,220.03462180000497,219.5339524000301,None,,,,,11006,001,2024_Jan_01_1033,nback,2021.2.3,60.02336110931093,
0-back,instructions\back-0.png,conditions\02back-e.xlsx,,,experiment,0,4,stim\gray.png,stim\gray.png,stim\gray.png,stim\yellow.png,down,,,,,,,,,,,,,0,0,0,7,0,8,8,8,,,,,,,,,,,,,,,,,,,,,,,,,,,,,,,,,,,,,,,,,,,,,,,,,,,,,,,,down,1,0.29115440003806725,221.03624310001032,None,221.03624310001032,None,221.03624310001032,222.038806400029,221.03624310001032,222.038806400029,221.03624310001032,222.038806400029,221.03624310001032,222.038806400029,221.03624310001032,221.53779900004156,221.03624310001032,221.53779900004156,221.03624310001032,221.53779900004156,221.03624310001032,221.53779900004156,221.03624310001032,None,,,,,11006,001,2024_Jan_01_1033,nback,2021.2.3,60.02336110931093,
0-back,instructions\back-0.png,conditions\02back-e.xlsx,,,experiment,0,3,stim\gray.png,stim\gray.png,stim\yellow.png,stim\gray.png,right,,,,,,,,,,,,,0,0,0,7,0,9,9,9,,,,,,,,,,,,,,,,,,,,,,,,,,,,,,,,,,,,,,,,,,,,,,,,,,,,,,,,right,1,0.3002294000471011,222.53921560000163,None,222.53921560000163,None,222.53921560000163,223.54107630002545,222.53921560000163,223.54107630002545,222.53921560000163,223.54107630002545,222.53921560000163,223.54107630002545,222.53921560000163,223.03968839999288,222.53921560000163,223.03968839999288,222.53921560000163,223.03968839999288,222.53921560000163,223.03968839999288,222.53921560000163,None,,,,,11006,001,2024_Jan_01_1033,nback,2021.2.3,60.02336110931093,
0-back,instructions\back-0.png,conditions\02back-e.xlsx,,,experiment,0,1,stim\yellow.png,stim\gray.png,stim\gray.png,stim\gray.png,up,,,,,,,,,,,,,0,0,0,7,0,10,10,10,,,,,,,,,,,,,,,,,,,,,,,,,,,,,,,,,,,,,,,,,,,,,,,,,,,,,,,,up,1,0.23055949999252334,224.04137019999325,None,224.04137019999325,None,224.04137019999325,225.04224010003963,224.04137019999325,225.04224010003963,224.04137019999325,225.04224010003963,224.04137019999325,225.04224010003963,224.04137019999325,224.54241029999685,224.04137019999325,224.54241029999685,224.04137019999325,224.54241029999685,224.04137019999325,224.54241029999685,224.04137019999325,None,,,,,11006,001,2024_Jan_01_1033,nback,2021.2.3,60.02336110931093,
0-back,instructions\back-0.png,conditions\02back-e.xlsx,,,experiment,0,4,stim\gray.png,stim\gray.png,stim\gray.png,stim\yellow.png,down,,,,,,,,,,,,,0,0,0,7,0,11,11,11,,,,,,,,,,,,,,,,,,,,,,,,,,,,,,,,,,,,,,,,,,,,,,,,,,,,,,,,down,1,0.36778119998052716,225.54391410003882,None,225.54391410003882,None,225.54391410003882,226.5450681000366,225.54391410003882,226.5450681000366,225.54391410003882,226.5450681000366,225.54391410003882,226.5450681000366,225.54391410003882,226.04427410004428,225.54391410003882,226.04427410004428,225.54391410003882,226.04427410004428,225.54391410003882,226.04427410004428,225.54391410003882,None,,,,,11006,001,2024_Jan_01_1033,nback,2021.2.3,60.02336110931093,
0-back,instructions\back-0.png,conditions\02back-e.xlsx,,,experiment,0,3,stim\gray.png,stim\gray.png,stim\yellow.png,stim\gray.png,right,,,,,,,,,,,,,0,0,0,7,0,12,12,12,,,,,,,,,,,,,,,,,,,,,,,,,,,,,,,,,,,,,,,,,,,,,,,,,,,,,,,,right,1,0.32245840004179627,227.0451083999942,None,227.0451083999942,None,227.0451083999942,228.04666330001783,227.0451083999942,228.04666330001783,227.0451083999942,228.04666330001783,227.0451083999942,228.04666330001783,227.0451083999942,227.54569220001576,227.0451083999942,227.54569220001576,227.0451083999942,227.54569220001576,227.0451083999942,227.54569220001576,227.0451083999942,None,,,,,11006,001,2024_Jan_01_1033,nback,2021.2.3,60.02336110931093,
0-back,instructions\back-0.png,conditions\02back-e.xlsx,,,experiment,0,1,stim\yellow.png,stim\gray.png,stim\gray.png,stim\gray.png,up,,,,,,,,,,,,,0,0,0,7,0,13,13,13,,,,,,,,,,,,,,,,,,,,,,,,,,,,,,,,,,,,,,,,,,,,,,,,,,,,,,,,up,1,0.284710299980361,228.5311939000385,None,228.5311939000385,None,228.5311939000385,229.5328026000061,228.5311939000385,229.5328026000061,228.5311939000385,229.5328026000061,228.5311939000385,229.5328026000061,228.5311939000385,229.0321116000414,228.5311939000385,229.0321116000414,228.5311939000385,229.0321116000414,228.5311939000385,229.0321116000414,228.5311939000385,None,,,,,11006,001,2024_Jan_01_1033,nback,2021.2.3,60.02336110931093,
0-back,instructions\back-0.png,conditions\02back-e.xlsx,,,experiment,0,2,stim\gray.png,stim\yellow.png,stim\gray.png,stim\gray.png,left,,,,,,,,,,,,,0,0,0,7,0,14,14,14,,,,,,,,,,,,,,,,,,,,,,,,,,,,,,,,,,,,,,,,,,,,,,,,,,,,,,,,left,1,0.29455639998195693,230.03290320001543,None,230.03290320001543,None,230.03290320001543,231.03567430004478,230.03290320001543,231.03567430004478,230.03290320001543,231.03567430004478,230.03290320001543,231.03567430004478,230.03290320001543,230.53442500001984,230.03290320001543,230.53442500001984,230.03290320001543,230.53442500001984,230.03290320001543,230.53442500001984,230.03290320001543,None,,,,,11006,001,2024_Jan_01_1033,nback,2021.2.3,60.02336110931093,
0-back,instructions\back-0.png,conditions\02back-e.xlsx,,,experiment,0,1,stim\yellow.png,stim\gray.png,stim\gray.png,stim\gray.png,up,,,,,,,,,,,,,0,0,0,7,0,15,15,15,,,,,,,,,,,,,,,,,,,,,,,,,,,,,,,,,,,,,,,,,,,,,,,,,,,,,,,,up,1,0.30354150000493973,231.53589900000952,None,231.53589900000952,None,231.53589900000952,232.53740339999786,231.53589900000952,232.53740339999786,231.53589900000952,232.53740339999786,231.53589900000952,232.53740339999786,231.53589900000952,232.03658270003507,231.53589900000952,232.03658270003507,231.53589900000952,232.03658270003507,231.53589900000952,232.03658270003507,231.53589900000952,None,,,,,11006,001,2024_Jan_01_1033,nback,2021.2.3,60.02336110931093,
0-back,instructions\back-0.png,conditions\02back-e.xlsx,,,experiment,0,3,stim\gray.png,stim\gray.png,stim\yellow.png,stim\gray.png,right,,,,,,,,,,,,,0,0,0,7,0,16,16,16,,,,,,,,,,,,,,,,,,,,,,,,,,,,,,,,,,,,,,,,,,,,,,,,,,,,,,,,right,1,0.3385884999879636,233.03717050002888,None,233.03717050002888,None,233.03717050002888,234.03951110003982,233.03717050002888,234.03951110003982,233.03717050002888,234.03951110003982,233.03717050002888,234.03951110003982,233.03717050002888,233.53864770004293,233.03717050002888,233.53864770004293,233.03717050002888,233.53864770004293,233.03717050002888,233.53864770004293,233.03717050002888,None,,,,,11006,001,2024_Jan_01_1033,nback,2021.2.3,60.02336110931093,
0-back,instructions\back-0.png,conditions\02back-e.xlsx,,,experiment,0,4,stim\gray.png,stim\gray.png,stim\gray.png,stim\yellow.png,down,,,,,,,,,,,,,0,0,0,7,0,17,17,17,,,,,,,,,,,,,,,,,,,,,,,,,,,,,,,,,,,,,,,,,,,,,,,,,,,,,,,,down,1,0.427676799998153,234.53990630002227,None,234.53990630002227,None,234.53990630002227,235.54132190003293,234.53990630002227,235.54132190003293,234.53990630002227,235.54132190003293,234.53990630002227,235.54132190003293,234.53990630002227,235.04094040003838,234.53990630002227,235.04094040003838,234.53990630002227,235.04094040003838,234.53990630002227,235.04094040003838,234.53990630002227,None,,,,,11006,001,2024_Jan_01_1033,nback,2021.2.3,60.02336110931093,
0-back,instructions\back-0.png,conditions\02back-e.xlsx,,,experiment,0,4,stim\gray.png,stim\gray.png,stim\gray.png,stim\yellow.png,down,,,,,,,,,,,,,0,0,0,7,0,18,18,18,,,,,,,,,,,,,,,,,,,,,,,,,,,,,,,,,,,,,,,,,,,,,,,,,,,,,,,,down,1,0.4371915999799967,236.041982499999,None,236.041982499999,None,236.041982499999,237.04413090000162,236.041982499999,237.04413090000162,236.041982499999,237.04413090000162,236.041982499999,237.04413090000162,236.041982499999,236.54396400001133,236.041982499999,236.54396400001133,236.041982499999,236.54396400001133,236.041982499999,236.54396400001133,236.041982499999,None,,,,,11006,001,2024_Jan_01_1033,nback,2021.2.3,60.02336110931093,
0-back,instructions\back-0.png,conditions\02back-e.xlsx,,,experiment,0,2,stim\gray.png,stim\yellow.png,stim\gray.png,stim\gray.png,left,,,,,,,,,,,,,0,0,0,7,0,19,19,19,,,,,,,,,,,,,,,,,,,,,,,,,,,,,,,,,,,,,,,,,,,,,,,,,,,,,,,,left,1,0.31058889999985695,237.54470020002918,None,237.54470020002918,None,237.54470020002918,238.54622160003055,237.54470020002918,238.54622160003055,237.54470020002918,238.54622160003055,237.54470020002918,238.54622160003055,237.54470020002918,238.04538130003493,237.54470020002918,238.04538130003493,237.54470020002918,238.04538130003493,237.54470020002918,238.04538130003493,237.54470020002918,None,,,,,11006,001,2024_Jan_01_1033,nback,2021.2.3,60.02336110931093,
0-back,instructions\back-0.png,conditions\02back-e.xlsx,,,,,,,,,,,,,,,,,,,,,,,0,0,0,7,,,,,,,,,,,,,,,,,,,,,,,,,,,,,,,,,,,,,,,,,,,,,,,,,,,,,,,,,,,,,,,,,,,,,,,,,,,,,,,,,,,,,239.04701020003995,None,,,11006,001,2024_Jan_01_1033,nback,2021.2.3,60.02336110931093,
1-back,instructions\back-1.png,conditions\13back-e.xlsx,,,experiment,1,1,stim\yellow.png,stim\gray.png,stim\gray.png,stim\gray.png,None,,,,,,,,,,,,,0,1,1,10,0,0,0,0,,,,,,,,,,,,,,,240.14822259999346,244.65519890002906,244.62211090000346,None,,,,,,,,,,,,,,,,,,,,,,,,,,,,,,,,,,,,,,None,1,,245.05532080004923,None,245.05532080004923,None,245.05532080004923,246.0566864000284,245.05532080004923,246.0566864000284,245.05532080004923,246.0566864000284,245.05532080004923,246.0566864000284,245.05532080004923,245.5568538000225,245.05532080004923,245.5568538000225,245.05532080004923,245.5568538000225,245.05532080004923,245.5568538000225,245.05532080004923,None,,,,,11006,001,2024_Jan_01_1033,nback,2021.2.3,60.02336110931093,
1-back,instructions\back-1.png,conditions\13back-e.xlsx,,,experiment,1,2,stim\gray.png,stim\yellow.png,stim\gray.png,stim\gray.png,up,,,,,,,,,,,,,0,1,1,10,0,1,1,1,,,,,,,,,,,,,,,,,,,,,,,,,,,,,,,,,,,,,,,,,,,,,,,,,,,,,,,,up,1,0.22584279999136925,246.54170709999744,None,246.54170709999744,None,246.54170709999744,247.54325640003663,246.54170709999744,247.54325640003663,246.54170709999744,247.54325640003663,246.54170709999744,247.54325640003663,246.54170709999744,247.0421631000354,246.54170709999744,247.0421631000354,246.54170709999744,247.0421631000354,246.54170709999744,247.0421631000354,246.54170709999744,None,,,,,11006,001,2024_Jan_01_1033,nback,2021.2.3,60.02336110931093,
1-back,instructions\back-1.png,conditions\13back-e.xlsx,,,experiment,1,4,stim\gray.png,stim\gray.png,stim\gray.png,stim\yellow.png,left,,,,,,,,,,,,,0,1,1,10,0,2,2,2,,,,,,,,,,,,,,,,,,,,,,,,,,,,,,,,,,,,,,,,,,,,,,,,,,,,,,,,left,1,0.09264980000443757,248.04286839999259,None,248.04286839999259,None,248.04286839999259,249.04501330002677,248.04286839999259,249.04501330002677,248.04286839999259,249.04501330002677,248.04286839999259,249.04501330002677,248.04286839999259,248.54437810002128,248.04286839999259,248.54437810002128,248.04286839999259,248.54437810002128,248.04286839999259,248.54437810002128,248.04286839999259,None,,,,,11006,001,2024_Jan_01_1033,nback,2021.2.3,60.02336110931093,
1-back,instructions\back-1.png,conditions\13back-e.xlsx,,,experiment,1,3,stim\gray.png,stim\gray.png,stim\yellow.png,stim\gray.png,down,,,,,,,,,,,,,0,1,1,10,0,3,3,3,,,,,,,,,,,,,,,,,,,,,,,,,,,,,,,,,,,,,,,,,,,,,,,,,,,,,,,,down,1,0.12627519998932257,249.54508569999598,None,249.54508569999598,None,249.54508569999598,250.54711139999563,249.54508569999598,250.54711139999563,249.54508569999598,250.54711139999563,249.54508569999598,250.54711139999563,249.54508569999598,250.0462432000204,249.54508569999598,250.0462432000204,249.54508569999598,250.0462432000204,249.54508569999598,250.0462432000204,249.54508569999598,None,,,,,11006,001,2024_Jan_01_1033,nback,2021.2.3,60.02336110931093,
1-back,instructions\back-1.png,conditions\13back-e.xlsx,,,experiment,1,1,stim\yellow.png,stim\gray.png,stim\gray.png,stim\gray.png,right,,,,,,,,,,,,,0,1,1,10,0,4,4,4,,,,,,,,,,,,,,,,,,,,,,,,,,,,,,,,,,,,,,,,,,,,,,,,,,,,,,,,right,1,0.11202990001766011,251.0315157000441,None,251.0315157000441,None,251.0315157000441,252.03287550003733,251.0315157000441,252.03287550003733,251.0315157000441,252.03287550003733,251.0315157000441,252.03287550003733,251.0315157000441,251.53175910003483,251.0315157000441,251.53175910003483,251.0315157000441,251.53175910003483,251.0315157000441,251.53175910003483,251.0315157000441,None,,,,,11006,001,2024_Jan_01_1033,nback,2021.2.3,60.02336110931093,
1-back,instructions\back-1.png,conditions\13back-e.xlsx,,,experiment,1,3,stim\gray.png,stim\gray.png,stim\yellow.png,stim\gray.png,up,,,,,,,,,,,,,0,1,1,10,0,5,5,5,,,,,,,,,,,,,,,,,,,,,,,,,,,,,,,,,,,,,,,,,,,,,,,,,,,,,,,,up,1,0.05825110001023859,252.53318160003982,None,252.53318160003982,None,252.53318160003982,253.5354486000142,252.53318160003982,253.5354486000142,252.53318160003982,253.5354486000142,252.53318160003982,253.5354486000142,252.53318160003982,253.03434680000646,252.53318160003982,253.03434680000646,252.53318160003982,253.03434680000646,252.53318160003982,253.03434680000646,252.53318160003982,None,,,,,11006,001,2024_Jan_01_1033,nback,2021.2.3,60.02336110931093,
1-back,instructions\back-1.png,conditions\13back-e.xlsx,,,experiment,1,2,stim\gray.png,stim\yellow.png,stim\gray.png,stim\gray.png,right,,,,,,,,,,,,,0,1,1,10,0,6,6,6,,,,,,,,,,,,,,,,,,,,,,,,,,,,,,,,,,,,,,,,,,,,,,,,,,,,,,,,right,1,0.028355600021313876,254.03510720003396,None,254.03510720003396,None,254.03510720003396,255.037700600049,254.03510720003396,255.037700600049,254.03510720003396,255.037700600049,254.03510720003396,255.037700600049,254.03510720003396,254.53588710003532,254.03510720003396,254.53588710003532,254.03510720003396,254.53588710003532,254.03510720003396,254.53588710003532,254.03510720003396,None,,,,,11006,001,2024_Jan_01_1033,nback,2021.2.3,60.02336110931093,
1-back,instructions\back-1.png,conditions\13back-e.xlsx,,,experiment,1,4,stim\gray.png,stim\gray.png,stim\gray.png,stim\yellow.png,left,,,,,,,,,,,,,0,1,1,10,0,7,7,7,,,,,,,,,,,,,,,,,,,,,,,,,,,,,,,,,,,,,,,,,,,,,,,,,,,,,,,,left,1,0.118466800020542,255.5378403000068,None,255.5378403000068,None,255.5378403000068,256.539664800046,255.5378403000068,256.539664800046,255.5378403000068,256.539664800046,255.5378403000068,256.539664800046,255.5378403000068,256.03882930002874,255.5378403000068,256.03882930002874,255.5378403000068,256.03882930002874,255.5378403000068,256.03882930002874,255.5378403000068,None,,,,,11006,001,2024_Jan_01_1033,nback,2021.2.3,60.02336110931093,
1-back,instructions\back-1.png,conditions\13back-e.xlsx,,,experiment,1,1,stim\yellow.png,stim\gray.png,stim\gray.png,stim\gray.png,down,,,,,,,,,,,,,0,1,1,10,0,8,8,8,,,,,,,,,,,,,,,,,,,,,,,,,,,,,,,,,,,,,,,,,,,,,,,,,,,,,,,,None,0,,257.0396465000231,None,257.0396465000231,None,257.0396465000231,258.0414543999941,257.0396465000231,258.0414543999941,257.0396465000231,258.0414543999941,257.0396465000231,258.0414543999941,257.0396465000231,257.54121580003994,257.0396465000231,257.54121580003994,257.0396465000231,257.54121580003994,257.0396465000231,257.54121580003994,257.0396465000231,None,,,,,11006,001,2024_Jan_01_1033,nback,2021.2.3,60.02336110931093,
1-back,instructions\back-1.png,conditions\13back-e.xlsx,,,experiment,1,2,stim\gray.png,stim\yellow.png,stim\gray.png,stim\gray.png,up,,,,,,,,,,,,,0,1,1,10,0,9,9,9,,,,,,,,,,,,,,,,,,,,,,,,,,,,,,,,,,,,,,,,,,,,,,,,,,,,,,,,up,1,0.14492029999382794,258.5429338000249,None,258.5429338000249,None,258.5429338000249,259.54378230002476,258.5429338000249,259.54378230002476,258.5429338000249,259.54378230002476,258.5429338000249,259.54378230002476,258.5429338000249,259.0434642000473,258.5429338000249,259.0434642000473,258.5429338000249,259.0434642000473,258.5429338000249,259.0434642000473,258.5429338000249,None,,,,,11006,001,2024_Jan_01_1033,nback,2021.2.3,60.02336110931093,
1-back,instructions\back-1.png,conditions\13back-e.xlsx,,,experiment,1,4,stim\gray.png,stim\gray.png,stim\gray.png,stim\yellow.png,left,,,,,,,,,,,,,0,1,1,10,0,10,10,10,,,,,,,,,,,,,,,,,,,,,,,,,,,,,,,,,,,,,,,,,,,,,,,,,,,,,,,,right,0,0.11594519997015595,260.04398390004644,None,260.04398390004644,None,260.04398390004644,261.04673180001555,260.04398390004644,261.04673180001555,260.04398390004644,261.04673180001555,260.04398390004644,261.04673180001555,260.04398390004644,260.5452384999953,260.04398390004644,260.5452384999953,260.04398390004644,260.5452384999953,260.04398390004644,260.5452384999953,260.04398390004644,None,,,,,11006,001,2024_Jan_01_1033,nback,2021.2.3,60.02336110931093,
1-back,instructions\back-1.png,conditions\13back-e.xlsx,,,experiment,1,3,stim\gray.png,stim\gray.png,stim\yellow.png,stim\gray.png,down,,,,,,,,,,,,,0,1,1,10,0,11,11,11,,,,,,,,,,,,,,,,,,,,,,,,,,,,,,,,,,,,,,,,,,,,,,,,,,,,,,,,down,1,0.1726935000042431,261.5468280999921,None,261.5468280999921,None,261.5468280999921,262.5484012000379,261.5468280999921,262.5484012000379,261.5468280999921,262.5484012000379,261.5468280999921,262.5484012000379,261.5468280999921,262.04692560003605,261.5468280999921,262.04692560003605,261.5468280999921,262.04692560003605,261.5468280999921,262.04692560003605,261.5468280999921,None,,,,,11006,001,2024_Jan_01_1033,nback,2021.2.3,60.02336110931093,
1-back,instructions\back-1.png,conditions\13back-e.xlsx,,,experiment,1,2,stim\gray.png,stim\yellow.png,stim\gray.png,stim\gray.png,right,,,,,,,,,,,,,0,1,1,10,0,12,12,12,,,,,,,,,,,,,,,,,,,,,,,,,,,,,,,,,,,,,,,,,,,,,,,,,,,,,,,,right,1,0.15166990004945546,263.0318185000215,None,263.0318185000215,None,263.0318185000215,264.0339329999988,263.0318185000215,264.0339329999988,263.0318185000215,264.0339329999988,263.0318185000215,264.0339329999988,263.0318185000215,263.53326850000303,263.0318185000215,263.53326850000303,263.0318185000215,263.53326850000303,263.0318185000215,263.53326850000303,263.0318185000215,None,,,,,11006,001,2024_Jan_01_1033,nback,2021.2.3,60.02336110931093,
1-back,instructions\back-1.png,conditions\13back-e.xlsx,,,experiment,1,4,stim\gray.png,stim\gray.png,stim\gray.png,stim\yellow.png,left,,,,,,,,,,,,,0,1,1,10,0,13,13,13,,,,,,,,,,,,,,,,,,,,,,,,,,,,,,,,,,,,,,,,,,,,,,,,,,,,,,,,left,1,0.18440600001486018,264.53486200002953,None,264.53486200002953,None,264.53486200002953,265.5363932000473,264.53486200002953,265.5363932000473,264.53486200002953,265.5363932000473,264.53486200002953,265.5363932000473,264.53486200002953,265.03529900003923,264.53486200002953,265.03529900003923,264.53486200002953,265.03529900003923,264.53486200002953,265.03529900003923,264.53486200002953,None,,,,,11006,001,2024_Jan_01_1033,nback,2021.2.3,60.02336110931093,
1-back,instructions\back-1.png,conditions\13back-e.xlsx,,,experiment,1,1,stim\yellow.png,stim\gray.png,stim\gray.png,stim\gray.png,down,,,,,,,,,,,,,0,1,1,10,0,14,14,14,,,,,,,,,,,,,,,,,,,,,,,,,,,,,,,,,,,,,,,,,,,,,,,,,,,,,,,,down,1,0.13152990001253784,266.0363769000396,None,266.0363769000396,None,266.0363769000396,267.03804400004447,266.0363769000396,267.03804400004447,266.0363769000396,267.03804400004447,266.0363769000396,267.03804400004447,266.0363769000396,266.53740960004507,266.0363769000396,266.53740960004507,266.0363769000396,266.53740960004507,266.0363769000396,266.53740960004507,266.0363769000396,None,,,,,11006,001,2024_Jan_01_1033,nback,2021.2.3,60.02336110931093,
1-back,instructions\back-1.png,conditions\13back-e.xlsx,,,experiment,1,4,stim\gray.png,stim\gray.png,stim\gray.png,stim\yellow.png,up,,,,,,,,,,,,,0,1,1,10,0,15,15,15,,,,,,,,,,,,,,,,,,,,,,,,,,,,,,,,,,,,,,,,,,,,,,,,,,,,,,,,up,1,0.1736619000439532,267.53843420004705,None,267.53843420004705,None,267.53843420004705,268.54061810002895,267.53843420004705,268.54061810002895,267.53843420004705,268.54061810002895,267.53843420004705,268.54061810002895,267.53843420004705,268.03985170001397,267.53843420004705,268.03985170001397,267.53843420004705,268.03985170001397,267.53843420004705,268.03985170001397,267.53843420004705,None,,,,,11006,001,2024_Jan_01_1033,nback,2021.2.3,60.02336110931093,
1-back,instructions\back-1.png,conditions\13back-e.xlsx,,,experiment,1,1,stim\yellow.png,stim\gray.png,stim\gray.png,stim\gray.png,down,,,,,,,,,,,,,0,1,1,10,0,16,16,16,,,,,,,,,,,,,,,,,,,,,,,,,,,,,,,,,,,,,,,,,,,,,,,,,,,,,,,,down,1,0.16721360001247376,269.04061060003005,None,269.04061060003005,None,269.04061060003005,270.0425705999951,269.04061060003005,270.0425705999951,269.04061060003005,270.0425705999951,269.04061060003005,270.0425705999951,269.04061060003005,269.54244910000125,269.04061060003005,269.54244910000125,269.04061060003005,269.54244910000125,269.04061060003005,269.54244910000125,269.04061060003005,None,,,,,11006,001,2024_Jan_01_1033,nback,2021.2.3,60.02336110931093,
1-back,instructions\back-1.png,conditions\13back-e.xlsx,,,experiment,1,3,stim\gray.png,stim\gray.png,stim\yellow.png,stim\gray.png,up,,,,,,,,,,,,,0,1,1,10,0,17,17,17,,,,,,,,,,,,,,,,,,,,,,,,,,,,,,,,,,,,,,,,,,,,,,,,,,,,,,,,right,0,1.2569326999946497,270.54319270001724,None,270.54319270001724,None,270.54319270001724,271.54499130003387,270.54319270001724,271.54499130003387,270.54319270001724,271.54499130003387,270.54319270001724,271.54499130003387,270.54319270001724,271.0435602000216,270.54319270001724,271.0435602000216,270.54319270001724,271.0435602000216,270.54319270001724,271.0435602000216,270.54319270001724,None,,,,,11006,001,2024_Jan_01_1033,nback,2021.2.3,60.02336110931093,
1-back,instructions\back-1.png,conditions\13back-e.xlsx,,,experiment,1,2,stim\gray.png,stim\yellow.png,stim\gray.png,stim\gray.png,right,,,,,,,,,,,,,0,1,1,10,0,18,18,18,,,,,,,,,,,,,,,,,,,,,,,,,,,,,,,,,,,,,,,,,,,,,,,,,,,,,,,,right,1,0.289993200043682,272.04558120004367,None,272.04558120004367,None,272.04558120004367,273.04850979999173,272.04558120004367,273.04850979999173,272.04558120004367,273.04850979999173,272.04558120004367,273.04850979999173,272.04558120004367,272.5460025999928,272.04558120004367,272.5460025999928,272.04558120004367,272.5460025999928,272.04558120004367,272.5460025999928,272.04558120004367,None,,,,,11006,001,2024_Jan_01_1033,nback,2021.2.3,60.02336110931093,
1-back,instructions\back-1.png,conditions\13back-e.xlsx,,,experiment,1,3,stim\gray.png,stim\gray.png,stim\yellow.png,stim\gray.png,left,,,,,,,,,,,,,0,1,1,10,0,19,19,19,,,,,,,,,,,,,,,,,,,,,,,,,,,,,,,,,,,,,,,,,,,,,,,,,,,,,,,,left,1,0.24466060003032908,273.5307895000442,None,273.5307895000442,None,273.5307895000442,274.53304140002,273.5307895000442,274.53304140002,273.5307895000442,274.53304140002,273.5307895000442,274.53304140002,273.5307895000442,274.0319992000004,273.5307895000442,274.0319992000004,273.5307895000442,274.0319992000004,273.5307895000442,274.0319992000004,273.5307895000442,None,,,,,11006,001,2024_Jan_01_1033,nback,2021.2.3,60.02336110931093,
1-back,instructions\back-1.png,conditions\13back-e.xlsx,,,,,,,,,,,,,,,,,,,,,,,0,1,1,10,,,,,,,,,,,,,,,,,,,,,,,,,,,,,,,,,,,,,,,,,,,,,,,,,,,,,,,,,,,,,,,,,,,,,,,,,,,,,,,,,,,,,275.032728900027,None,,,11006,001,2024_Jan_01_1033,nback,2021.2.3,60.02336110931093,
1-back,instructions\back-1.png,conditions\12back-e.xlsx,,,experiment,1,2,stim\gray.png,stim\yellow.png,stim\gray.png,stim\gray.png,None,,,,,,,,,,,,,0,2,2,6,0,0,0,0,,,,,,,,,,,,,,,276.13428759999806,280.64184009999735,280.6085496000014,None,,,,,,,,,,,,,,,,,,,,,,,,,,,,,,,,,,,,,,None,1,,281.0598496000166,None,281.0598496000166,None,281.0598496000166,282.06010930001503,281.0598496000166,282.06010930001503,281.0598496000166,282.06010930001503,281.0598496000166,282.06010930001503,281.0598496000166,281.55991360003827,281.0598496000166,281.55991360003827,281.0598496000166,281.55991360003827,281.0598496000166,281.55991360003827,281.0598496000166,None,,,,,11006,001,2024_Jan_01_1033,nback,2021.2.3,60.02336110931093,
1-back,instructions\back-1.png,conditions\12back-e.xlsx,,,experiment,1,3,stim\gray.png,stim\gray.png,stim\yellow.png,stim\gray.png,left,,,,,,,,,,,,,0,2,2,6,0,1,1,1,,,,,,,,,,,,,,,,,,,,,,,,,,,,,,,,,,,,,,,,,,,,,,,,,,,,,,,,left,1,0.190756700001657,282.5446432000026,None,282.5446432000026,None,282.5446432000026,283.5468683000072,282.5446432000026,283.5468683000072,282.5446432000026,283.5468683000072,282.5446432000026,283.5468683000072,282.5446432000026,283.04535100003704,282.5446432000026,283.04535100003704,282.5446432000026,283.04535100003704,282.5446432000026,283.04535100003704,282.5446432000026,None,,,,,11006,001,2024_Jan_01_1033,nback,2021.2.3,60.02336110931093,
1-back,instructions\back-1.png,conditions\12back-e.xlsx,,,experiment,1,4,stim\gray.png,stim\gray.png,stim\gray.png,stim\yellow.png,right,,,,,,,,,,,,,0,2,2,6,0,2,2,2,,,,,,,,,,,,,,,,,,,,,,,,,,,,,,,,,,,,,,,,,,,,,,,,,,,,,,,,right,1,0.19327909999992698,284.046092100034,None,284.046092100034,None,284.046092100034,285.0483223000192,284.046092100034,285.0483223000192,284.046092100034,285.0483223000192,284.046092100034,285.0483223000192,284.046092100034,284.5473775000428,284.046092100034,284.5473775000428,284.046092100034,284.5473775000428,284.046092100034,284.5473775000428,284.046092100034,None,,,,,11006,001,2024_Jan_01_1033,nback,2021.2.3,60.02336110931093,
1-back,instructions\back-1.png,conditions\12back-e.xlsx,,,experiment,1,3,stim\gray.png,stim\gray.png,stim\yellow.png,stim\gray.png,down,,,,,,,,,,,,,0,2,2,6,0,3,3,3,,,,,,,,,,,,,,,,,,,,,,,,,,,,,,,,,,,,,,,,,,,,,,,,,,,,,,,,down,1,0.21116389997769147,285.53215000004275,None,285.53215000004275,None,285.53215000004275,286.5339534000377,285.53215000004275,286.5339534000377,285.53215000004275,286.5339534000377,285.53215000004275,286.5339534000377,285.53215000004275,286.03309690003516,285.53215000004275,286.03309690003516,285.53215000004275,286.03309690003516,285.53215000004275,286.03309690003516,285.53215000004275,None,,,,,11006,001,2024_Jan_01_1033,nback,2021.2.3,60.02336110931093,
1-back,instructions\back-1.png,conditions\12back-e.xlsx,,,experiment,1,1,stim\yellow.png,stim\gray.png,stim\gray.png,stim\gray.png,right,,,,,,,,,,,,,0,2,2,6,0,4,4,4,,,,,,,,,,,,,,,,,,,,,,,,,,,,,,,,,,,,,,,,,,,,,,,,,,,,,,,,right,1,0.13465720001840964,287.0339617000427,None,287.0339617000427,None,287.0339617000427,288.03615400003036,287.0339617000427,288.03615400003036,287.0339617000427,288.03615400003036,287.0339617000427,288.03615400003036,287.0339617000427,287.53560580004705,287.0339617000427,287.53560580004705,287.0339617000427,287.53560580004705,287.0339617000427,287.53560580004705,287.0339617000427,None,,,,,11006,001,2024_Jan_01_1033,nback,2021.2.3,60.02336110931093,
1-back,instructions\back-1.png,conditions\12back-e.xlsx,,,experiment,1,2,stim\gray.png,stim\yellow.png,stim\gray.png,stim\gray.png,up,,,,,,,,,,,,,0,2,2,6,0,5,5,5,,,,,,,,,,,,,,,,,,,,,,,,,,,,,,,,,,,,,,,,,,,,,,,,,,,,,,,,up,1,0.15920390002429485,288.5362634000485,None,288.5362634000485,None,288.5362634000485,289.5386545000365,288.5362634000485,289.5386545000365,288.5362634000485,289.5386545000365,288.5362634000485,289.5386545000365,288.5362634000485,289.0383306000149,288.5362634000485,289.0383306000149,288.5362634000485,289.0383306000149,288.5362634000485,289.0383306000149,288.5362634000485,None,,,,,11006,001,2024_Jan_01_1033,nback,2021.2.3,60.02336110931093,
1-back,instructions\back-1.png,conditions\12back-e.xlsx,,,experiment,1,2,stim\gray.png,stim\yellow.png,stim\gray.png,stim\gray.png,left,,,,,,,,,,,,,0,2,2,6,0,6,6,6,,,,,,,,,,,,,,,,,,,,,,,,,,,,,,,,,,,,,,,,,,,,,,,,,,,,,,,,left,1,0.17682980000972748,290.0385277000023,None,290.0385277000023,None,290.0385277000023,291.04002640000544,290.0385277000023,291.04002640000544,290.0385277000023,291.04002640000544,290.0385277000023,291.04002640000544,290.0385277000023,290.54003440000815,290.0385277000023,290.54003440000815,290.0385277000023,290.54003440000815,290.0385277000023,290.54003440000815,290.0385277000023,None,,,,,11006,001,2024_Jan_01_1033,nback,2021.2.3,60.02336110931093,
1-back,instructions\back-1.png,conditions\12back-e.xlsx,,,experiment,1,4,stim\gray.png,stim\gray.png,stim\gray.png,stim\yellow.png,left,,,,,,,,,,,,,0,2,2,6,0,7,7,7,,,,,,,,,,,,,,,,,,,,,,,,,,,,,,,,,,,,,,,,,,,,,,,,,,,,,,,,left,1,0.1632551000220701,291.54066490003606,None,291.54066490003606,None,291.54066490003606,292.5430855000159,291.54066490003606,292.5430855000159,291.54066490003606,292.5430855000159,291.54066490003606,292.5430855000159,291.54066490003606,292.04162140004337,291.54066490003606,292.04162140004337,291.54066490003606,292.04162140004337,291.54066490003606,292.04162140004337,291.54066490003606,None,,,,,11006,001,2024_Jan_01_1033,nback,2021.2.3,60.02336110931093,
1-back,instructions\back-1.png,conditions\12back-e.xlsx,,,experiment,1,1,stim\yellow.png,stim\gray.png,stim\gray.png,stim\gray.png,down,,,,,,,,,,,,,0,2,2,6,0,8,8,8,,,,,,,,,,,,,,,,,,,,,,,,,,,,,,,,,,,,,,,,,,,,,,,,,,,,,,,,down,1,0.060514100012369454,293.04292179999175,None,293.04292179999175,None,293.04292179999175,294.04525220004143,293.04292179999175,294.04525220004143,293.04292179999175,294.04525220004143,293.04292179999175,294.04525220004143,293.04292179999175,293.5443992000073,293.04292179999175,293.5443992000073,293.04292179999175,293.5443992000073,293.04292179999175,293.5443992000073,293.04292179999175,None,,,,,11006,001,2024_Jan_01_1033,nback,2021.2.3,60.02336110931093,
1-back,instructions\back-1.png,conditions\12back-e.xlsx,,,experiment,1,3,stim\gray.png,stim\gray.png,stim\yellow.png,stim\gray.png,up,,,,,,,,,,,,,0,2,2,6,0,9,9,9,,,,,,,,,,,,,,,,,,,,,,,,,,,,,,,,,,,,,,,,,,,,,,,,,,,,,,,,up,1,0.17453220003517345,294.54526119999355,None,294.54526119999355,None,294.54526119999355,295.5474215000286,294.54526119999355,295.5474215000286,294.54526119999355,295.5474215000286,294.54526119999355,295.5474215000286,294.54526119999355,295.04585940000834,294.54526119999355,295.04585940000834,294.54526119999355,295.04585940000834,294.54526119999355,295.04585940000834,294.54526119999355,None,,,,,11006,001,2024_Jan_01_1033,nback,2021.2.3,60.02336110931093,
1-back,instructions\back-1.png,conditions\12back-e.xlsx,,,experiment,1,4,stim\gray.png,stim\gray.png,stim\gray.png,stim\yellow.png,right,,,,,,,,,,,,,0,2,2,6,0,10,10,10,,,,,,,,,,,,,,,,,,,,,,,,,,,,,,,,,,,,,,,,,,,,,,,,,,,,,,,,right,1,0.11276440002257004,296.0307679999969,None,296.0307679999969,None,296.0307679999969,297.0328360000276,296.0307679999969,297.0328360000276,296.0307679999969,297.0328360000276,296.0307679999969,297.0328360000276,296.0307679999969,296.53241470002104,296.0307679999969,296.53241470002104,296.0307679999969,296.53241470002104,296.0307679999969,296.53241470002104,296.0307679999969,None,,,,,11006,001,2024_Jan_01_1033,nback,2021.2.3,60.02336110931093,
1-back,instructions\back-1.png,conditions\12back-e.xlsx,,,experiment,1,3,stim\gray.png,stim\gray.png,stim\yellow.png,stim\gray.png,down,,,,,,,,,,,,,0,2,2,6,0,11,11,11,,,,,,,,,,,,,,,,,,,,,,,,,,,,,,,,,,,,,,,,,,,,,,,,,,,,,,,,right,0,1.4669909999938682,297.53291250002803,None,297.53291250002803,None,297.53291250002803,298.53533600002993,297.53291250002803,298.53533600002993,297.53291250002803,298.53533600002993,297.53291250002803,298.53533600002993,297.53291250002803,298.0336023000418,297.53291250002803,298.0336023000418,297.53291250002803,298.0336023000418,297.53291250002803,298.0336023000418,297.53291250002803,None,,,,,11006,001,2024_Jan_01_1033,nback,2021.2.3,60.02336110931093,
1-back,instructions\back-1.png,conditions\12back-e.xlsx,,,experiment,1,1,stim\yellow.png,stim\gray.png,stim\gray.png,stim\gray.png,left,,,,,,,,,,,,,0,2,2,6,0,12,12,12,,,,,,,,,,,,,,,,,,,,,,,,,,,,,,,,,,,,,,,,,,,,,,,,,,,,,,,,None,0,,299.0352279000217,None,299.0352279000217,None,299.0352279000217,300.0367792000179,299.0352279000217,300.0367792000179,299.0352279000217,300.0367792000179,299.0352279000217,300.0367792000179,299.0352279000217,299.53654160001315,299.0352279000217,299.53654160001315,299.0352279000217,299.53654160001315,299.0352279000217,299.53654160001315,299.0352279000217,None,,,,,11006,001,2024_Jan_01_1033,nback,2021.2.3,60.02336110931093,
1-back,instructions\back-1.png,conditions\12back-e.xlsx,,,experiment,1,4,stim\gray.png,stim\gray.png,stim\gray.png,stim\yellow.png,up,,,,,,,,,,,,,0,2,2,6,0,13,13,13,,,,,,,,,,,,,,,,,,,,,,,,,,,,,,,,,,,,,,,,,,,,,,,,,,,,,,,,up,1,0.006397899996954948,300.53726010001265,None,300.53726010001265,None,300.53726010001265,301.5392865000176,300.53726010001265,301.5392865000176,300.53726010001265,301.5392865000176,300.53726010001265,301.5392865000176,300.53726010001265,301.0389533000416,300.53726010001265,301.0389533000416,300.53726010001265,301.0389533000416,300.53726010001265,301.0389533000416,300.53726010001265,None,,,,,11006,001,2024_Jan_01_1033,nback,2021.2.3,60.02336110931093,
1-back,instructions\back-1.png,conditions\12back-e.xlsx,,,experiment,1,1,stim\yellow.png,stim\gray.png,stim\gray.png,stim\gray.png,down,,,,,,,,,,,,,0,2,2,6,0,14,14,14,,,,,,,,,,,,,,,,,,,,,,,,,,,,,,,,,,,,,,,,,,,,,,,,,,,,,,,,down,1,0.06492799997795373,302.0395352000487,None,302.0395352000487,None,302.0395352000487,303.0411415999988,302.0395352000487,303.0411415999988,302.0395352000487,303.0411415999988,302.0395352000487,303.0411415999988,302.0395352000487,302.5407269000425,302.0395352000487,302.5407269000425,302.0395352000487,302.5407269000425,302.0395352000487,302.5407269000425,302.0395352000487,None,,,,,11006,001,2024_Jan_01_1033,nback,2021.2.3,60.02336110931093,
1-back,instructions\back-1.png,conditions\12back-e.xlsx,,,experiment,1,2,stim\gray.png,stim\yellow.png,stim\gray.png,stim\gray.png,up,,,,,,,,,,,,,0,2,2,6,0,15,15,15,,,,,,,,,,,,,,,,,,,,,,,,,,,,,,,,,,,,,,,,,,,,,,,,,,,,,,,,up,1,0.22545010002795607,303.54205690004164,None,303.54205690004164,None,303.54205690004164,304.5436561999959,303.54205690004164,304.5436561999959,303.54205690004164,304.5436561999959,303.54205690004164,304.5436561999959,303.54205690004164,304.0437557999976,303.54205690004164,304.0437557999976,303.54205690004164,304.0437557999976,303.54205690004164,304.0437557999976,303.54205690004164,None,,,,,11006,001,2024_Jan_01_1033,nback,2021.2.3,60.02336110931093,
1-back,instructions\back-1.png,conditions\12back-e.xlsx,,,experiment,1,1,stim\yellow.png,stim\gray.png,stim\gray.png,stim\gray.png,left,,,,,,,,,,,,,0,2,2,6,0,16,16,16,,,,,,,,,,,,,,,,,,,,,,,,,,,,,,,,,,,,,,,,,,,,,,,,,,,,,,,,left,1,0.20371920004254207,305.0439457000466,None,305.0439457000466,None,305.0439457000466,306.0461601000279,305.0439457000466,306.0461601000279,305.0439457000466,306.0461601000279,305.0439457000466,306.0461601000279,305.0439457000466,305.5455138999969,305.0439457000466,305.5455138999969,305.0439457000466,305.5455138999969,305.0439457000466,305.5455138999969,305.0439457000466,None,,,,,11006,001,2024_Jan_01_1033,nback,2021.2.3,60.02336110931093,
1-back,instructions\back-1.png,conditions\12back-e.xlsx,,,experiment,1,3,stim\gray.png,stim\gray.png,stim\yellow.png,stim\gray.png,up,,,,,,,,,,,,,0,2,2,6,0,17,17,17,,,,,,,,,,,,,,,,,,,,,,,,,,,,,,,,,,,,,,,,,,,,,,,,,,,,,,,,up,1,0.16533930000150576,306.5468729000422,None,306.5468729000422,None,306.5468729000422,307.5485687000328,306.5468729000422,307.5485687000328,306.5468729000422,307.5485687000328,306.5468729000422,307.5485687000328,306.5468729000422,307.0477043000283,306.5468729000422,307.0477043000283,306.5468729000422,307.0477043000283,306.5468729000422,307.0477043000283,306.5468729000422,None,,,,,11006,001,2024_Jan_01_1033,nback,2021.2.3,60.02336110931093,
1-back,instructions\back-1.png,conditions\12back-e.xlsx,,,experiment,1,2,stim\gray.png,stim\yellow.png,stim\gray.png,stim\gray.png,right,,,,,,,,,,,,,0,2,2,6,0,18,18,18,,,,,,,,,,,,,,,,,,,,,,,,,,,,,,,,,,,,,,,,,,,,,,,,,,,,,,,,right,1,0.17554159997962415,308.0318629000103,None,308.0318629000103,None,308.0318629000103,309.03408010001294,308.0318629000103,309.03408010001294,308.0318629000103,309.03408010001294,308.0318629000103,309.03408010001294,308.0318629000103,308.53345660003833,308.0318629000103,308.53345660003833,308.0318629000103,308.53345660003833,308.0318629000103,308.53345660003833,308.0318629000103,None,,,,,11006,001,2024_Jan_01_1033,nback,2021.2.3,60.02336110931093,
1-back,instructions\back-1.png,conditions\12back-e.xlsx,,,experiment,1,4,stim\gray.png,stim\gray.png,stim\gray.png,stim\yellow.png,left,,,,,,,,,,,,,0,2,2,6,0,19,19,19,,,,,,,,,,,,,,,,,,,,,,,,,,,,,,,,,,,,,,,,,,,,,,,,,,,,,,,,left,1,0.2181336999638006,309.53389900003094,None,309.53389900003094,None,309.53389900003094,310.53605729999254,309.53389900003094,310.53605729999254,309.53389900003094,310.53605729999254,309.53389900003094,310.53605729999254,309.53389900003094,310.0356771000079,309.53389900003094,310.0356771000079,309.53389900003094,310.0356771000079,309.53389900003094,310.0356771000079,309.53389900003094,None,,,,,11006,001,2024_Jan_01_1033,nback,2021.2.3,60.02336110931093,
1-back,instructions\back-1.png,conditions\12back-e.xlsx,,,,,,,,,,,,,,,,,,,,,,,0,2,2,6,,,,,,,,,,,,,,,,,,,,,,,,,,,,,,,,,,,,,,,,,,,,,,,,,,,,,,,,,,,,,,,,,,,,,,,,,,,,,,,,,,,,,311.03620890004095,None,,,11006,001,2024_Jan_01_1033,nback,2021.2.3,60.02336110931093,
1-back,instructions\back-1.png,conditions\10back-e.xlsx,,,experiment,1,3,stim\gray.png,stim\gray.png,stim\yellow.png,stim\gray.png,None,,,,,,,,,,,,,0,3,3,1,0,0,0,0,,,,,,,,,,,,,,,312.1378334000474,316.6459695000085,316.6118432999938,None,,,,,,,,,,,,,,,,,,,,,,,,,,,,,,,,,,,,,,right,0,1.2724959999904968,317.06329750001896,None,317.06329750001896,None,317.06329750001896,318.0639763000072,317.06329750001896,318.0639763000072,317.06329750001896,318.0639763000072,317.06329750001896,318.0639763000072,317.06329750001896,317.56358810001984,317.06329750001896,317.56358810001984,317.06329750001896,317.56358810001984,317.06329750001896,317.56358810001984,317.06329750001896,None,,,,,11006,001,2024_Jan_01_1033,nback,2021.2.3,60.02336110931093,
1-back,instructions\back-1.png,conditions\10back-e.xlsx,,,experiment,1,4,stim\gray.png,stim\gray.png,stim\gray.png,stim\yellow.png,right,,,,,,,,,,,,,0,3,3,1,0,1,1,1,,,,,,,,,,,,,,,,,,,,,,,,,,,,,,,,,,,,,,,,,,,,,,,,,,,,,,,,right,1,0.31812840001657605,318.530556600017,None,318.530556600017,None,318.530556600017,319.5328939000028,318.530556600017,319.5328939000028,318.530556600017,319.5328939000028,318.530556600017,319.5328939000028,318.530556600017,319.03252310003154,318.530556600017,319.03252310003154,318.530556600017,319.03252310003154,318.530556600017,319.03252310003154,318.530556600017,None,,,,,11006,001,2024_Jan_01_1033,nback,2021.2.3,60.02336110931093,
1-back,instructions\back-1.png,conditions\10back-e.xlsx,,,experiment,1,4,stim\gray.png,stim\gray.png,stim\gray.png,stim\yellow.png,down,,,,,,,,,,,,,0,3,3,1,0,2,2,2,,,,,,,,,,,,,,,,,,,,,,,,,,,,,,,,,,,,,,,,,,,,,,,,,,,,,,,,down,1,0.17418019997421652,320.03348760004155,None,320.03348760004155,None,320.03348760004155,321.0354312999989,320.03348760004155,321.0354312999989,320.03348760004155,321.0354312999989,320.03348760004155,321.0354312999989,320.03348760004155,320.5342776000034,320.03348760004155,320.5342776000034,320.03348760004155,320.5342776000034,320.03348760004155,320.5342776000034,320.03348760004155,None,,,,,11006,001,2024_Jan_01_1033,nback,2021.2.3,60.02336110931093,
1-back,instructions\back-1.png,conditions\10back-e.xlsx,,,experiment,1,2,stim\gray.png,stim\yellow.png,stim\gray.png,stim\gray.png,down,,,,,,,,,,,,,0,3,3,1,0,3,3,3,,,,,,,,,,,,,,,,,,,,,,,,,,,,,,,,,,,,,,,,,,,,,,,,,,,,,,,,down,1,0.20828800002345815,321.5357726000366,None,321.5357726000366,None,321.5357726000366,322.5371034000418,321.5357726000366,322.5371034000418,321.5357726000366,322.5371034000418,321.5357726000366,322.5371034000418,321.5357726000366,322.0358390000183,321.5357726000366,322.0358390000183,321.5357726000366,322.0358390000183,321.5357726000366,322.0358390000183,321.5357726000366,None,,,,,11006,001,2024_Jan_01_1033,nback,2021.2.3,60.02336110931093,
1-back,instructions\back-1.png,conditions\10back-e.xlsx,,,experiment,1,1,stim\yellow.png,stim\gray.png,stim\gray.png,stim\gray.png,left,,,,,,,,,,,,,0,3,3,1,0,4,4,4,,,,,,,,,,,,,,,,,,,,,,,,,,,,,,,,,,,,,,,,,,,,,,,,,,,,,,,,left,1,0.27348880004137754,323.0380558000179,None,323.0380558000179,None,323.0380558000179,324.0388139000279,323.0380558000179,324.0388139000279,323.0380558000179,324.0388139000279,323.0380558000179,324.0388139000279,323.0380558000179,323.53859589999774,323.0380558000179,323.53859589999774,323.0380558000179,323.53859589999774,323.0380558000179,323.53859589999774,323.0380558000179,None,,,,,11006,001,2024_Jan_01_1033,nback,2021.2.3,60.02336110931093,
1-back,instructions\back-1.png,conditions\10back-e.xlsx,,,experiment,1,2,stim\gray.png,stim\yellow.png,stim\gray.png,stim\gray.png,up,,,,,,,,,,,,,0,3,3,1,0,5,5,5,,,,,,,,,,,,,,,,,,,,,,,,,,,,,,,,,,,,,,,,,,,,,,,,,,,,,,,,up,1,0.2918558000237681,324.5397043999983,None,324.5397043999983,None,324.5397043999983,325.5417843000032,324.5397043999983,325.5417843000032,324.5397043999983,325.5417843000032,324.5397043999983,325.5417843000032,324.5397043999983,325.04104550002376,324.5397043999983,325.04104550002376,324.5397043999983,325.04104550002376,324.5397043999983,325.04104550002376,324.5397043999983,None,,,,,11006,001,2024_Jan_01_1033,nback,2021.2.3,60.02336110931093,
1-back,instructions\back-1.png,conditions\10back-e.xlsx,,,experiment,1,3,stim\gray.png,stim\gray.png,stim\yellow.png,stim\gray.png,left,,,,,,,,,,,,,0,3,3,1,0,6,6,6,,,,,,,,,,,,,,,,,,,,,,,,,,,,,,,,,,,,,,,,,,,,,,,,,,,,,,,,left,1,0.25371760001871735,326.0417657000362,None,326.0417657000362,None,326.0417657000362,327.0456918000127,326.0417657000362,327.0456918000127,326.0417657000362,327.0456918000127,326.0417657000362,327.0456918000127,326.0417657000362,326.5438042000169,326.0417657000362,326.5438042000169,326.0417657000362,326.5438042000169,326.0417657000362,326.5438042000169,326.0417657000362,None,,,,,11006,001,2024_Jan_01_1033,nback,2021.2.3,60.02336110931093,
1-back,instructions\back-1.png,conditions\10back-e.xlsx,,,experiment,1,4,stim\gray.png,stim\gray.png,stim\gray.png,stim\yellow.png,right,,,,,,,,,,,,,0,3,3,1,0,7,7,7,,,,,,,,,,,,,,,,,,,,,,,,,,,,,,,,,,,,,,,,,,,,,,,,,,,,,,,,right,1,0.2317631000187248,327.54431480000494,None,327.54431480000494,None,327.54431480000494,328.54626890004147,327.54431480000494,328.54626890004147,327.54431480000494,328.54626890004147,327.54431480000494,328.54626890004147,327.54431480000494,328.04461080004694,327.54431480000494,328.04461080004694,327.54431480000494,328.04461080004694,327.54431480000494,328.04461080004694,327.54431480000494,None,,,,,11006,001,2024_Jan_01_1033,nback,2021.2.3,60.02336110931093,
1-back,instructions\back-1.png,conditions\10back-e.xlsx,,,experiment,1,1,stim\yellow.png,stim\gray.png,stim\gray.png,stim\gray.png,down,,,,,,,,,,,,,0,3,3,1,0,8,8,8,,,,,,,,,,,,,,,,,,,,,,,,,,,,,,,,,,,,,,,,,,,,,,,,,,,,,,,,down,1,0.16140169999562204,329.04620840004645,None,329.04620840004645,None,329.04620840004645,330.0485968000139,329.04620840004645,330.0485968000139,329.04620840004645,330.0485968000139,329.04620840004645,330.0485968000139,329.04620840004645,329.54796410002746,329.04620840004645,329.54796410002746,329.04620840004645,329.54796410002746,329.04620840004645,329.54796410002746,329.04620840004645,None,,,,,11006,001,2024_Jan_01_1033,nback,2021.2.3,60.02336110931093,
1-back,instructions\back-1.png,conditions\10back-e.xlsx,,,experiment,1,3,stim\gray.png,stim\gray.png,stim\yellow.png,stim\gray.png,up,,,,,,,,,,,,,0,3,3,1,0,9,9,9,,,,,,,,,,,,,,,,,,,,,,,,,,,,,,,,,,,,,,,,,,,,,,,,,,,,,,,,up,1,0.16456699999980628,330.53162090003025,None,330.53162090003025,None,330.53162090003025,331.5344412000268,330.53162090003025,331.5344412000268,330.53162090003025,331.5344412000268,330.53162090003025,331.5344412000268,330.53162090003025,331.0338536000345,330.53162090003025,331.0338536000345,330.53162090003025,331.0338536000345,330.53162090003025,331.0338536000345,330.53162090003025,None,,,,,11006,001,2024_Jan_01_1033,nback,2021.2.3,60.02336110931093,
1-back,instructions\back-1.png,conditions\10back-e.xlsx,,,experiment,1,1,stim\yellow.png,stim\gray.png,stim\gray.png,stim\gray.png,right,,,,,,,,,,,,,0,3,3,1,0,10,10,10,,,,,,,,,,,,,,,,,,,,,,,,,,,,,,,,,,,,,,,,,,,,,,,,,,,,,,,,right,1,0.17340780002996325,332.03465129999677,None,332.03465129999677,None,332.03465129999677,333.03552350000245,332.03465129999677,333.03552350000245,332.03465129999677,333.03552350000245,332.03465129999677,333.03552350000245,332.03465129999677,332.53493160003563,332.03465129999677,332.53493160003563,332.03465129999677,332.53493160003563,332.03465129999677,332.53493160003563,332.03465129999677,None,,,,,11006,001,2024_Jan_01_1033,nback,2021.2.3,60.02336110931093,
1-back,instructions\back-1.png,conditions\10back-e.xlsx,,,experiment,1,2,stim\gray.png,stim\yellow.png,stim\gray.png,stim\gray.png,up,,,,,,,,,,,,,0,3,3,1,0,11,11,11,,,,,,,,,,,,,,,,,,,,,,,,,,,,,,,,,,,,,,,,,,,,,,,,,,,,,,,,up,1,0.15912290004780516,333.5363003000384,None,333.5363003000384,None,333.5363003000384,334.5382213999983,333.5363003000384,334.5382213999983,333.5363003000384,334.5382213999983,333.5363003000384,334.5382213999983,333.5363003000384,334.0377262000111,333.5363003000384,334.0377262000111,333.5363003000384,334.0377262000111,333.5363003000384,334.0377262000111,333.5363003000384,None,,,,,11006,001,2024_Jan_01_1033,nback,2021.2.3,60.02336110931093,
1-back,instructions\back-1.png,conditions\10back-e.xlsx,,,experiment,1,4,stim\gray.png,stim\gray.png,stim\gray.png,stim\yellow.png,left,,,,,,,,,,,,,0,3,3,1,0,12,12,12,,,,,,,,,,,,,,,,,,,,,,,,,,,,,,,,,,,,,,,,,,,,,,,,,,,,,,,,left,1,0.2173299000132829,335.0383158000186,None,335.0383158000186,None,335.0383158000186,336.0406520999968,335.0383158000186,336.0406520999968,335.0383158000186,336.0406520999968,335.0383158000186,336.0406520999968,335.0383158000186,335.53939869999886,335.0383158000186,335.53939869999886,335.0383158000186,335.53939869999886,335.0383158000186,335.53939869999886,335.0383158000186,None,,,,,11006,001,2024_Jan_01_1033,nback,2021.2.3,60.02336110931093,
1-back,instructions\back-1.png,conditions\10back-e.xlsx,,,experiment,1,3,stim\gray.png,stim\gray.png,stim\yellow.png,stim\gray.png,down,,,,,,,,,,,,,0,3,3,1,0,13,13,13,,,,,,,,,,,,,,,,,,,,,,,,,,,,,,,,,,,,,,,,,,,,,,,,,,,,,,,,down,1,0.20280129997991025,336.54092729999684,None,336.54092729999684,None,336.54092729999684,337.54246850003256,336.54092729999684,337.54246850003256,336.54092729999684,337.54246850003256,336.54092729999684,337.54246850003256,336.54092729999684,337.0421253000386,336.54092729999684,337.0421253000386,336.54092729999684,337.0421253000386,336.54092729999684,337.0421253000386,336.54092729999684,None,,,,,11006,001,2024_Jan_01_1033,nback,2021.2.3,60.02336110931093,
1-back,instructions\back-1.png,conditions\10back-e.xlsx,,,experiment,1,1,stim\yellow.png,stim\gray.png,stim\gray.png,stim\gray.png,right,,,,,,,,,,,,,0,3,3,1,0,14,14,14,,,,,,,,,,,,,,,,,,,,,,,,,,,,,,,,,,,,,,,,,,,,,,,,,,,,,,,,right,1,0.11699150002095848,338.04348350001965,None,338.04348350001965,None,338.04348350001965,339.04490860004444,338.04348350001965,339.04490860004444,338.04348350001965,339.04490860004444,338.04348350001965,339.04490860004444,338.04348350001965,338.5448649000027,338.04348350001965,338.5448649000027,338.04348350001965,338.5448649000027,338.04348350001965,338.5448649000027,338.04348350001965,None,,,,,11006,001,2024_Jan_01_1033,nback,2021.2.3,60.02336110931093,
1-back,instructions\back-1.png,conditions\10back-e.xlsx,,,experiment,1,2,stim\gray.png,stim\yellow.png,stim\gray.png,stim\gray.png,up,,,,,,,,,,,,,0,3,3,1,0,15,15,15,,,,,,,,,,,,,,,,,,,,,,,,,,,,,,,,,,,,,,,,,,,,,,,,,,,,,,,,up,1,0.1416351000079885,339.5457447000081,None,339.5457447000081,None,339.5457447000081,340.5466170000145,339.5457447000081,340.5466170000145,339.5457447000081,340.5466170000145,339.5457447000081,340.5466170000145,339.5457447000081,340.04637060000096,339.5457447000081,340.04637060000096,339.5457447000081,340.04637060000096,339.5457447000081,340.04637060000096,339.5457447000081,None,,,,,11006,001,2024_Jan_01_1033,nback,2021.2.3,60.02336110931093,
1-back,instructions\back-1.png,conditions\10back-e.xlsx,,,experiment,1,3,stim\gray.png,stim\gray.png,stim\yellow.png,stim\gray.png,left,,,,,,,,,,,,,0,3,3,1,0,16,16,16,,,,,,,,,,,,,,,,,,,,,,,,,,,,,,,,,,,,,,,,,,,,,,,,,,,,,,,,left,1,0.16055319999577478,341.0308050000458,None,341.0308050000458,None,341.0308050000458,342.0326199000119,341.0308050000458,342.0326199000119,341.0308050000458,342.0326199000119,341.0308050000458,342.0326199000119,341.0308050000458,341.53207370004384,341.0308050000458,341.53207370004384,341.0308050000458,341.53207370004384,341.0308050000458,341.53207370004384,341.0308050000458,None,,,,,11006,001,2024_Jan_01_1033,nback,2021.2.3,60.02336110931093,
