backseq,backinstr,backfile,instruction,size_in,Trialtype,back,number,P1,P2,P3,P4,corrAns,trials_practice.thisRepN,trials_practice.thisTrialN,trials_practice.thisN,trials_practice.thisIndex,trials.thisRepN,trials.thisTrialN,trials.thisN,trials.thisIndex,trials_3.thisRepN,trials_3.thisTrialN,trials_3.thisN,trials_3.thisIndex,trials_2.thisRepN,trials_2.thisTrialN,trials_2.thisN,trials_2.thisIndex,trials_4.thisRepN,trials_4.thisTrialN,trials_4.thisN,trials_4.thisIndex,image.started,image.stopped,image_2.started,image_2.stopped,key_resp.keys,key_resp.rt,key_resp.started,key_resp.stopped,image_3.started,image_3.stopped,key_resp_2.keys,key_resp_2.rt,key_resp_2.started,key_resp_2.stopped,image_4.started,image_4.stopped,text.started,text.stopped,H1.started,H1.stopped,H2.started,H2.stopped,H3.started,H3.stopped,H4.started,H4.stopped,key_resp_3.keys,key_resp_3.corr,key_resp_3.rt,key_resp_3.started,key_resp_3.stopped,text_4.started,text_4.stopped,F1.started,F1.stopped,F2.started,F2.stopped,F3.started,F3.stopped,F4.started,F4.stopped,image_7.started,image_7.stopped,text_5.started,text_5.stopped,key_resp_6.keys,key_resp_6.rt,key_resp_6.started,key_resp_6.stopped,image_5.started,image_5.stopped,key_resp_4.keys,key_resp_4.rt,key_resp_4.started,key_resp_4.stopped,key_resp_5.keys,key_resp_5.corr,key_resp_5.rt,key_resp_5.started,key_resp_5.stopped,text_3.started,text_3.stopped,H1_2.started,H1_2.stopped,H2_2.started,H2_2.stopped,H3_2.started,H3_2.stopped,H4_2.started,H4_2.stopped,F1_2.started,F1_2.stopped,F2_2.started,F2_2.stopped,F3_2.started,F3_2.stopped,F4_2.started,F4_2.stopped,image_8.started,image_8.stopped,text_2.started,text_2.stopped,image_6.started,image_6.stopped,participant,session,date,expName,psychopyVersion,frameRate,
,,,,,,,,,,,,,,,,,,,,,,,,,,,,,,,,,9.838332600076683,None,10.824373300070874,None,space,14.350994599983096,10.824373300070874,None,,,,,,,,,,,,,,,,,,,,,,,,,,,,,,,,,,,,,,,,,,,,,,,,,,,,,,,,,,,,,,,,,,,,,,,,,,,,,11019,001,2024_Jan_05_0951,nback,2021.2.3,59.87206538626889,
0-back,instructions\back-0.png,conditions\0back-p.xlsx,instructions\0-BACK.png,"(15, 8)",practice,0,1,stim\yellow.png,stim\gray.png,stim\gray.png,stim\gray.png,up,0,0,0,0,0,0,0,0,0,0,0,0,,,,,,,,,,,,,,,,,25.245921200024895,None,space,116.93784269993193,25.245921200024895,None,142.3187992000021,146.82578310009558,146.7942060000496,None,147.22749620000832,148.22760009998456,147.22749620000832,148.22760009998456,147.22749620000832,148.22760009998456,147.22749620000832,148.22760009998456,up,1,1.228697800077498,147.22749620000832,None,147.22749620000832,None,147.22749620000832,147.72696420003194,147.22749620000832,147.72696420003194,147.22749620000832,147.72696420003194,147.22749620000832,147.72696420003194,147.22749620000832,None,,,,,,,,,,,,,,,,,,,,,,,,,,,,,,,,,,,,,,,,,,11019,001,2024_Jan_05_0951,nback,2021.2.3,59.87206538626889,
0-back,instructions\back-0.png,conditions\0back-p.xlsx,instructions\0-BACK.png,"(15, 8)",practice,0,2,stim\gray.png,stim\yellow.png,stim\gray.png,stim\gray.png,left,0,0,0,0,0,0,0,0,0,1,1,1,,,,,,,,,,,,,,,,,,,,,,,,,,,148.71158440003637,149.71314750006422,148.71158440003637,149.71314750006422,148.71158440003637,149.71314750006422,148.71158440003637,149.71314750006422,left,1,0.656137099955231,148.71158440003637,None,148.71158440003637,None,148.71158440003637,149.21251230000053,148.71158440003637,149.21251230000053,148.71158440003637,149.21251230000053,148.71158440003637,149.21251230000053,148.71158440003637,None,,,,,,,,,,,,,,,,,,,,,,,,,,,,,,,,,,,,,,,,,,11019,001,2024_Jan_05_0951,nback,2021.2.3,59.87206538626889,
0-back,instructions\back-0.png,conditions\0back-p.xlsx,instructions\0-BACK.png,"(15, 8)",practice,0,3,stim\gray.png,stim\gray.png,stim\yellow.png,stim\gray.png,right,0,0,0,0,0,0,0,0,0,2,2,2,,,,,,,,,,,,,,,,,,,,,,,,,,,150.21407109999564,151.21587830001954,150.21407109999564,151.21587830001954,150.21407109999564,151.21587830001954,150.21407109999564,151.21587830001954,right,1,0.3305131000233814,150.21407109999564,None,150.21407109999564,None,150.21407109999564,150.71530829998665,150.21407109999564,150.71530829998665,150.21407109999564,150.71530829998665,150.21407109999564,150.71530829998665,150.21407109999564,None,,,,,,,,,,,,,,,,,,,,,,,,,,,,,,,,,,,,,,,,,,11019,001,2024_Jan_05_0951,nback,2021.2.3,59.87206538626889,
0-back,instructions\back-0.png,conditions\0back-p.xlsx,instructions\0-BACK.png,"(15, 8)",practice,0,4,stim\gray.png,stim\gray.png,stim\gray.png,stim\yellow.png,down,0,0,0,0,0,0,0,0,0,3,3,3,,,,,,,,,,,,,,,,,,,,,,,,,,,151.71643660007976,152.71744410006795,151.71643660007976,152.71744410006795,151.71643660007976,152.71744410006795,151.71643660007976,152.71744410006795,down,1,0.45918279991019517,151.71643660007976,None,151.71643660007976,None,151.71643660007976,152.21668890002184,151.71643660007976,152.21668890002184,151.71643660007976,152.21668890002184,151.71643660007976,152.21668890002184,151.71643660007976,None,,,,,,,,,,,,,,,,,,,,,,,,,,,,,,,,,,,,,,,,,,11019,001,2024_Jan_05_0951,nback,2021.2.3,59.87206538626889,
0-back,instructions\back-0.png,conditions\0back-p.xlsx,instructions\0-BACK.png,"(15, 8)",practice,0,2,stim\gray.png,stim\yellow.png,stim\gray.png,stim\gray.png,left,0,0,0,0,0,0,0,0,0,4,4,4,,,,,,,,,,,,,,,,,,,,,,,,,,,153.21872290002648,154.2201531000901,153.21872290002648,154.2201531000901,153.21872290002648,154.2201531000901,153.21872290002648,154.2201531000901,left,1,0.5648098000092432,153.21872290002648,None,153.21872290002648,None,153.21872290002648,153.7205285000382,153.21872290002648,153.7205285000382,153.21872290002648,153.7205285000382,153.21872290002648,153.7205285000382,153.21872290002648,None,,,,,,,,,,,,,,,,,,,,,,,,,,,,,,,,,,,,,,,,,,11019,001,2024_Jan_05_0951,nback,2021.2.3,59.87206538626889,
0-back,instructions\back-0.png,conditions\0back-p.xlsx,instructions\0-BACK.png,"(15, 8)",practice,0,1,stim\yellow.png,stim\gray.png,stim\gray.png,stim\gray.png,up,0,0,0,0,0,0,0,0,0,5,5,5,,,,,,,,,,,,,,,,,,,,,,,,,,,154.72119439998642,155.7222810999956,154.72119439998642,155.7222810999956,154.72119439998642,155.7222810999956,154.72119439998642,155.7222810999956,up,1,0.3904319000430405,154.72119439998642,None,154.72119439998642,None,154.72119439998642,155.22213410004042,154.72119439998642,155.22213410004042,154.72119439998642,155.22213410004042,154.72119439998642,155.22213410004042,154.72119439998642,None,,,,,,,,,,,,,,,,,,,,,,,,,,,,,,,,,,,,,,,,,,11019,001,2024_Jan_05_0951,nback,2021.2.3,59.87206538626889,
0-back,instructions\back-0.png,conditions\0back-p.xlsx,instructions\0-BACK.png,"(15, 8)",practice,0,4,stim\gray.png,stim\gray.png,stim\gray.png,stim\yellow.png,down,0,0,0,0,0,0,0,0,0,6,6,6,,,,,,,,,,,,,,,,,,,,,,,,,,,156.2060507000424,157.20795790001284,156.2060507000424,157.20795790001284,156.2060507000424,157.20795790001284,156.2060507000424,157.20795790001284,down,1,0.5376376999774948,156.2060507000424,None,156.2060507000424,None,156.2060507000424,156.7080147000961,156.2060507000424,156.7080147000961,156.2060507000424,156.7080147000961,156.2060507000424,156.7080147000961,156.2060507000424,None,,,,,,,,,,,,,,,,,,,,,,,,,,,,,,,,,,,,,,,,,,11019,001,2024_Jan_05_0951,nback,2021.2.3,59.87206538626889,
0-back,instructions\back-0.png,conditions\0back-p.xlsx,instructions\0-BACK.png,"(15, 8)",practice,0,3,stim\gray.png,stim\gray.png,stim\yellow.png,stim\gray.png,right,0,0,0,0,0,0,0,0,0,7,7,7,,,,,,,,,,,,,,,,,,,,,,,,,,,157.70837470004335,158.70987060002517,157.70837470004335,158.70987060002517,157.70837470004335,158.70987060002517,157.70837470004335,158.70987060002517,right,1,0.4192815999267623,157.70837470004335,None,157.70837470004335,None,157.70837470004335,158.20925389998592,157.70837470004335,158.20925389998592,157.70837470004335,158.20925389998592,157.70837470004335,158.20925389998592,157.70837470004335,None,,,,,,,,,,,,,,,,,,,,,,,,,,,,,,,,,,,,,,,,,,11019,001,2024_Jan_05_0951,nback,2021.2.3,59.87206538626889,
0-back,instructions\back-0.png,conditions\0back-p.xlsx,instructions\0-BACK.png,"(15, 8)",practice,0,3,stim\gray.png,stim\gray.png,stim\yellow.png,stim\gray.png,right,0,0,0,0,0,0,0,0,0,8,8,8,,,,,,,,,,,,,,,,,,,,,,,,,,,159.21053050004411,160.21244889998343,159.21053050004411,160.21244889998343,159.21053050004411,160.21244889998343,159.21053050004411,160.21244889998343,right,1,0.4212877999525517,159.21053050004411,None,159.21053050004411,None,159.21053050004411,159.71125440008473,159.21053050004411,159.71125440008473,159.21053050004411,159.71125440008473,159.21053050004411,159.71125440008473,159.21053050004411,None,,,,,,,,,,,,,,,,,,,,,,,,,,,,,,,,,,,,,,,,,,11019,001,2024_Jan_05_0951,nback,2021.2.3,59.87206538626889,
0-back,instructions\back-0.png,conditions\0back-p.xlsx,instructions\0-BACK.png,"(15, 8)",practice,0,4,stim\gray.png,stim\gray.png,stim\gray.png,stim\yellow.png,down,0,0,0,0,0,0,0,0,0,9,9,9,,,,,,,,,,,,,,,,,,,,,,,,,,,160.713131000055,161.714590699994,160.713131000055,161.714590699994,160.713131000055,161.714590699994,160.713131000055,161.714590699994,down,1,0.5425100999418646,160.713131000055,None,160.713131000055,None,160.713131000055,161.21397170005366,160.713131000055,161.21397170005366,160.713131000055,161.21397170005366,160.713131000055,161.21397170005366,160.713131000055,None,,,,,,,,,,,,,,,,,,,,,,,,,,,,,,,,,,,,,,,,,,11019,001,2024_Jan_05_0951,nback,2021.2.3,59.87206538626889,
0-back,instructions\back-0.png,conditions\0back-p.xlsx,instructions\0-BACK.png,"(15, 8)",practice,0,1,stim\yellow.png,stim\gray.png,stim\gray.png,stim\gray.png,up,0,0,0,0,0,0,0,0,0,10,10,10,,,,,,,,,,,,,,,,,,,,,,,,,,,162.215107700089,163.21670310001355,162.215107700089,163.21670310001355,162.215107700089,163.21670310001355,162.215107700089,163.21670310001355,up,1,0.40078039991203696,162.215107700089,None,162.215107700089,None,162.215107700089,162.71634460007772,162.215107700089,162.71634460007772,162.215107700089,162.71634460007772,162.215107700089,162.71634460007772,162.215107700089,None,,,,,,,,,,,,,,,,,,,,,,,,,,,,,,,,,,,,,,,,,,11019,001,2024_Jan_05_0951,nback,2021.2.3,59.87206538626889,
0-back,instructions\back-0.png,conditions\0back-p.xlsx,instructions\0-BACK.png,"(15, 8)",practice,0,2,stim\gray.png,stim\yellow.png,stim\gray.png,stim\gray.png,left,0,0,0,0,0,0,0,0,0,11,11,11,,,,,,,,,,,,,,,,,,,,,,,,,,,163.71870880003553,164.71866780007258,163.71870880003553,164.71866780007258,163.71870880003553,164.71866780007258,163.71870880003553,164.71866780007258,left,1,0.3293674000306055,163.71870880003553,None,163.71870880003553,None,163.71870880003553,164.21884230000433,163.71870880003553,164.21884230000433,163.71870880003553,164.21884230000433,163.71870880003553,164.21884230000433,163.71870880003553,None,,,,,,,,,,,,,,,,,,,,,,,,,,,,,,,,,,,,,,,,,,11019,001,2024_Jan_05_0951,nback,2021.2.3,59.87206538626889,
0-back,instructions\back-0.png,conditions\0back-p.xlsx,instructions\0-BACK.png,"(15, 8)",practice,0,4,stim\gray.png,stim\gray.png,stim\gray.png,stim\yellow.png,down,0,0,0,0,0,0,0,0,0,12,12,12,,,,,,,,,,,,,,,,,,,,,,,,,,,165.2195197000401,166.22100210003555,165.2195197000401,166.22100210003555,165.2195197000401,166.22100210003555,165.2195197000401,166.22100210003555,down,1,0.6851219999371096,165.2195197000401,None,165.2195197000401,None,165.2195197000401,165.720765999984,165.2195197000401,165.720765999984,165.2195197000401,165.720765999984,165.2195197000401,165.720765999984,165.2195197000401,None,,,,,,,,,,,,,,,,,,,,,,,,,,,,,,,,,,,,,,,,,,11019,001,2024_Jan_05_0951,nback,2021.2.3,59.87206538626889,
0-back,instructions\back-0.png,conditions\0back-p.xlsx,instructions\0-BACK.png,"(15, 8)",practice,0,3,stim\gray.png,stim\gray.png,stim\yellow.png,stim\gray.png,right,0,0,0,0,0,0,0,0,0,13,13,13,,,,,,,,,,,,,,,,,,,,,,,,,,,166.72165750002023,167.72395390004385,166.72165750002023,167.72395390004385,166.72165750002023,167.72395390004385,166.72165750002023,167.72395390004385,right,1,0.4381242999807,166.72165750002023,None,166.72165750002023,None,166.72165750002023,167.22262530005537,166.72165750002023,167.22262530005537,166.72165750002023,167.22262530005537,166.72165750002023,167.22262530005537,166.72165750002023,None,,,,,,,,,,,,,,,,,,,,,,,,,,,,,,,,,,,,,,,,,,11019,001,2024_Jan_05_0951,nback,2021.2.3,59.87206538626889,
0-back,instructions\back-0.png,conditions\0back-p.xlsx,instructions\0-BACK.png,"(15, 8)",practice,0,1,stim\yellow.png,stim\gray.png,stim\gray.png,stim\gray.png,up,0,0,0,0,0,0,0,0,0,14,14,14,,,,,,,,,,,,,,,,,,,,,,,,,,,168.2072230000049,169.20866880007088,168.2072230000049,169.20866880007088,168.2072230000049,169.20866880007088,168.2072230000049,169.20866880007088,up,1,0.3846700000576675,168.2072230000049,None,168.2072230000049,None,168.2072230000049,168.7078100000508,168.2072230000049,168.7078100000508,168.2072230000049,168.7078100000508,168.2072230000049,168.7078100000508,168.2072230000049,None,,,,,,,,,,,,,,,,,,,,,,,,,,,,,,,,,,,,,,,,,,11019,001,2024_Jan_05_0951,nback,2021.2.3,59.87206538626889,
0-back,instructions\back-0.png,conditions\0back-p.xlsx,instructions\0-BACK.png,"(15, 8)",practice,0,2,stim\gray.png,stim\yellow.png,stim\gray.png,stim\gray.png,left,0,0,0,0,0,0,0,0,0,15,15,15,,,,,,,,,,,,,,,,,,,,,,,,,,,169.70990120002534,170.71167250000872,169.70990120002534,170.71167250000872,169.70990120002534,170.71167250000872,169.70990120002534,170.71167250000872,left,1,0.38592330005485564,169.70990120002534,None,169.70990120002534,None,169.70990120002534,170.2107114000246,169.70990120002534,170.2107114000246,169.70990120002534,170.2107114000246,169.70990120002534,170.2107114000246,169.70990120002534,None,,,,,,,,,,,,,,,,,,,,,,,,,,,,,,,,,,,,,,,,,,11019,001,2024_Jan_05_0951,nback,2021.2.3,59.87206538626889,
0-back,instructions\back-0.png,conditions\0back-p.xlsx,instructions\0-BACK.png,"(15, 8)",practice,0,3,stim\gray.png,stim\gray.png,stim\yellow.png,stim\gray.png,right,0,0,0,0,0,0,0,0,0,16,16,16,,,,,,,,,,,,,,,,,,,,,,,,,,,171.21198470005766,172.21450060000643,171.21198470005766,172.21450060000643,171.21198470005766,172.21450060000643,171.21198470005766,172.21450060000643,right,1,0.40363129996694624,171.21198470005766,None,171.21198470005766,None,171.21198470005766,171.7129830000922,171.21198470005766,171.7129830000922,171.21198470005766,171.7129830000922,171.21198470005766,171.7129830000922,171.21198470005766,None,,,,,,,,,,,,,,,,,,,,,,,,,,,,,,,,,,,,,,,,,,11019,001,2024_Jan_05_0951,nback,2021.2.3,59.87206538626889,
0-back,instructions\back-0.png,conditions\0back-p.xlsx,instructions\0-BACK.png,"(15, 8)",practice,0,1,stim\yellow.png,stim\gray.png,stim\gray.png,stim\gray.png,up,0,0,0,0,0,0,0,0,0,17,17,17,,,,,,,,,,,,,,,,,,,,,,,,,,,172.71374480007216,173.7153923000442,172.71374480007216,173.7153923000442,172.71374480007216,173.7153923000442,172.71374480007216,173.7153923000442,up,1,0.39788269996643066,172.71374480007216,None,172.71374480007216,None,172.71374480007216,173.21469769999385,172.71374480007216,173.21469769999385,172.71374480007216,173.21469769999385,172.71374480007216,173.21469769999385,172.71374480007216,None,,,,,,,,,,,,,,,,,,,,,,,,,,,,,,,,,,,,,,,,,,11019,001,2024_Jan_05_0951,nback,2021.2.3,59.87206538626889,
0-back,instructions\back-0.png,conditions\0back-p.xlsx,instructions\0-BACK.png,"(15, 8)",practice,0,4,stim\gray.png,stim\gray.png,stim\gray.png,stim\yellow.png,down,0,0,0,0,0,0,0,0,0,18,18,18,,,,,,,,,,,,,,,,,,,,,,,,,,,174.2162132000085,175.21768990007695,174.2162132000085,175.21768990007695,174.2162132000085,175.21768990007695,174.2162132000085,175.21768990007695,down,1,0.4556798000121489,174.2162132000085,None,174.2162132000085,None,174.2162132000085,174.71709500008728,174.2162132000085,174.71709500008728,174.2162132000085,174.71709500008728,174.2162132000085,174.71709500008728,174.2162132000085,None,,,,,,,,,,,,,,,,,,,,,,,,,,,,,,,,,,,,,,,,,,11019,001,2024_Jan_05_0951,nback,2021.2.3,59.87206538626889,
0-back,instructions\back-0.png,conditions\0back-p.xlsx,instructions\0-BACK.png,"(15, 8)",practice,0,2,stim\gray.png,stim\yellow.png,stim\gray.png,stim\gray.png,left,0,0,0,0,0,0,0,0,0,19,19,19,,,,,,,,,,,,,,,,,,,,,,,,,,,175.7184120999882,176.71992460009642,175.7184120999882,176.71992460009642,175.7184120999882,176.71992460009642,175.7184120999882,176.71992460009642,left,1,0.37724509998224676,175.7184120999882,None,175.7184120999882,None,175.7184120999882,176.21934080007486,175.7184120999882,176.21934080007486,175.7184120999882,176.21934080007486,175.7184120999882,176.21934080007486,175.7184120999882,None,,,,,,,,,,,,,,,,,,,,,,,,,,,,,,,,,,,,,,,,,,11019,001,2024_Jan_05_0951,nback,2021.2.3,59.87206538626889,
0-back,instructions\back-0.png,conditions\0back-p.xlsx,instructions\0-BACK.png,"(15, 8)",,,,,,,,,0,0,0,0,0,0,0,0,,,,,,,,,,,,,,,,,,,,,,,,,,,,,,,,,,,,,,,,,,,,,,,,,,,,,,,,,,,,,,,,,,,,,,,,,,,,,,,,,,,,,,,,,,,,,,,,,11019,001,2024_Jan_05_0951,nback,2021.2.3,59.87206538626889,
1-back,instructions\back-1.png,conditions\1back-p.xlsx,instructions\1-BACK.png,"(25, 15)",practice,1,1,stim\yellow.png,stim\gray.png,stim\gray.png,stim\gray.png,None,0,0,0,0,0,1,1,1,0,0,0,0,,,,,,,,,,,,,,,,,177.3376296000788,None,space,9.382088999962434,177.3376296000788,None,186.83413790003397,191.3415671000257,191.32649230002426,None,191.75928350002505,192.76027910003904,191.75928350002505,192.76027910003904,191.75928350002505,192.76027910003904,191.75928350002505,192.76027910003904,None,1,,191.75928350002505,None,191.75928350002505,None,191.75928350002505,192.26024510001298,191.75928350002505,192.26024510001298,191.75928350002505,192.26024510001298,191.75928350002505,192.26024510001298,191.75928350002505,None,,,,,,,,,,,,,,,,,,,,,,,,,,,,,,,,,,,,,,,,,,11019,001,2024_Jan_05_0951,nback,2021.2.3,59.87206538626889,
1-back,instructions\back-1.png,conditions\1back-p.xlsx,instructions\1-BACK.png,"(25, 15)",practice,1,2,stim\gray.png,stim\yellow.png,stim\gray.png,stim\gray.png,up,0,0,0,0,0,1,1,1,0,1,1,1,,,,,,,,,,,,,,,,,,,,,,,,,,,193.24483420001343,194.24581360002048,193.24483420001343,194.24581360002048,193.24483420001343,194.24581360002048,193.24483420001343,194.24581360002048,up,1,0.47493450006004423,193.24483420001343,None,193.24483420001343,None,193.24483420001343,193.74554290005472,193.24483420001343,193.74554290005472,193.24483420001343,193.74554290005472,193.24483420001343,193.74554290005472,193.24483420001343,None,,,,,,,,,,,,,,,,,,,,,,,,,,,,,,,,,,,,,,,,,,11019,001,2024_Jan_05_0951,nback,2021.2.3,59.87206538626889,
1-back,instructions\back-1.png,conditions\1back-p.xlsx,instructions\1-BACK.png,"(25, 15)",practice,1,3,stim\gray.png,stim\gray.png,stim\yellow.png,stim\gray.png,left,0,0,0,0,0,1,1,1,0,2,2,2,,,,,,,,,,,,,,,,,,,,,,,,,,,194.74685430002864,195.74935310008004,194.74685430002864,195.74935310008004,194.74685430002864,195.74935310008004,194.74685430002864,195.74935310008004,right,0,1.1335844000568613,194.74685430002864,None,194.74685430002864,None,194.74685430002864,195.24737230001483,194.74685430002864,195.24737230001483,194.74685430002864,195.24737230001483,194.74685430002864,195.24737230001483,194.74685430002864,None,,,,,,,,,,,,,,,,,,,,,,,,,,,,,,,,,,,,,,,,,,11019,001,2024_Jan_05_0951,nback,2021.2.3,59.87206538626889,
1-back,instructions\back-1.png,conditions\1back-p.xlsx,instructions\1-BACK.png,"(25, 15)",practice,1,4,stim\gray.png,stim\gray.png,stim\gray.png,stim\yellow.png,right,0,0,0,0,0,1,1,1,0,3,3,3,,,,,,,,,,,,,,,,,,,,,,,,,,,196.24879480001982,197.25301490002312,196.24879480001982,197.25301490002312,196.24879480001982,197.25301490002312,196.24879480001982,197.25301490002312,right,1,0.5992783000692725,196.24879480001982,None,196.24879480001982,None,196.24879480001982,196.7496220000321,196.24879480001982,196.7496220000321,196.24879480001982,196.7496220000321,196.24879480001982,196.7496220000321,196.24879480001982,None,,,,,,,,,,,,,,,,,,,,,,,,,,,,,,,,,,,,,,,,,,11019,001,2024_Jan_05_0951,nback,2021.2.3,59.87206538626889,
1-back,instructions\back-1.png,conditions\1back-p.xlsx,instructions\1-BACK.png,"(25, 15)",practice,1,2,stim\gray.png,stim\yellow.png,stim\gray.png,stim\gray.png,down,0,0,0,0,0,1,1,1,0,4,4,4,,,,,,,,,,,,,,,,,,,,,,,,,,,197.75106550008059,198.75264230009634,197.75106550008059,198.75264230009634,197.75106550008059,198.75264230009634,197.75106550008059,198.75264230009634,down,1,0.39265789999626577,197.75106550008059,None,197.75106550008059,None,197.75106550008059,198.25270130007993,197.75106550008059,198.25270130007993,197.75106550008059,198.25270130007993,197.75106550008059,198.25270130007993,197.75106550008059,None,,,,,,,,,,,,,,,,,,,,,,,,,,,,,,,,,,,,,,,,,,11019,001,2024_Jan_05_0951,nback,2021.2.3,59.87206538626889,
1-back,instructions\back-1.png,conditions\1back-p.xlsx,instructions\1-BACK.png,"(25, 15)",practice,1,1,stim\yellow.png,stim\gray.png,stim\gray.png,stim\gray.png,left,0,0,0,0,0,1,1,1,0,5,5,5,,,,,,,,,,,,,,,,,,,,,,,,,,,199.25326270004734,200.25537200004328,199.25326270004734,200.25537200004328,199.25326270004734,200.25537200004328,199.25326270004734,200.25537200004328,up,0,1.0348819999489933,199.25326270004734,None,199.25326270004734,None,199.25326270004734,199.754192900029,199.25326270004734,199.754192900029,199.25326270004734,199.754192900029,199.25326270004734,199.754192900029,199.25326270004734,None,,,,,,,,,,,,,,,,,,,,,,,,,,,,,,,,,,,,,,,,,,11019,001,2024_Jan_05_0951,nback,2021.2.3,59.87206538626889,
1-back,instructions\back-1.png,conditions\1back-p.xlsx,instructions\1-BACK.png,"(25, 15)",practice,1,4,stim\gray.png,stim\gray.png,stim\gray.png,stim\yellow.png,up,0,0,0,0,0,1,1,1,0,6,6,6,,,,,,,,,,,,,,,,,,,,,,,,,,,200.755255300086,201.7577816999983,200.755255300086,201.7577816999983,200.755255300086,201.7577816999983,200.755255300086,201.7577816999983,down,0,0.8124773999443278,200.755255300086,None,200.755255300086,None,200.755255300086,201.2562915000599,200.755255300086,201.2562915000599,200.755255300086,201.2562915000599,200.755255300086,201.2562915000599,200.755255300086,None,,,,,,,,,,,,,,,,,,,,,,,,,,,,,,,,,,,,,,,,,,11019,001,2024_Jan_05_0951,nback,2021.2.3,59.87206538626889,
1-back,instructions\back-1.png,conditions\1back-p.xlsx,instructions\1-BACK.png,"(25, 15)",practice,1,3,stim\gray.png,stim\gray.png,stim\yellow.png,stim\gray.png,down,0,0,0,0,0,1,1,1,0,7,7,7,,,,,,,,,,,,,,,,,,,,,,,,,,,202.24075900006574,203.24256230005994,202.24075900006574,203.24256230005994,202.24075900006574,203.24256230005994,202.24075900006574,203.24256230005994,right,0,0.3914513000054285,202.24075900006574,None,202.24075900006574,None,202.24075900006574,202.74305260006804,202.24075900006574,202.74305260006804,202.24075900006574,202.74305260006804,202.24075900006574,202.74305260006804,202.24075900006574,None,,,,,,,,,,,,,,,,,,,,,,,,,,,,,,,,,,,,,,,,,,11019,001,2024_Jan_05_0951,nback,2021.2.3,59.87206538626889,
1-back,instructions\back-1.png,conditions\1back-p.xlsx,instructions\1-BACK.png,"(25, 15)",practice,1,3,stim\gray.png,stim\gray.png,stim\yellow.png,stim\gray.png,right,0,0,0,0,0,1,1,1,0,8,8,8,,,,,,,,,,,,,,,,,,,,,,,,,,,203.74343340005726,204.74513759999536,203.74343340005726,204.74513759999536,203.74343340005726,204.74513759999536,203.74343340005726,204.74513759999536,right,1,0.44039499992504716,203.74343340005726,None,203.74343340005726,None,203.74343340005726,204.24405830004252,203.74343340005726,204.24405830004252,203.74343340005726,204.24405830004252,203.74343340005726,204.24405830004252,203.74343340005726,None,,,,,,,,,,,,,,,,,,,,,,,,,,,,,,,,,,,,,,,,,,11019,001,2024_Jan_05_0951,nback,2021.2.3,59.87206538626889,
1-back,instructions\back-1.png,conditions\1back-p.xlsx,instructions\1-BACK.png,"(25, 15)",practice,1,4,stim\gray.png,stim\gray.png,stim\gray.png,stim\yellow.png,right,0,0,0,0,0,1,1,1,0,9,9,9,,,,,,,,,,,,,,,,,,,,,,,,,,,205.24588499998208,206.24770700000226,205.24588499998208,206.24770700000226,205.24588499998208,206.24770700000226,205.24588499998208,206.24770700000226,down,0,0.8499752000207081,205.24588499998208,None,205.24588499998208,None,205.24588499998208,205.7472945000045,205.24588499998208,205.7472945000045,205.24588499998208,205.7472945000045,205.24588499998208,205.7472945000045,205.24588499998208,None,,,,,,,,,,,,,,,,,,,,,,,,,,,,,,,,,,,,,,,,,,11019,001,2024_Jan_05_0951,nback,2021.2.3,59.87206538626889,
1-back,instructions\back-1.png,conditions\1back-p.xlsx,instructions\1-BACK.png,"(25, 15)",practice,1,1,stim\yellow.png,stim\gray.png,stim\gray.png,stim\gray.png,down,0,0,0,0,0,1,1,1,0,10,10,10,,,,,,,,,,,,,,,,,,,,,,,,,,,206.7482719999971,207.74916500004474,206.7482719999971,207.74916500004474,206.7482719999971,207.74916500004474,206.7482719999971,207.74916500004474,None,0,,206.7482719999971,None,206.7482719999971,None,206.7482719999971,207.24833080009557,206.7482719999971,207.24833080009557,206.7482719999971,207.24833080009557,206.7482719999971,207.24833080009557,206.7482719999971,None,,,,,,,,,,,,,,,,,,,,,,,,,,,,,,,,,,,,,,,,,,11019,001,2024_Jan_05_0951,nback,2021.2.3,59.87206538626889,
1-back,instructions\back-1.png,conditions\1back-p.xlsx,instructions\1-BACK.png,"(25, 15)",practice,1,2,stim\gray.png,stim\yellow.png,stim\gray.png,stim\gray.png,up,0,0,0,0,0,1,1,1,0,11,11,11,,,,,,,,,,,,,,,,,,,,,,,,,,,208.25023140001576,209.25108570000157,208.25023140001576,209.25108570000157,208.25023140001576,209.25108570000157,208.25023140001576,209.25108570000157,up,1,1.4214958000229672,208.25023140001576,None,208.25023140001576,None,208.25023140001576,208.75143770000432,208.25023140001576,208.75143770000432,208.25023140001576,208.75143770000432,208.25023140001576,208.75143770000432,208.25023140001576,None,,,,,,,,,,,,,,,,,,,,,,,,,,,,,,,,,,,,,,,,,,11019,001,2024_Jan_05_0951,nback,2021.2.3,59.87206538626889,
1-back,instructions\back-1.png,conditions\1back-p.xlsx,instructions\1-BACK.png,"(25, 15)",practice,1,4,stim\gray.png,stim\gray.png,stim\gray.png,stim\yellow.png,left,0,0,0,0,0,1,1,1,0,12,12,12,,,,,,,,,,,,,,,,,,,,,,,,,,,209.75203259999398,210.75457240000833,209.75203259999398,210.75457240000833,209.75203259999398,210.75457240000833,209.75203259999398,210.75457240000833,left,1,1.1838935000123456,209.75203259999398,None,209.75203259999398,None,209.75203259999398,210.25384220003616,209.75203259999398,210.25384220003616,209.75203259999398,210.25384220003616,209.75203259999398,210.25384220003616,209.75203259999398,None,,,,,,,,,,,,,,,,,,,,,,,,,,,,,,,,,,,,,,,,,,11019,001,2024_Jan_05_0951,nback,2021.2.3,59.87206538626889,
1-back,instructions\back-1.png,conditions\1back-p.xlsx,instructions\1-BACK.png,"(25, 15)",practice,1,3,stim\gray.png,stim\gray.png,stim\yellow.png,stim\gray.png,down,0,0,0,0,0,1,1,1,0,13,13,13,,,,,,,,,,,,,,,,,,,,,,,,,,,211.25428360002115,212.2564344999846,211.25428360002115,212.2564344999846,211.25428360002115,212.2564344999846,211.25428360002115,212.2564344999846,right,0,0.6416729000629857,211.25428360002115,None,211.25428360002115,None,211.25428360002115,211.75504660001025,211.25428360002115,211.75504660001025,211.25428360002115,211.75504660001025,211.25428360002115,211.75504660001025,211.25428360002115,None,,,,,,,,,,,,,,,,,,,,,,,,,,,,,,,,,,,,,,,,,,11019,001,2024_Jan_05_0951,nback,2021.2.3,59.87206538626889,
1-back,instructions\back-1.png,conditions\1back-p.xlsx,instructions\1-BACK.png,"(25, 15)",practice,1,1,stim\yellow.png,stim\gray.png,stim\gray.png,stim\gray.png,right,0,0,0,0,0,1,1,1,0,14,14,14,,,,,,,,,,,,,,,,,,,,,,,,,,,212.74046070000622,213.74336100008804,212.74046070000622,213.74336100008804,212.74046070000622,213.74336100008804,212.74046070000622,213.74336100008804,down,0,0.955714900046587,212.74046070000622,None,212.74046070000622,None,212.74046070000622,213.24063500005286,212.74046070000622,213.24063500005286,212.74046070000622,213.24063500005286,212.74046070000622,213.24063500005286,212.74046070000622,None,,,,,,,,,,,,,,,,,,,,,,,,,,,,,,,,,,,,,,,,,,11019,001,2024_Jan_05_0951,nback,2021.2.3,59.87206538626889,
1-back,instructions\back-1.png,conditions\1back-p.xlsx,instructions\1-BACK.png,"(25, 15)",practice,1,2,stim\gray.png,stim\yellow.png,stim\gray.png,stim\gray.png,up,0,0,0,0,0,1,1,1,0,15,15,15,,,,,,,,,,,,,,,,,,,,,,,,,,,214.2427192000905,215.2452277999837,214.2427192000905,215.2452277999837,214.2427192000905,215.2452277999837,214.2427192000905,215.2452277999837,None,0,,214.2427192000905,None,214.2427192000905,None,214.2427192000905,214.74285390006844,214.2427192000905,214.74285390006844,214.2427192000905,214.74285390006844,214.2427192000905,214.74285390006844,214.2427192000905,None,,,,,,,,,,,,,,,,,,,,,,,,,,,,,,,,,,,,,,,,,,11019,001,2024_Jan_05_0951,nback,2021.2.3,59.87206538626889,
1-back,instructions\back-1.png,conditions\1back-p.xlsx,instructions\1-BACK.png,"(25, 15)",practice,1,3,stim\gray.png,stim\gray.png,stim\yellow.png,stim\gray.png,left,0,0,0,0,0,1,1,1,0,16,16,16,,,,,,,,,,,,,,,,,,,,,,,,,,,215.74434470001142,216.7460728000151,215.74434470001142,216.7460728000151,215.74434470001142,216.7460728000151,215.74434470001142,216.7460728000151,right,0,0.9276534999953583,215.74434470001142,None,215.74434470001142,None,215.74434470001142,216.24515410000458,215.74434470001142,216.24515410000458,215.74434470001142,216.24515410000458,215.74434470001142,216.24515410000458,215.74434470001142,None,,,,,,,,,,,,,,,,,,,,,,,,,,,,,,,,,,,,,,,,,,11019,001,2024_Jan_05_0951,nback,2021.2.3,59.87206538626889,
1-back,instructions\back-1.png,conditions\1back-p.xlsx,instructions\1-BACK.png,"(25, 15)",practice,1,1,stim\yellow.png,stim\gray.png,stim\gray.png,stim\gray.png,right,0,0,0,0,0,1,1,1,0,17,17,17,,,,,,,,,,,,,,,,,,,,,,,,,,,217.24720910005271,218.24814740009606,217.24720910005271,218.24814740009606,217.24720910005271,218.24814740009606,217.24720910005271,218.24814740009606,up,0,0.7767912999261171,217.24720910005271,None,217.24720910005271,None,217.24720910005271,217.74770400009584,217.24720910005271,217.74770400009584,217.24720910005271,217.74770400009584,217.24720910005271,217.74770400009584,217.24720910005271,None,,,,,,,,,,,,,,,,,,,,,,,,,,,,,,,,,,,,,,,,,,11019,001,2024_Jan_05_0951,nback,2021.2.3,59.87206538626889,
1-back,instructions\back-1.png,conditions\1back-p.xlsx,instructions\1-BACK.png,"(25, 15)",practice,1,4,stim\gray.png,stim\gray.png,stim\gray.png,stim\yellow.png,up,0,0,0,0,0,1,1,1,0,18,18,18,,,,,,,,,,,,,,,,,,,,,,,,,,,218.74887720006518,219.7500073000556,218.74887720006518,219.7500073000556,218.74887720006518,219.7500073000556,218.74887720006518,219.7500073000556,down,0,1.1307043000124395,218.74887720006518,None,218.74887720006518,None,218.74887720006518,219.25085810001474,218.74887720006518,219.25085810001474,218.74887720006518,219.25085810001474,218.74887720006518,219.25085810001474,218.74887720006518,None,,,,,,,,,,,,,,,,,,,,,,,,,,,,,,,,,,,,,,,,,,11019,001,2024_Jan_05_0951,nback,2021.2.3,59.87206538626889,
1-back,instructions\back-1.png,conditions\1back-p.xlsx,instructions\1-BACK.png,"(25, 15)",practice,1,2,stim\gray.png,stim\yellow.png,stim\gray.png,stim\gray.png,down,0,0,0,0,0,1,1,1,0,19,19,19,,,,,,,,,,,,,,,,,,,,,,,,,,,220.25089949998073,221.25320370006375,220.25089949998073,221.25320370006375,220.25089949998073,221.25320370006375,220.25089949998073,221.25320370006375,None,0,,220.25089949998073,None,220.25089949998073,None,220.25089949998073,220.7516885000514,220.25089949998073,220.7516885000514,220.25089949998073,220.7516885000514,220.25089949998073,220.7516885000514,220.25089949998073,None,,,,,,,,,,,,,,,,,,,,,,,,,,,,,,,,,,,,,,,,,,11019,001,2024_Jan_05_0951,nback,2021.2.3,59.87206538626889,
1-back,instructions\back-1.png,conditions\1back-p.xlsx,instructions\1-BACK.png,"(25, 15)",,,,,,,,,0,0,0,0,0,1,1,1,,,,,,,,,,,,,,,,,,,,,,,,,,,,,,,,,,,,,,,,,,,,,,,,,,,,,,,,,,,,,,,,,,,,,,,,,,,,,,,,,,,,,,,,,,,,,,,,,11019,001,2024_Jan_05_0951,nback,2021.2.3,59.87206538626889,
2-back,instructions\back-2.png,conditions\2back-p.xlsx,instructions\2-BACK.png,"(25, 15)",practice,2,1,stim\yellow.png,stim\gray.png,stim\gray.png,stim\gray.png,None,0,0,0,0,0,2,2,2,0,0,0,0,,,,,,,,,,,,,,,,,221.86984609998763,None,space,28.72242180001922,221.86984609998763,None,250.72951790003572,255.23704450007062,255.2028960000025,None,255.63831660000142,256.63828359998297,255.63831660000142,256.63828359998297,255.63831660000142,256.63828359998297,255.63831660000142,256.63828359998297,None,1,,255.63831660000142,None,255.63831660000142,None,255.63831660000142,256.1374985000584,255.63831660000142,256.1374985000584,255.63831660000142,256.1374985000584,255.63831660000142,256.1374985000584,255.63831660000142,None,,,,,,,,,,,,,,,,,,,,,,,,,,,,,,,,,,,,,,,,,,11019,001,2024_Jan_05_0951,nback,2021.2.3,59.87206538626889,
2-back,instructions\back-2.png,conditions\2back-p.xlsx,instructions\2-BACK.png,"(25, 15)",practice,2,2,stim\gray.png,stim\yellow.png,stim\gray.png,stim\gray.png,None,0,0,0,0,0,2,2,2,0,1,1,1,,,,,,,,,,,,,,,,,,,,,,,,,,,257.1229540000204,258.1238782000728,257.1229540000204,258.1238782000728,257.1229540000204,258.1238782000728,257.1229540000204,258.1238782000728,None,1,,257.1229540000204,None,257.1229540000204,None,257.1229540000204,257.6228524000617,257.1229540000204,257.6228524000617,257.1229540000204,257.6228524000617,257.1229540000204,257.6228524000617,257.1229540000204,None,,,,,,,,,,,,,,,,,,,,,,,,,,,,,,,,,,,,,,,,,,11019,001,2024_Jan_05_0951,nback,2021.2.3,59.87206538626889,
2-back,instructions\back-2.png,conditions\2back-p.xlsx,instructions\2-BACK.png,"(25, 15)",practice,2,3,stim\gray.png,stim\gray.png,stim\yellow.png,stim\gray.png,up,0,0,0,0,0,2,2,2,0,2,2,2,,,,,,,,,,,,,,,,,,,,,,,,,,,258.62454870005604,259.6262574000284,258.62454870005604,259.6262574000284,258.62454870005604,259.6262574000284,258.62454870005604,259.6262574000284,up,1,0.8872662999201566,258.62454870005604,None,258.62454870005604,None,258.62454870005604,259.12521130009554,258.62454870005604,259.12521130009554,258.62454870005604,259.12521130009554,258.62454870005604,259.12521130009554,258.62454870005604,None,,,,,,,,,,,,,,,,,,,,,,,,,,,,,,,,,,,,,,,,,,11019,001,2024_Jan_05_0951,nback,2021.2.3,59.87206538626889,
2-back,instructions\back-2.png,conditions\2back-p.xlsx,instructions\2-BACK.png,"(25, 15)",practice,2,4,stim\gray.png,stim\gray.png,stim\gray.png,stim\yellow.png,left,0,0,0,0,0,2,2,2,0,3,3,3,,,,,,,,,,,,,,,,,,,,,,,,,,,260.1272833000403,261.1282532000914,260.1272833000403,261.1282532000914,260.1272833000403,261.1282532000914,260.1272833000403,261.1282532000914,None,0,,260.1272833000403,None,260.1272833000403,None,260.1272833000403,260.6281686000293,260.1272833000403,260.6281686000293,260.1272833000403,260.6281686000293,260.1272833000403,260.6281686000293,260.1272833000403,None,,,,,,,,,,,,,,,,,,,,,,,,,,,,,,,,,,,,,,,,,,11019,001,2024_Jan_05_0951,nback,2021.2.3,59.87206538626889,
2-back,instructions\back-2.png,conditions\2back-p.xlsx,instructions\2-BACK.png,"(25, 15)",practice,2,2,stim\gray.png,stim\yellow.png,stim\gray.png,stim\gray.png,right,0,0,0,0,0,2,2,2,0,4,4,4,,,,,,,,,,,,,,,,,,,,,,,,,,,261.62902410002425,262.630646500038,261.62902410002425,262.630646500038,261.62902410002425,262.630646500038,261.62902410002425,262.630646500038,None,0,,261.62902410002425,None,261.62902410002425,None,261.62902410002425,262.12979330006056,261.62902410002425,262.12979330006056,261.62902410002425,262.12979330006056,261.62902410002425,262.12979330006056,261.62902410002425,None,,,,,,,,,,,,,,,,,,,,,,,,,,,,,,,,,,,,,,,,,,11019,001,2024_Jan_05_0951,nback,2021.2.3,59.87206538626889,
2-back,instructions\back-2.png,conditions\2back-p.xlsx,instructions\2-BACK.png,"(25, 15)",practice,2,1,stim\yellow.png,stim\gray.png,stim\gray.png,stim\gray.png,down,0,0,0,0,0,2,2,2,0,5,5,5,,,,,,,,,,,,,,,,,,,,,,,,,,,263.1311781000113,264.13266960007604,263.1311781000113,264.13266960007604,263.1311781000113,264.13266960007604,263.1311781000113,264.13266960007604,up,0,0.876625300035812,263.1311781000113,None,263.1311781000113,None,263.1311781000113,263.6328169000335,263.1311781000113,263.6328169000335,263.1311781000113,263.6328169000335,263.1311781000113,263.6328169000335,263.1311781000113,None,,,,,,,,,,,,,,,,,,,,,,,,,,,,,,,,,,,,,,,,,,11019,001,2024_Jan_05_0951,nback,2021.2.3,59.87206538626889,
2-back,instructions\back-2.png,conditions\2back-p.xlsx,instructions\2-BACK.png,"(25, 15)",practice,2,4,stim\gray.png,stim\gray.png,stim\gray.png,stim\yellow.png,left,0,0,0,0,0,2,2,2,0,6,6,6,,,,,,,,,,,,,,,,,,,,,,,,,,,264.6336241000099,265.6349628000753,264.6336241000099,265.6349628000753,264.6336241000099,265.6349628000753,264.6336241000099,265.6349628000753,None,0,,264.6336241000099,None,264.6336241000099,None,264.6336241000099,265.1340644999873,264.6336241000099,265.1340644999873,264.6336241000099,265.1340644999873,264.6336241000099,265.1340644999873,264.6336241000099,None,,,,,,,,,,,,,,,,,,,,,,,,,,,,,,,,,,,,,,,,,,11019,001,2024_Jan_05_0951,nback,2021.2.3,59.87206538626889,
2-back,instructions\back-2.png,conditions\2back-p.xlsx,instructions\2-BACK.png,"(25, 15)",practice,2,3,stim\gray.png,stim\gray.png,stim\yellow.png,stim\gray.png,up,0,0,0,0,0,2,2,2,0,7,7,7,,,,,,,,,,,,,,,,,,,,,,,,,,,266.1199082999956,267.1212212999817,266.1199082999956,267.1212212999817,266.1199082999956,267.1212212999817,266.1199082999956,267.1212212999817,None,0,,266.1199082999956,None,266.1199082999956,None,266.1199082999956,266.62078840006143,266.1199082999956,266.62078840006143,266.1199082999956,266.62078840006143,266.1199082999956,266.62078840006143,266.1199082999956,None,,,,,,,,,,,,,,,,,,,,,,,,,,,,,,,,,,,,,,,,,,11019,001,2024_Jan_05_0951,nback,2021.2.3,59.87206538626889,
2-back,instructions\back-2.png,conditions\2back-p.xlsx,instructions\2-BACK.png,"(25, 15)",practice,2,3,stim\gray.png,stim\gray.png,stim\yellow.png,stim\gray.png,down,0,0,0,0,0,2,2,2,0,8,8,8,,,,,,,,,,,,,,,,,,,,,,,,,,,267.62117669999134,268.6226120000938,267.62117669999134,268.6226120000938,267.62117669999134,268.6226120000938,267.62117669999134,268.6226120000938,None,0,,267.62117669999134,None,267.62117669999134,None,267.62117669999134,268.12189260008745,267.62117669999134,268.12189260008745,267.62117669999134,268.12189260008745,267.62117669999134,268.12189260008745,267.62117669999134,None,,,,,,,,,,,,,,,,,,,,,,,,,,,,,,,,,,,,,,,,,,11019,001,2024_Jan_05_0951,nback,2021.2.3,59.87206538626889,
2-back,instructions\back-2.png,conditions\2back-p.xlsx,instructions\2-BACK.png,"(25, 15)",practice,2,4,stim\gray.png,stim\gray.png,stim\gray.png,stim\yellow.png,right,0,0,0,0,0,2,2,2,0,9,9,9,,,,,,,,,,,,,,,,,,,,,,,,,,,269.12390000000596,270.1257379000308,269.12390000000596,270.1257379000308,269.12390000000596,270.1257379000308,269.12390000000596,270.1257379000308,up,0,0.10036839998792857,269.12390000000596,None,269.12390000000596,None,269.12390000000596,269.62421750009526,269.12390000000596,269.62421750009526,269.12390000000596,269.62421750009526,269.12390000000596,269.62421750009526,269.12390000000596,None,,,,,,,,,,,,,,,,,,,,,,,,,,,,,,,,,,,,,,,,,,11019,001,2024_Jan_05_0951,nback,2021.2.3,59.87206538626889,
2-back,instructions\back-2.png,conditions\2back-p.xlsx,instructions\2-BACK.png,"(25, 15)",practice,2,1,stim\yellow.png,stim\gray.png,stim\gray.png,stim\gray.png,right,0,0,0,0,0,2,2,2,0,10,10,10,,,,,,,,,,,,,,,,,,,,,,,,,,,270.62571550009307,271.62769190000836,270.62571550009307,271.62769190000836,270.62571550009307,271.62769190000836,270.62571550009307,271.62769190000836,None,0,,270.62571550009307,None,270.62571550009307,None,270.62571550009307,271.1264554000227,270.62571550009307,271.1264554000227,270.62571550009307,271.1264554000227,270.62571550009307,271.1264554000227,270.62571550009307,None,,,,,,,,,,,,,,,,,,,,,,,,,,,,,,,,,,,,,,,,,,11019,001,2024_Jan_05_0951,nback,2021.2.3,59.87206538626889,
2-back,instructions\back-2.png,conditions\2back-p.xlsx,instructions\2-BACK.png,"(25, 15)",practice,2,2,stim\gray.png,stim\yellow.png,stim\gray.png,stim\gray.png,down,0,0,0,0,0,2,2,2,0,11,11,11,,,,,,,,,,,,,,,,,,,,,,,,,,,272.12817500007804,273.1301313000731,272.12817500007804,273.1301313000731,272.12817500007804,273.1301313000731,272.12817500007804,273.1301313000731,None,0,,272.12817500007804,None,272.12817500007804,None,272.12817500007804,272.6297702000011,272.12817500007804,272.6297702000011,272.12817500007804,272.6297702000011,272.12817500007804,272.6297702000011,272.12817500007804,None,,,,,,,,,,,,,,,,,,,,,,,,,,,,,,,,,,,,,,,,,,11019,001,2024_Jan_05_0951,nback,2021.2.3,59.87206538626889,
2-back,instructions\back-2.png,conditions\2back-p.xlsx,instructions\2-BACK.png,"(25, 15)",practice,2,4,stim\gray.png,stim\gray.png,stim\gray.png,stim\yellow.png,up,0,0,0,0,0,2,2,2,0,12,12,12,,,,,,,,,,,,,,,,,,,,,,,,,,,273.6301535000093,274.63256940001156,273.6301535000093,274.63256940001156,273.6301535000093,274.63256940001156,273.6301535000093,274.63256940001156,None,0,,273.6301535000093,None,273.6301535000093,None,273.6301535000093,274.13188490003813,273.6301535000093,274.13188490003813,273.6301535000093,274.13188490003813,273.6301535000093,274.13188490003813,273.6301535000093,None,,,,,,,,,,,,,,,,,,,,,,,,,,,,,,,,,,,,,,,,,,11019,001,2024_Jan_05_0951,nback,2021.2.3,59.87206538626889,
2-back,instructions\back-2.png,conditions\2back-p.xlsx,instructions\2-BACK.png,"(25, 15)",practice,2,3,stim\gray.png,stim\gray.png,stim\yellow.png,stim\gray.png,left,0,0,0,0,0,2,2,2,0,13,13,13,,,,,,,,,,,,,,,,,,,,,,,,,,,275.1323502000887,276.13516240008175,275.1323502000887,276.13516240008175,275.1323502000887,276.13516240008175,275.1323502000887,276.13516240008175,None,0,,275.1323502000887,None,275.1323502000887,None,275.1323502000887,275.63299250009004,275.1323502000887,275.63299250009004,275.1323502000887,275.63299250009004,275.1323502000887,275.63299250009004,275.1323502000887,None,,,,,,,,,,,,,,,,,,,,,,,,,,,,,,,,,,,,,,,,,,11019,001,2024_Jan_05_0951,nback,2021.2.3,59.87206538626889,
2-back,instructions\back-2.png,conditions\2back-p.xlsx,instructions\2-BACK.png,"(25, 15)",practice,2,1,stim\yellow.png,stim\gray.png,stim\gray.png,stim\gray.png,down,0,0,0,0,0,2,2,2,0,14,14,14,,,,,,,,,,,,,,,,,,,,,,,,,,,276.61803600005805,277.6195300000254,276.61803600005805,277.6195300000254,276.61803600005805,277.6195300000254,276.61803600005805,277.6195300000254,down,1,0.245799700031057,276.61803600005805,None,276.61803600005805,None,276.61803600005805,277.11930950009264,276.61803600005805,277.11930950009264,276.61803600005805,277.11930950009264,276.61803600005805,277.11930950009264,276.61803600005805,None,,,,,,,,,,,,,,,,,,,,,,,,,,,,,,,,,,,,,,,,,,11019,001,2024_Jan_05_0951,nback,2021.2.3,59.87206538626889,
2-back,instructions\back-2.png,conditions\2back-p.xlsx,instructions\2-BACK.png,"(25, 15)",practice,2,2,stim\gray.png,stim\yellow.png,stim\gray.png,stim\gray.png,right,0,0,0,0,0,2,2,2,0,15,15,15,,,,,,,,,,,,,,,,,,,,,,,,,,,278.1201143000508,279.1234681000933,278.1201143000508,279.1234681000933,278.1201143000508,279.1234681000933,278.1201143000508,279.1234681000933,right,1,0.5682661000173539,278.1201143000508,None,278.1201143000508,None,278.1201143000508,278.62089520005975,278.1201143000508,278.62089520005975,278.1201143000508,278.62089520005975,278.1201143000508,278.62089520005975,278.1201143000508,None,,,,,,,,,,,,,,,,,,,,,,,,,,,,,,,,,,,,,,,,,,11019,001,2024_Jan_05_0951,nback,2021.2.3,59.87206538626889,
2-back,instructions\back-2.png,conditions\2back-p.xlsx,instructions\2-BACK.png,"(25, 15)",practice,2,3,stim\gray.png,stim\gray.png,stim\yellow.png,stim\gray.png,up,0,0,0,0,0,2,2,2,0,16,16,16,,,,,,,,,,,,,,,,,,,,,,,,,,,279.622384199989,280.62402730004396,279.622384199989,280.62402730004396,279.622384199989,280.62402730004396,279.622384199989,280.62402730004396,right,0,0.905642700032331,279.622384199989,None,279.622384199989,None,279.622384199989,280.12373570003547,279.622384199989,280.12373570003547,279.622384199989,280.12373570003547,279.622384199989,280.12373570003547,279.622384199989,None,,,,,,,,,,,,,,,,,,,,,,,,,,,,,,,,,,,,,,,,,,11019,001,2024_Jan_05_0951,nback,2021.2.3,59.87206538626889,
2-back,instructions\back-2.png,conditions\2back-p.xlsx,instructions\2-BACK.png,"(25, 15)",practice,2,1,stim\yellow.png,stim\gray.png,stim\gray.png,stim\gray.png,left,0,0,0,0,0,2,2,2,0,17,17,17,,,,,,,,,,,,,,,,,,,,,,,,,,,281.12443379999604,282.12682780006435,281.12443379999604,282.12682780006435,281.12443379999604,282.12682780006435,281.12443379999604,282.12682780006435,up,0,1.0514322000090033,281.12443379999604,None,281.12443379999604,None,281.12443379999604,281.62543690006714,281.12443379999604,281.62543690006714,281.12443379999604,281.62543690006714,281.12443379999604,281.62543690006714,281.12443379999604,None,,,,,,,,,,,,,,,,,,,,,,,,,,,,,,,,,,,,,,,,,,11019,001,2024_Jan_05_0951,nback,2021.2.3,59.87206538626889,
2-back,instructions\back-2.png,conditions\2back-p.xlsx,instructions\2-BACK.png,"(25, 15)",practice,2,4,stim\gray.png,stim\gray.png,stim\gray.png,stim\yellow.png,right,0,0,0,0,0,2,2,2,0,18,18,18,,,,,,,,,,,,,,,,,,,,,,,,,,,282.626750000054,283.6282075000927,282.626750000054,283.6282075000927,282.626750000054,283.6282075000927,282.626750000054,283.6282075000927,None,0,,282.626750000054,None,282.626750000054,None,282.626750000054,283.12763920007274,282.626750000054,283.12763920007274,282.626750000054,283.12763920007274,282.626750000054,283.12763920007274,282.626750000054,None,,,,,,,,,,,,,,,,,,,,,,,,,,,,,,,,,,,,,,,,,,11019,001,2024_Jan_05_0951,nback,2021.2.3,59.87206538626889,
2-back,instructions\back-2.png,conditions\2back-p.xlsx,instructions\2-BACK.png,"(25, 15)",practice,2,2,stim\gray.png,stim\yellow.png,stim\gray.png,stim\gray.png,up,0,0,0,0,0,2,2,2,0,19,19,19,,,,,,,,,,,,,,,,,,,,,,,,,,,284.1294274000684,285.1304361000657,284.1294274000684,285.1304361000657,284.1294274000684,285.1304361000657,284.1294274000684,285.1304361000657,down,0,0.2066792999394238,284.1294274000684,None,284.1294274000684,None,284.1294274000684,284.63088800001424,284.1294274000684,284.63088800001424,284.1294274000684,284.63088800001424,284.1294274000684,284.63088800001424,284.1294274000684,None,,,,,,,,,,,,,,,,,,,,,,,,,,,,,,,,,,,,,,,,,,11019,001,2024_Jan_05_0951,nback,2021.2.3,59.87206538626889,
2-back,instructions\back-2.png,conditions\2back-p.xlsx,instructions\2-BACK.png,"(25, 15)",,,,,,,,,0,0,0,0,0,2,2,2,,,,,,,,,,,,,,,,,,,,,,,,,,,,,,,,,,,,,,,,,,,,,,,,,,,,,,,,,,,,,,,,,,,,,,,,,,,,,,,,,,,,,,,,,,,,,,,,,11019,001,2024_Jan_05_0951,nback,2021.2.3,59.87206538626889,
,,,,,,,,,,,,,0,0,0,0,,,,,,,,,,,,,,,,,,,,,,,,,,,,,,,,,,,,,,,,,,,,,,,,,,,,,,,,,,,,285.63168099999893,None,s,12.928144999896176,285.63168099999893,None,,,,,,,,,,,,,,,,,,,,,,,,,,,,,,,,,,,,11019,001,2024_Jan_05_0951,nback,2021.2.3,59.87206538626889,
0-back,instructions\back-0.png,conditions\0back-p.xlsx,instructions\0-BACK.png,"(15, 8)",practice,0,1,stim\yellow.png,stim\gray.png,stim\gray.png,stim\gray.png,up,1,0,1,0,0,0,0,0,0,0,0,0,,,,,,,,,,,,,,,,,298.701026200084,None,space,2.0038623999571428,298.701026200084,None,300.85531490005087,305.3606584999943,305.3122312000487,None,305.74496560008265,306.74616239999887,305.74496560008265,306.74616239999887,305.74496560008265,306.74616239999887,305.74496560008265,306.74616239999887,up,1,0.5669371000258252,305.74496560008265,None,305.74496560008265,None,305.74496560008265,306.24503340001684,305.74496560008265,306.24503340001684,305.74496560008265,306.24503340001684,305.74496560008265,306.24503340001684,305.74496560008265,None,,,,,,,,,,,,,,,,,,,,,,,,,,,,,,,,,,,,,,,,,,11019,001,2024_Jan_05_0951,nback,2021.2.3,59.87206538626889,
0-back,instructions\back-0.png,conditions\0back-p.xlsx,instructions\0-BACK.png,"(15, 8)",practice,0,2,stim\gray.png,stim\yellow.png,stim\gray.png,stim\gray.png,left,1,0,1,0,0,0,0,0,0,1,1,1,,,,,,,,,,,,,,,,,,,,,,,,,,,307.22988910006825,308.23195550008677,307.22988910006825,308.23195550008677,307.22988910006825,308.23195550008677,307.22988910006825,308.23195550008677,left,1,0.4980680999578908,307.22988910006825,None,307.22988910006825,None,307.22988910006825,307.73047690000385,307.22988910006825,307.73047690000385,307.22988910006825,307.73047690000385,307.22988910006825,307.73047690000385,307.22988910006825,None,,,,,,,,,,,,,,,,,,,,,,,,,,,,,,,,,,,,,,,,,,11019,001,2024_Jan_05_0951,nback,2021.2.3,59.87206538626889,
0-back,instructions\back-0.png,conditions\0back-p.xlsx,instructions\0-BACK.png,"(15, 8)",practice,0,3,stim\gray.png,stim\gray.png,stim\yellow.png,stim\gray.png,right,1,0,1,0,0,0,0,0,0,2,2,2,,,,,,,,,,,,,,,,,,,,,,,,,,,308.73218190006446,309.73361210001167,308.73218190006446,309.73361210001167,308.73218190006446,309.73361210001167,308.73218190006446,309.73361210001167,right,1,0.3398807999910787,308.73218190006446,None,308.73218190006446,None,308.73218190006446,309.2327914000489,308.73218190006446,309.2327914000489,308.73218190006446,309.2327914000489,308.73218190006446,309.2327914000489,308.73218190006446,None,,,,,,,,,,,,,,,,,,,,,,,,,,,,,,,,,,,,,,,,,,11019,001,2024_Jan_05_0951,nback,2021.2.3,59.87206538626889,
0-back,instructions\back-0.png,conditions\0back-p.xlsx,instructions\0-BACK.png,"(15, 8)",practice,0,4,stim\gray.png,stim\gray.png,stim\gray.png,stim\yellow.png,down,1,0,1,0,0,0,0,0,0,3,3,3,,,,,,,,,,,,,,,,,,,,,,,,,,,310.23441320005804,311.23598940006923,310.23441320005804,311.23598940006923,310.23441320005804,311.23598940006923,310.23441320005804,311.23598940006923,down,1,0.43741350003983825,310.23441320005804,None,310.23441320005804,None,310.23441320005804,310.73649210005533,310.23441320005804,310.73649210005533,310.23441320005804,310.73649210005533,310.23441320005804,310.73649210005533,310.23441320005804,None,,,,,,,,,,,,,,,,,,,,,,,,,,,,,,,,,,,,,,,,,,11019,001,2024_Jan_05_0951,nback,2021.2.3,59.87206538626889,
0-back,instructions\back-0.png,conditions\0back-p.xlsx,instructions\0-BACK.png,"(15, 8)",practice,0,2,stim\gray.png,stim\yellow.png,stim\gray.png,stim\gray.png,left,1,0,1,0,0,0,0,0,0,4,4,4,,,,,,,,,,,,,,,,,,,,,,,,,,,311.7364753000438,312.73810519999824,311.7364753000438,312.73810519999824,311.7364753000438,312.73810519999824,311.7364753000438,312.73810519999824,left,1,0.5754381000297144,311.7364753000438,None,311.7364753000438,None,311.7364753000438,312.23837380006444,311.7364753000438,312.23837380006444,311.7364753000438,312.23837380006444,311.7364753000438,312.23837380006444,311.7364753000438,None,,,,,,,,,,,,,,,,,,,,,,,,,,,,,,,,,,,,,,,,,,11019,001,2024_Jan_05_0951,nback,2021.2.3,59.87206538626889,
0-back,instructions\back-0.png,conditions\0back-p.xlsx,instructions\0-BACK.png,"(15, 8)",practice,0,1,stim\yellow.png,stim\gray.png,stim\gray.png,stim\gray.png,up,1,0,1,0,0,0,0,0,0,5,5,5,,,,,,,,,,,,,,,,,,,,,,,,,,,313.23882470000535,314.2409468999831,313.23882470000535,314.2409468999831,313.23882470000535,314.2409468999831,313.23882470000535,314.2409468999831,up,1,0.40146339999046177,313.23882470000535,None,313.23882470000535,None,313.23882470000535,313.7396815000102,313.23882470000535,313.7396815000102,313.23882470000535,313.7396815000102,313.23882470000535,313.7396815000102,313.23882470000535,None,,,,,,,,,,,,,,,,,,,,,,,,,,,,,,,,,,,,,,,,,,11019,001,2024_Jan_05_0951,nback,2021.2.3,59.87206538626889,
0-back,instructions\back-0.png,conditions\0back-p.xlsx,instructions\0-BACK.png,"(15, 8)",practice,0,4,stim\gray.png,stim\gray.png,stim\gray.png,stim\yellow.png,down,1,0,1,0,0,0,0,0,0,6,6,6,,,,,,,,,,,,,,,,,,,,,,,,,,,314.74108030006755,315.7426242000656,314.74108030006755,315.7426242000656,314.74108030006755,315.7426242000656,314.74108030006755,315.7426242000656,left,0,0.36320689995773137,314.74108030006755,None,314.74108030006755,None,314.74108030006755,315.2418361000018,314.74108030006755,315.2418361000018,314.74108030006755,315.2418361000018,314.74108030006755,315.2418361000018,314.74108030006755,None,,,,,,,,,,,,,,,,,,,,,,,,,,,,,,,,,,,,,,,,,,11019,001,2024_Jan_05_0951,nback,2021.2.3,59.87206538626889,
0-back,instructions\back-0.png,conditions\0back-p.xlsx,instructions\0-BACK.png,"(15, 8)",practice,0,3,stim\gray.png,stim\gray.png,stim\yellow.png,stim\gray.png,right,1,0,1,0,0,0,0,0,0,7,7,7,,,,,,,,,,,,,,,,,,,,,,,,,,,316.22680499998387,317.22876460000407,316.22680499998387,317.22876460000407,316.22680499998387,317.22876460000407,316.22680499998387,317.22876460000407,right,1,0.4291681998874992,316.22680499998387,None,316.22680499998387,None,316.22680499998387,316.72866950009484,316.22680499998387,316.72866950009484,316.22680499998387,316.72866950009484,316.22680499998387,316.72866950009484,316.22680499998387,None,,,,,,,,,,,,,,,,,,,,,,,,,,,,,,,,,,,,,,,,,,11019,001,2024_Jan_05_0951,nback,2021.2.3,59.87206538626889,
0-back,instructions\back-0.png,conditions\0back-p.xlsx,instructions\0-BACK.png,"(15, 8)",practice,0,3,stim\gray.png,stim\gray.png,stim\yellow.png,stim\gray.png,right,1,0,1,0,0,0,0,0,0,8,8,8,,,,,,,,,,,,,,,,,,,,,,,,,,,317.7289115000749,318.73024230008014,317.7289115000749,318.73024230008014,317.7289115000749,318.73024230008014,317.7289115000749,318.73024230008014,right,1,0.4471769999945536,317.7289115000749,None,317.7289115000749,None,317.7289115000749,318.2298329999903,317.7289115000749,318.2298329999903,317.7289115000749,318.2298329999903,317.7289115000749,318.2298329999903,317.7289115000749,None,,,,,,,,,,,,,,,,,,,,,,,,,,,,,,,,,,,,,,,,,,11019,001,2024_Jan_05_0951,nback,2021.2.3,59.87206538626889,
0-back,instructions\back-0.png,conditions\0back-p.xlsx,instructions\0-BACK.png,"(15, 8)",practice,0,4,stim\gray.png,stim\gray.png,stim\gray.png,stim\yellow.png,down,1,0,1,0,0,0,0,0,0,9,9,9,,,,,,,,,,,,,,,,,,,,,,,,,,,319.2308843000792,320.23307660000864,319.2308843000792,320.23307660000864,319.2308843000792,320.23307660000864,319.2308843000792,320.23307660000864,down,1,0.7369110999861732,319.2308843000792,None,319.2308843000792,None,319.2308843000792,319.73213670006953,319.2308843000792,319.73213670006953,319.2308843000792,319.73213670006953,319.2308843000792,319.73213670006953,319.2308843000792,None,,,,,,,,,,,,,,,,,,,,,,,,,,,,,,,,,,,,,,,,,,11019,001,2024_Jan_05_0951,nback,2021.2.3,59.87206538626889,
0-back,instructions\back-0.png,conditions\0back-p.xlsx,instructions\0-BACK.png,"(15, 8)",practice,0,1,stim\yellow.png,stim\gray.png,stim\gray.png,stim\gray.png,up,1,0,1,0,0,0,0,0,0,10,10,10,,,,,,,,,,,,,,,,,,,,,,,,,,,320.7334491000511,321.73516370006837,320.7334491000511,321.73516370006837,320.7334491000511,321.73516370006837,320.7334491000511,321.73516370006837,up,1,0.6746292000170797,320.7334491000511,None,320.7334491000511,None,320.7334491000511,321.2343150000088,320.7334491000511,321.2343150000088,320.7334491000511,321.2343150000088,320.7334491000511,321.2343150000088,320.7334491000511,None,,,,,,,,,,,,,,,,,,,,,,,,,,,,,,,,,,,,,,,,,,11019,001,2024_Jan_05_0951,nback,2021.2.3,59.87206538626889,
0-back,instructions\back-0.png,conditions\0back-p.xlsx,instructions\0-BACK.png,"(15, 8)",practice,0,2,stim\gray.png,stim\yellow.png,stim\gray.png,stim\gray.png,left,1,0,1,0,0,0,0,0,0,11,11,11,,,,,,,,,,,,,,,,,,,,,,,,,,,322.2354642000282,323.23727859999053,322.2354642000282,323.23727859999053,322.2354642000282,323.23727859999053,322.2354642000282,323.23727859999053,left,1,0.4529634000500664,322.2354642000282,None,322.2354642000282,None,322.2354642000282,322.736833400093,322.2354642000282,322.736833400093,322.2354642000282,322.736833400093,322.2354642000282,322.736833400093,322.2354642000282,None,,,,,,,,,,,,,,,,,,,,,,,,,,,,,,,,,,,,,,,,,,11019,001,2024_Jan_05_0951,nback,2021.2.3,59.87206538626889,
0-back,instructions\back-0.png,conditions\0back-p.xlsx,instructions\0-BACK.png,"(15, 8)",practice,0,4,stim\gray.png,stim\gray.png,stim\gray.png,stim\yellow.png,down,1,0,1,0,0,0,0,0,0,12,12,12,,,,,,,,,,,,,,,,,,,,,,,,,,,323.7377418000251,324.7396740000695,323.7377418000251,324.7396740000695,323.7377418000251,324.7396740000695,323.7377418000251,324.7396740000695,down,1,0.9262062000343576,323.7377418000251,None,323.7377418000251,None,323.7377418000251,324.2386412000051,323.7377418000251,324.2386412000051,323.7377418000251,324.2386412000051,323.7377418000251,324.2386412000051,323.7377418000251,None,,,,,,,,,,,,,,,,,,,,,,,,,,,,,,,,,,,,,,,,,,11019,001,2024_Jan_05_0951,nback,2021.2.3,59.87206538626889,
0-back,instructions\back-0.png,conditions\0back-p.xlsx,instructions\0-BACK.png,"(15, 8)",practice,0,3,stim\gray.png,stim\gray.png,stim\yellow.png,stim\gray.png,right,1,0,1,0,0,0,0,0,0,13,13,13,,,,,,,,,,,,,,,,,,,,,,,,,,,325.2406046000542,326.2412758000428,325.2406046000542,326.2412758000428,325.2406046000542,326.2412758000428,325.2406046000542,326.2412758000428,right,1,0.6872049999656156,325.2406046000542,None,325.2406046000542,None,325.2406046000542,325.74078590003774,325.2406046000542,325.74078590003774,325.2406046000542,325.74078590003774,325.2406046000542,325.74078590003774,325.2406046000542,None,,,,,,,,,,,,,,,,,,,,,,,,,,,,,,,,,,,,,,,,,,11019,001,2024_Jan_05_0951,nback,2021.2.3,59.87206538626889,
0-back,instructions\back-0.png,conditions\0back-p.xlsx,instructions\0-BACK.png,"(15, 8)",practice,0,1,stim\yellow.png,stim\gray.png,stim\gray.png,stim\gray.png,up,1,0,1,0,0,0,0,0,0,14,14,14,,,,,,,,,,,,,,,,,,,,,,,,,,,326.7255348000908,327.72682370000985,326.7255348000908,327.72682370000985,326.7255348000908,327.72682370000985,326.7255348000908,327.72682370000985,up,1,0.5304301999276504,326.7255348000908,None,326.7255348000908,None,326.7255348000908,327.22620040003676,326.7255348000908,327.22620040003676,326.7255348000908,327.22620040003676,326.7255348000908,327.22620040003676,326.7255348000908,None,,,,,,,,,,,,,,,,,,,,,,,,,,,,,,,,,,,,,,,,,,11019,001,2024_Jan_05_0951,nback,2021.2.3,59.87206538626889,
0-back,instructions\back-0.png,conditions\0back-p.xlsx,instructions\0-BACK.png,"(15, 8)",practice,0,2,stim\gray.png,stim\yellow.png,stim\gray.png,stim\gray.png,left,1,0,1,0,0,0,0,0,0,15,15,15,,,,,,,,,,,,,,,,,,,,,,,,,,,328.2277733000228,329.2291239000624,328.2277733000228,329.2291239000624,328.2277733000228,329.2291239000624,328.2277733000228,329.2291239000624,left,1,0.4200611000414938,328.2277733000228,None,328.2277733000228,None,328.2277733000228,328.7284750000108,328.2277733000228,328.7284750000108,328.2277733000228,328.7284750000108,328.2277733000228,328.7284750000108,328.2277733000228,None,,,,,,,,,,,,,,,,,,,,,,,,,,,,,,,,,,,,,,,,,,11019,001,2024_Jan_05_0951,nback,2021.2.3,59.87206538626889,
0-back,instructions\back-0.png,conditions\0back-p.xlsx,instructions\0-BACK.png,"(15, 8)",practice,0,3,stim\gray.png,stim\gray.png,stim\yellow.png,stim\gray.png,right,1,0,1,0,0,0,0,0,0,16,16,16,,,,,,,,,,,,,,,,,,,,,,,,,,,329.72985290002543,330.7313940000022,329.72985290002543,330.7313940000022,329.72985290002543,330.7313940000022,329.72985290002543,330.7313940000022,right,1,0.43036170001141727,329.72985290002543,None,329.72985290002543,None,329.72985290002543,330.2306504000444,329.72985290002543,330.2306504000444,329.72985290002543,330.2306504000444,329.72985290002543,330.2306504000444,329.72985290002543,None,,,,,,,,,,,,,,,,,,,,,,,,,,,,,,,,,,,,,,,,,,11019,001,2024_Jan_05_0951,nback,2021.2.3,59.87206538626889,
0-back,instructions\back-0.png,conditions\0back-p.xlsx,instructions\0-BACK.png,"(15, 8)",practice,0,1,stim\yellow.png,stim\gray.png,stim\gray.png,stim\gray.png,up,1,0,1,0,0,0,0,0,0,17,17,17,,,,,,,,,,,,,,,,,,,,,,,,,,,331.23231310001574,332.2346849000314,331.23231310001574,332.2346849000314,331.23231310001574,332.2346849000314,331.23231310001574,332.2346849000314,up,1,0.48767469997983426,331.23231310001574,None,331.23231310001574,None,331.23231310001574,331.73317130003124,331.23231310001574,331.73317130003124,331.23231310001574,331.73317130003124,331.23231310001574,331.73317130003124,331.23231310001574,None,,,,,,,,,,,,,,,,,,,,,,,,,,,,,,,,,,,,,,,,,,11019,001,2024_Jan_05_0951,nback,2021.2.3,59.87206538626889,
0-back,instructions\back-0.png,conditions\0back-p.xlsx,instructions\0-BACK.png,"(15, 8)",practice,0,4,stim\gray.png,stim\gray.png,stim\gray.png,stim\yellow.png,down,1,0,1,0,0,0,0,0,0,18,18,18,,,,,,,,,,,,,,,,,,,,,,,,,,,332.734372899984,333.7360008000396,332.734372899984,333.7360008000396,332.734372899984,333.7360008000396,332.734372899984,333.7360008000396,down,1,0.3615004000021145,332.734372899984,None,332.734372899984,None,332.734372899984,333.23494590003975,332.734372899984,333.23494590003975,332.734372899984,333.23494590003975,332.734372899984,333.23494590003975,332.734372899984,None,,,,,,,,,,,,,,,,,,,,,,,,,,,,,,,,,,,,,,,,,,11019,001,2024_Jan_05_0951,nback,2021.2.3,59.87206538626889,
0-back,instructions\back-0.png,conditions\0back-p.xlsx,instructions\0-BACK.png,"(15, 8)",practice,0,2,stim\gray.png,stim\yellow.png,stim\gray.png,stim\gray.png,left,1,0,1,0,0,0,0,0,0,19,19,19,,,,,,,,,,,,,,,,,,,,,,,,,,,334.237145000021,335.2383001000853,334.237145000021,335.2383001000853,334.237145000021,335.2383001000853,334.237145000021,335.2383001000853,left,1,0.5388833000324667,334.237145000021,None,334.237145000021,None,334.237145000021,334.7373835000908,334.237145000021,334.7373835000908,334.237145000021,334.7373835000908,334.237145000021,334.7373835000908,334.237145000021,None,,,,,,,,,,,,,,,,,,,,,,,,,,,,,,,,,,,,,,,,,,11019,001,2024_Jan_05_0951,nback,2021.2.3,59.87206538626889,
0-back,instructions\back-0.png,conditions\0back-p.xlsx,instructions\0-BACK.png,"(15, 8)",,,,,,,,,1,0,1,0,0,0,0,0,,,,,,,,,,,,,,,,,,,,,,,,,,,,,,,,,,,,,,,,,,,,,,,,,,,,,,,,,,,,,,,,,,,,,,,,,,,,,,,,,,,,,,,,,,,,,,,,,11019,001,2024_Jan_05_0951,nback,2021.2.3,59.87206538626889,
1-back,instructions\back-1.png,conditions\1back-p.xlsx,instructions\1-BACK.png,"(25, 15)",practice,1,1,stim\yellow.png,stim\gray.png,stim\gray.png,stim\gray.png,None,1,0,1,0,0,1,1,1,0,0,0,0,,,,,,,,,,,,,,,,,335.8557199999923,None,space,3.752016399987042,335.8557199999923,None,339.72797300003003,344.23523069999646,344.21940880001057,None,344.6525212000124,345.65359640005045,344.6525212000124,345.65359640005045,344.6525212000124,345.65359640005045,344.6525212000124,345.65359640005045,None,1,,344.6525212000124,None,344.6525212000124,None,344.6525212000124,345.1540121000726,344.6525212000124,345.1540121000726,344.6525212000124,345.1540121000726,344.6525212000124,345.1540121000726,344.6525212000124,None,,,,,,,,,,,,,,,,,,,,,,,,,,,,,,,,,,,,,,,,,,11019,001,2024_Jan_05_0951,nback,2021.2.3,59.87206538626889,
1-back,instructions\back-1.png,conditions\1back-p.xlsx,instructions\1-BACK.png,"(25, 15)",practice,1,2,stim\gray.png,stim\yellow.png,stim\gray.png,stim\gray.png,up,1,0,1,0,0,1,1,1,0,1,1,1,,,,,,,,,,,,,,,,,,,,,,,,,,,346.1379443000769,347.1388037999859,346.1379443000769,347.1388037999859,346.1379443000769,347.1388037999859,346.1379443000769,347.1388037999859,up,1,0.501991199911572,346.1379443000769,None,346.1379443000769,None,346.1379443000769,346.6383278000867,346.1379443000769,346.6383278000867,346.1379443000769,346.6383278000867,346.1379443000769,346.6383278000867,346.1379443000769,None,,,,,,,,,,,,,,,,,,,,,,,,,,,,,,,,,,,,,,,,,,11019,001,2024_Jan_05_0951,nback,2021.2.3,59.87206538626889,
1-back,instructions\back-1.png,conditions\1back-p.xlsx,instructions\1-BACK.png,"(25, 15)",practice,1,3,stim\gray.png,stim\gray.png,stim\yellow.png,stim\gray.png,left,1,0,1,0,0,1,1,1,0,2,2,2,,,,,,,,,,,,,,,,,,,,,,,,,,,347.63984100008383,348.6415218000766,347.63984100008383,348.6415218000766,347.63984100008383,348.6415218000766,347.63984100008383,348.6415218000766,right,0,1.3439745999639854,347.63984100008383,None,347.63984100008383,None,347.63984100008383,348.1413054000586,347.63984100008383,348.1413054000586,347.63984100008383,348.1413054000586,347.63984100008383,348.1413054000586,347.63984100008383,None,,,,,,,,,,,,,,,,,,,,,,,,,,,,,,,,,,,,,,,,,,11019,001,2024_Jan_05_0951,nback,2021.2.3,59.87206538626889,
1-back,instructions\back-1.png,conditions\1back-p.xlsx,instructions\1-BACK.png,"(25, 15)",practice,1,4,stim\gray.png,stim\gray.png,stim\gray.png,stim\yellow.png,right,1,0,1,0,0,1,1,1,0,3,3,3,,,,,,,,,,,,,,,,,,,,,,,,,,,349.1418555000564,350.1443681999808,349.1418555000564,350.1443681999808,349.1418555000564,350.1443681999808,349.1418555000564,350.1443681999808,down,0,0.9541127999546006,349.1418555000564,None,349.1418555000564,None,349.1418555000564,349.6431396000553,349.1418555000564,349.6431396000553,349.1418555000564,349.6431396000553,349.1418555000564,349.6431396000553,349.1418555000564,None,,,,,,,,,,,,,,,,,,,,,,,,,,,,,,,,,,,,,,,,,,11019,001,2024_Jan_05_0951,nback,2021.2.3,59.87206538626889,
1-back,instructions\back-1.png,conditions\1back-p.xlsx,instructions\1-BACK.png,"(25, 15)",practice,1,2,stim\gray.png,stim\yellow.png,stim\gray.png,stim\gray.png,down,1,0,1,0,0,1,1,1,0,4,4,4,,,,,,,,,,,,,,,,,,,,,,,,,,,350.64445640007034,351.6464938999852,350.64445640007034,351.6464938999852,350.64445640007034,351.6464938999852,350.64445640007034,351.6464938999852,left,0,0.8679920999566093,350.64445640007034,None,350.64445640007034,None,350.64445640007034,351.14492750004865,350.64445640007034,351.14492750004865,350.64445640007034,351.14492750004865,350.64445640007034,351.14492750004865,350.64445640007034,None,,,,,,,,,,,,,,,,,,,,,,,,,,,,,,,,,,,,,,,,,,11019,001,2024_Jan_05_0951,nback,2021.2.3,59.87206538626889,
1-back,instructions\back-1.png,conditions\1back-p.xlsx,instructions\1-BACK.png,"(25, 15)",practice,1,1,stim\yellow.png,stim\gray.png,stim\gray.png,stim\gray.png,left,1,0,1,0,0,1,1,1,0,5,5,5,,,,,,,,,,,,,,,,,,,,,,,,,,,352.1464735000627,353.1487340000458,352.1464735000627,353.1487340000458,352.1464735000627,353.1487340000458,352.1464735000627,353.1487340000458,up,0,0.48572889994829893,352.1464735000627,None,352.1464735000627,None,352.1464735000627,352.64795230003074,352.1464735000627,352.64795230003074,352.1464735000627,352.64795230003074,352.1464735000627,352.64795230003074,352.1464735000627,None,,,,,,,,,,,,,,,,,,,,,,,,,,,,,,,,,,,,,,,,,,11019,001,2024_Jan_05_0951,nback,2021.2.3,59.87206538626889,
1-back,instructions\back-1.png,conditions\1back-p.xlsx,instructions\1-BACK.png,"(25, 15)",practice,1,4,stim\gray.png,stim\gray.png,stim\gray.png,stim\yellow.png,up,1,0,1,0,0,1,1,1,0,6,6,6,,,,,,,,,,,,,,,,,,,,,,,,,,,353.631954099983,354.6341222000774,353.631954099983,354.6341222000774,353.631954099983,354.6341222000774,353.631954099983,354.6341222000774,up,1,0.8486492000520229,353.631954099983,None,353.631954099983,None,353.631954099983,354.1326737999916,353.631954099983,354.1326737999916,353.631954099983,354.1326737999916,353.631954099983,354.1326737999916,353.631954099983,None,,,,,,,,,,,,,,,,,,,,,,,,,,,,,,,,,,,,,,,,,,11019,001,2024_Jan_05_0951,nback,2021.2.3,59.87206538626889,
1-back,instructions\back-1.png,conditions\1back-p.xlsx,instructions\1-BACK.png,"(25, 15)",practice,1,3,stim\gray.png,stim\gray.png,stim\yellow.png,stim\gray.png,down,1,0,1,0,0,1,1,1,0,7,7,7,,,,,,,,,,,,,,,,,,,,,,,,,,,355.1341905000154,356.1357366000302,355.1341905000154,356.1357366000302,355.1341905000154,356.1357366000302,355.1341905000154,356.1357366000302,down,1,1.0505354000488296,355.1341905000154,None,355.1341905000154,None,355.1341905000154,355.6353320000926,355.1341905000154,355.6353320000926,355.1341905000154,355.6353320000926,355.1341905000154,355.6353320000926,355.1341905000154,None,,,,,,,,,,,,,,,,,,,,,,,,,,,,,,,,,,,,,,,,,,11019,001,2024_Jan_05_0951,nback,2021.2.3,59.87206538626889,
1-back,instructions\back-1.png,conditions\1back-p.xlsx,instructions\1-BACK.png,"(25, 15)",practice,1,3,stim\gray.png,stim\gray.png,stim\yellow.png,stim\gray.png,right,1,0,1,0,0,1,1,1,0,8,8,8,,,,,,,,,,,,,,,,,,,,,,,,,,,356.636540699983,357.63799780001864,356.636540699983,357.63799780001864,356.636540699983,357.63799780001864,356.636540699983,357.63799780001864,right,1,0.6914202999323606,356.636540699983,None,356.636540699983,None,356.636540699983,357.13694290001877,356.636540699983,357.13694290001877,356.636540699983,357.13694290001877,356.636540699983,357.13694290001877,356.636540699983,None,,,,,,,,,,,,,,,,,,,,,,,,,,,,,,,,,,,,,,,,,,11019,001,2024_Jan_05_0951,nback,2021.2.3,59.87206538626889,
1-back,instructions\back-1.png,conditions\1back-p.xlsx,instructions\1-BACK.png,"(25, 15)",practice,1,4,stim\gray.png,stim\gray.png,stim\gray.png,stim\yellow.png,right,1,0,1,0,0,1,1,1,0,9,9,9,,,,,,,,,,,,,,,,,,,,,,,,,,,358.1384979999857,359.1404928000411,358.1384979999857,359.1404928000411,358.1384979999857,359.1404928000411,358.1384979999857,359.1404928000411,None,0,,358.1384979999857,None,358.1384979999857,None,358.1384979999857,358.639842600096,358.1384979999857,358.639842600096,358.1384979999857,358.639842600096,358.1384979999857,358.639842600096,358.1384979999857,None,,,,,,,,,,,,,,,,,,,,,,,,,,,,,,,,,,,,,,,,,,11019,001,2024_Jan_05_0951,nback,2021.2.3,59.87206538626889,
1-back,instructions\back-1.png,conditions\1back-p.xlsx,instructions\1-BACK.png,"(25, 15)",practice,1,1,stim\yellow.png,stim\gray.png,stim\gray.png,stim\gray.png,down,1,0,1,0,0,1,1,1,0,10,10,10,,,,,,,,,,,,,,,,,,,,,,,,,,,359.6409360000398,360.64319350000005,359.6409360000398,360.64319350000005,359.6409360000398,360.64319350000005,359.6409360000398,360.64319350000005,up,0,0.9430864000460133,359.6409360000398,None,359.6409360000398,None,359.6409360000398,360.1416203000117,359.6409360000398,360.1416203000117,359.6409360000398,360.1416203000117,359.6409360000398,360.1416203000117,359.6409360000398,None,,,,,,,,,,,,,,,,,,,,,,,,,,,,,,,,,,,,,,,,,,11019,001,2024_Jan_05_0951,nback,2021.2.3,59.87206538626889,
1-back,instructions\back-1.png,conditions\1back-p.xlsx,instructions\1-BACK.png,"(25, 15)",practice,1,2,stim\gray.png,stim\yellow.png,stim\gray.png,stim\gray.png,up,1,0,1,0,0,1,1,1,0,11,11,11,,,,,,,,,,,,,,,,,,,,,,,,,,,361.1431789000053,362.1453525000252,361.1431789000053,362.1453525000252,361.1431789000053,362.1453525000252,361.1431789000053,362.1453525000252,up,1,0.657284100074321,361.1431789000053,None,361.1431789000053,None,361.1431789000053,361.6437703000847,361.1431789000053,361.6437703000847,361.1431789000053,361.6437703000847,361.1431789000053,361.6437703000847,361.1431789000053,None,,,,,,,,,,,,,,,,,,,,,,,,,,,,,,,,,,,,,,,,,,11019,001,2024_Jan_05_0951,nback,2021.2.3,59.87206538626889,
1-back,instructions\back-1.png,conditions\1back-p.xlsx,instructions\1-BACK.png,"(25, 15)",practice,1,4,stim\gray.png,stim\gray.png,stim\gray.png,stim\yellow.png,left,1,0,1,0,0,1,1,1,0,12,12,12,,,,,,,,,,,,,,,,,,,,,,,,,,,362.64600150007755,363.64639790006913,362.64600150007755,363.64639790006913,362.64600150007755,363.64639790006913,362.64600150007755,363.64639790006913,down,0,1.1859525999752805,362.64600150007755,None,362.64600150007755,None,362.64600150007755,363.14608940004837,362.64600150007755,363.14608940004837,362.64600150007755,363.14608940004837,362.64600150007755,363.14608940004837,362.64600150007755,None,,,,,,,,,,,,,,,,,,,,,,,,,,,,,,,,,,,,,,,,,,11019,001,2024_Jan_05_0951,nback,2021.2.3,59.87206538626889,
1-back,instructions\back-1.png,conditions\1back-p.xlsx,instructions\1-BACK.png,"(25, 15)",practice,1,3,stim\gray.png,stim\gray.png,stim\yellow.png,stim\gray.png,down,1,0,1,0,0,1,1,1,0,13,13,13,,,,,,,,,,,,,,,,,,,,,,,,,,,364.1476306000259,365.1498647000408,364.1476306000259,365.1498647000408,364.1476306000259,365.1498647000408,364.1476306000259,365.1498647000408,right,0,0.6848490999545902,364.1476306000259,None,364.1476306000259,None,364.1476306000259,364.6499644999858,364.1476306000259,364.6499644999858,364.1476306000259,364.6499644999858,364.1476306000259,364.6499644999858,364.1476306000259,None,,,,,,,,,,,,,,,,,,,,,,,,,,,,,,,,,,,,,,,,,,11019,001,2024_Jan_05_0951,nback,2021.2.3,59.87206538626889,
1-back,instructions\back-1.png,conditions\1back-p.xlsx,instructions\1-BACK.png,"(25, 15)",practice,1,1,stim\yellow.png,stim\gray.png,stim\gray.png,stim\gray.png,right,1,0,1,0,0,1,1,1,0,14,14,14,,,,,,,,,,,,,,,,,,,,,,,,,,,365.633166500018,366.63456030003726,365.633166500018,366.63456030003726,365.633166500018,366.63456030003726,365.633166500018,366.63456030003726,None,0,,365.633166500018,None,365.633166500018,None,365.633166500018,366.13375080004334,365.633166500018,366.13375080004334,365.633166500018,366.13375080004334,365.633166500018,366.13375080004334,365.633166500018,None,,,,,,,,,,,,,,,,,,,,,,,,,,,,,,,,,,,,,,,,,,11019,001,2024_Jan_05_0951,nback,2021.2.3,59.87206538626889,
1-back,instructions\back-1.png,conditions\1back-p.xlsx,instructions\1-BACK.png,"(25, 15)",practice,1,2,stim\gray.png,stim\yellow.png,stim\gray.png,stim\gray.png,up,1,0,1,0,0,1,1,1,0,15,15,15,,,,,,,,,,,,,,,,,,,,,,,,,,,367.1351815999951,368.13706059998367,367.1351815999951,368.13706059998367,367.1351815999951,368.13706059998367,367.1351815999951,368.13706059998367,up,1,0.9926730000879616,367.1351815999951,None,367.1351815999951,None,367.1351815999951,367.63616080000065,367.1351815999951,367.63616080000065,367.1351815999951,367.63616080000065,367.1351815999951,367.63616080000065,367.1351815999951,None,,,,,,,,,,,,,,,,,,,,,,,,,,,,,,,,,,,,,,,,,,11019,001,2024_Jan_05_0951,nback,2021.2.3,59.87206538626889,
1-back,instructions\back-1.png,conditions\1back-p.xlsx,instructions\1-BACK.png,"(25, 15)",practice,1,3,stim\gray.png,stim\gray.png,stim\yellow.png,stim\gray.png,left,1,0,1,0,0,1,1,1,0,16,16,16,,,,,,,,,,,,,,,,,,,,,,,,,,,368.63770249998197,369.63968680007383,368.63770249998197,369.63968680007383,368.63770249998197,369.63968680007383,368.63770249998197,369.63968680007383,left,1,0.4196634000400081,368.63770249998197,None,368.63770249998197,None,368.63770249998197,369.13890380004887,368.63770249998197,369.13890380004887,368.63770249998197,369.13890380004887,368.63770249998197,369.13890380004887,368.63770249998197,None,,,,,,,,,,,,,,,,,,,,,,,,,,,,,,,,,,,,,,,,,,11019,001,2024_Jan_05_0951,nback,2021.2.3,59.87206538626889,
1-back,instructions\back-1.png,conditions\1back-p.xlsx,instructions\1-BACK.png,"(25, 15)",practice,1,1,stim\yellow.png,stim\gray.png,stim\gray.png,stim\gray.png,right,1,0,1,0,0,1,1,1,0,17,17,17,,,,,,,,,,,,,,,,,,,,,,,,,,,370.13950639998075,371.14189319999423,370.13950639998075,371.14189319999423,370.13950639998075,371.14189319999423,370.13950639998075,371.14189319999423,right,1,0.004704199964180589,370.13950639998075,None,370.13950639998075,None,370.13950639998075,370.6405831000302,370.13950639998075,370.6405831000302,370.13950639998075,370.6405831000302,370.13950639998075,370.6405831000302,370.13950639998075,None,,,,,,,,,,,,,,,,,,,,,,,,,,,,,,,,,,,,,,,,,,11019,001,2024_Jan_05_0951,nback,2021.2.3,59.87206538626889,
1-back,instructions\back-1.png,conditions\1back-p.xlsx,instructions\1-BACK.png,"(25, 15)",practice,1,4,stim\gray.png,stim\gray.png,stim\gray.png,stim\yellow.png,up,1,0,1,0,0,1,1,1,0,18,18,18,,,,,,,,,,,,,,,,,,,,,,,,,,,371.6419940000633,372.6433146999916,371.6419940000633,372.6433146999916,371.6419940000633,372.6433146999916,371.6419940000633,372.6433146999916,up,1,0.7901119999587536,371.6419940000633,None,371.6419940000633,None,371.6419940000633,372.14292000001296,371.6419940000633,372.14292000001296,371.6419940000633,372.14292000001296,371.6419940000633,372.14292000001296,371.6419940000633,None,,,,,,,,,,,,,,,,,,,,,,,,,,,,,,,,,,,,,,,,,,11019,001,2024_Jan_05_0951,nback,2021.2.3,59.87206538626889,
1-back,instructions\back-1.png,conditions\1back-p.xlsx,instructions\1-BACK.png,"(25, 15)",practice,1,2,stim\gray.png,stim\yellow.png,stim\gray.png,stim\gray.png,down,1,0,1,0,0,1,1,1,0,19,19,19,,,,,,,,,,,,,,,,,,,,,,,,,,,373.1453520000214,374.1460657999851,373.1453520000214,374.1460657999851,373.1453520000214,374.1460657999851,373.1453520000214,374.1460657999851,left,0,1.1024788999930024,373.1453520000214,None,373.1453520000214,None,373.1453520000214,373.6457693000557,373.1453520000214,373.6457693000557,373.1453520000214,373.6457693000557,373.1453520000214,373.6457693000557,373.1453520000214,None,,,,,,,,,,,,,,,,,,,,,,,,,,,,,,,,,,,,,,,,,,11019,001,2024_Jan_05_0951,nback,2021.2.3,59.87206538626889,
1-back,instructions\back-1.png,conditions\1back-p.xlsx,instructions\1-BACK.png,"(25, 15)",,,,,,,,,1,0,1,0,0,1,1,1,,,,,,,,,,,,,,,,,,,,,,,,,,,,,,,,,,,,,,,,,,,,,,,,,,,,,,,,,,,,,,,,,,,,,,,,,,,,,,,,,,,,,,,,,,,,,,,,,11019,001,2024_Jan_05_0951,nback,2021.2.3,59.87206538626889,
2-back,instructions\back-2.png,conditions\2back-p.xlsx,instructions\2-BACK.png,"(25, 15)",practice,2,1,stim\yellow.png,stim\gray.png,stim\gray.png,stim\gray.png,None,1,0,1,0,0,2,2,2,0,0,0,0,,,,,,,,,,,,,,,,,374.76430360006634,None,space,51.147885099984705,374.76430360006634,None,426.056312300032,430.56335419998504,430.5298309000209,None,430.96367070009,431.96485600003507,430.96367070009,431.96485600003507,430.96367070009,431.96485600003507,430.96367070009,431.96485600003507,None,1,,430.96367070009,None,430.96367070009,None,430.96367070009,431.4648143000668,430.96367070009,431.4648143000668,430.96367070009,431.4648143000668,430.96367070009,431.4648143000668,430.96367070009,None,,,,,,,,,,,,,,,,,,,,,,,,,,,,,,,,,,,,,,,,,,11019,001,2024_Jan_05_0951,nback,2021.2.3,59.87206538626889,
2-back,instructions\back-2.png,conditions\2back-p.xlsx,instructions\2-BACK.png,"(25, 15)",practice,2,2,stim\gray.png,stim\yellow.png,stim\gray.png,stim\gray.png,None,1,0,1,0,0,2,2,2,0,1,1,1,,,,,,,,,,,,,,,,,,,,,,,,,,,432.44871800008696,433.45097850007005,432.44871800008696,433.45097850007005,432.44871800008696,433.45097850007005,432.44871800008696,433.45097850007005,None,1,,432.44871800008696,None,432.44871800008696,None,432.44871800008696,432.9496083999984,432.44871800008696,432.9496083999984,432.44871800008696,432.9496083999984,432.44871800008696,432.9496083999984,432.44871800008696,None,,,,,,,,,,,,,,,,,,,,,,,,,,,,,,,,,,,,,,,,,,11019,001,2024_Jan_05_0951,nback,2021.2.3,59.87206538626889,
2-back,instructions\back-2.png,conditions\2back-p.xlsx,instructions\2-BACK.png,"(25, 15)",practice,2,3,stim\gray.png,stim\gray.png,stim\yellow.png,stim\gray.png,up,1,0,1,0,0,2,2,2,0,2,2,2,,,,,,,,,,,,,,,,,,,,,,,,,,,433.95106390002184,434.95338210009504,433.95106390002184,434.95338210009504,433.95106390002184,434.95338210009504,433.95106390002184,434.95338210009504,right,0,0.9289411000208929,433.95106390002184,None,433.95106390002184,None,433.95106390002184,434.45182010007557,433.95106390002184,434.45182010007557,433.95106390002184,434.45182010007557,433.95106390002184,434.45182010007557,433.95106390002184,None,,,,,,,,,,,,,,,,,,,,,,,,,,,,,,,,,,,,,,,,,,11019,001,2024_Jan_05_0951,nback,2021.2.3,59.87206538626889,
2-back,instructions\back-2.png,conditions\2back-p.xlsx,instructions\2-BACK.png,"(25, 15)",practice,2,4,stim\gray.png,stim\gray.png,stim\gray.png,stim\yellow.png,left,1,0,1,0,0,2,2,2,0,3,3,3,,,,,,,,,,,,,,,,,,,,,,,,,,,435.45387359999586,436.4563529000152,435.45387359999586,436.4563529000152,435.45387359999586,436.4563529000152,435.45387359999586,436.4563529000152,None,0,,435.45387359999586,None,435.45387359999586,None,435.45387359999586,435.9539349999977,435.45387359999586,435.9539349999977,435.45387359999586,435.9539349999977,435.45387359999586,435.9539349999977,435.45387359999586,None,,,,,,,,,,,,,,,,,,,,,,,,,,,,,,,,,,,,,,,,,,11019,001,2024_Jan_05_0951,nback,2021.2.3,59.87206538626889,
2-back,instructions\back-2.png,conditions\2back-p.xlsx,instructions\2-BACK.png,"(25, 15)",practice,2,2,stim\gray.png,stim\yellow.png,stim\gray.png,stim\gray.png,right,1,0,1,0,0,2,2,2,0,4,4,4,,,,,,,,,,,,,,,,,,,,,,,,,,,436.9555033000652,437.9569211000344,436.9555033000652,437.9569211000344,436.9555033000652,437.9569211000344,436.9555033000652,437.9569211000344,None,0,,436.9555033000652,None,436.9555033000652,None,436.9555033000652,437.4568837999832,436.9555033000652,437.4568837999832,436.9555033000652,437.4568837999832,436.9555033000652,437.4568837999832,436.9555033000652,None,,,,,,,,,,,,,,,,,,,,,,,,,,,,,,,,,,,,,,,,,,11019,001,2024_Jan_05_0951,nback,2021.2.3,59.87206538626889,
2-back,instructions\back-2.png,conditions\2back-p.xlsx,instructions\2-BACK.png,"(25, 15)",practice,2,1,stim\yellow.png,stim\gray.png,stim\gray.png,stim\gray.png,down,1,0,1,0,0,2,2,2,0,5,5,5,,,,,,,,,,,,,,,,,,,,,,,,,,,438.45839929999784,439.4600170000922,438.45839929999784,439.4600170000922,438.45839929999784,439.4600170000922,438.45839929999784,439.4600170000922,None,0,,438.45839929999784,None,438.45839929999784,None,438.45839929999784,438.95855290000327,438.45839929999784,438.95855290000327,438.45839929999784,438.95855290000327,438.45839929999784,438.95855290000327,438.45839929999784,None,,,,,,,,,,,,,,,,,,,,,,,,,,,,,,,,,,,,,,,,,,11019,001,2024_Jan_05_0951,nback,2021.2.3,59.87206538626889,
2-back,instructions\back-2.png,conditions\2back-p.xlsx,instructions\2-BACK.png,"(25, 15)",practice,2,4,stim\gray.png,stim\gray.png,stim\gray.png,stim\yellow.png,left,1,0,1,0,0,2,2,2,0,6,6,6,,,,,,,,,,,,,,,,,,,,,,,,,,,439.9430817000102,440.94552760000806,439.9430817000102,440.94552760000806,439.9430817000102,440.94552760000806,439.9430817000102,440.94552760000806,None,0,,439.9430817000102,None,439.9430817000102,None,439.9430817000102,440.4445286000846,439.9430817000102,440.4445286000846,439.9430817000102,440.4445286000846,439.9430817000102,440.4445286000846,439.9430817000102,None,,,,,,,,,,,,,,,,,,,,,,,,,,,,,,,,,,,,,,,,,,11019,001,2024_Jan_05_0951,nback,2021.2.3,59.87206538626889,
2-back,instructions\back-2.png,conditions\2back-p.xlsx,instructions\2-BACK.png,"(25, 15)",practice,2,3,stim\gray.png,stim\gray.png,stim\yellow.png,stim\gray.png,up,1,0,1,0,0,2,2,2,0,7,7,7,,,,,,,,,,,,,,,,,,,,,,,,,,,441.44614700006787,442.44696590001695,441.44614700006787,442.44696590001695,441.44614700006787,442.44696590001695,441.44614700006787,442.44696590001695,down,0,1.385839800001122,441.44614700006787,None,441.44614700006787,None,441.44614700006787,441.9465657999972,441.44614700006787,441.9465657999972,441.44614700006787,441.9465657999972,441.44614700006787,441.9465657999972,441.44614700006787,None,,,,,,,,,,,,,,,,,,,,,,,,,,,,,,,,,,,,,,,,,,11019,001,2024_Jan_05_0951,nback,2021.2.3,59.87206538626889,
2-back,instructions\back-2.png,conditions\2back-p.xlsx,instructions\2-BACK.png,"(25, 15)",practice,2,3,stim\gray.png,stim\gray.png,stim\yellow.png,stim\gray.png,down,1,0,1,0,0,2,2,2,0,8,8,8,,,,,,,,,,,,,,,,,,,,,,,,,,,442.94829500000924,443.949223899981,442.94829500000924,443.949223899981,442.94829500000924,443.949223899981,442.94829500000924,443.949223899981,None,0,,442.94829500000924,None,442.94829500000924,None,442.94829500000924,443.44843420002144,442.94829500000924,443.44843420002144,442.94829500000924,443.44843420002144,442.94829500000924,443.44843420002144,442.94829500000924,None,,,,,,,,,,,,,,,,,,,,,,,,,,,,,,,,,,,,,,,,,,11019,001,2024_Jan_05_0951,nback,2021.2.3,59.87206538626889,
2-back,instructions\back-2.png,conditions\2back-p.xlsx,instructions\2-BACK.png,"(25, 15)",practice,2,4,stim\gray.png,stim\gray.png,stim\gray.png,stim\yellow.png,right,1,0,1,0,0,2,2,2,0,9,9,9,,,,,,,,,,,,,,,,,,,,,,,,,,,444.44994409999344,445.4514182000421,444.44994409999344,445.4514182000421,444.44994409999344,445.4514182000421,444.44994409999344,445.4514182000421,None,0,,444.44994409999344,None,444.44994409999344,None,444.44994409999344,444.9507168000564,444.44994409999344,444.9507168000564,444.44994409999344,444.9507168000564,444.44994409999344,444.9507168000564,444.44994409999344,None,,,,,,,,,,,,,,,,,,,,,,,,,,,,,,,,,,,,,,,,,,11019,001,2024_Jan_05_0951,nback,2021.2.3,59.87206538626889,
2-back,instructions\back-2.png,conditions\2back-p.xlsx,instructions\2-BACK.png,"(25, 15)",practice,2,1,stim\yellow.png,stim\gray.png,stim\gray.png,stim\gray.png,right,1,0,1,0,0,2,2,2,0,10,10,10,,,,,,,,,,,,,,,,,,,,,,,,,,,445.9521659000311,446.9544082999928,445.9521659000311,446.9544082999928,445.9521659000311,446.9544082999928,445.9521659000311,446.9544082999928,None,0,,445.9521659000311,None,445.9521659000311,None,445.9521659000311,446.4536549000768,445.9521659000311,446.4536549000768,445.9521659000311,446.4536549000768,445.9521659000311,446.4536549000768,445.9521659000311,None,,,,,,,,,,,,,,,,,,,,,,,,,,,,,,,,,,,,,,,,,,11019,001,2024_Jan_05_0951,nback,2021.2.3,59.87206538626889,
2-back,instructions\back-2.png,conditions\2back-p.xlsx,instructions\2-BACK.png,"(25, 15)",practice,2,2,stim\gray.png,stim\yellow.png,stim\gray.png,stim\gray.png,down,1,0,1,0,0,2,2,2,0,11,11,11,,,,,,,,,,,,,,,,,,,,,,,,,,,447.45457940001506,448.45776720007416,447.45457940001506,448.45776720007416,447.45457940001506,448.45776720007416,447.45457940001506,448.45776720007416,down,1,1.0816782000474632,447.45457940001506,None,447.45457940001506,None,447.45457940001506,447.9556409000652,447.45457940001506,447.9556409000652,447.45457940001506,447.9556409000652,447.45457940001506,447.9556409000652,447.45457940001506,None,,,,,,,,,,,,,,,,,,,,,,,,,,,,,,,,,,,,,,,,,,11019,001,2024_Jan_05_0951,nback,2021.2.3,59.87206538626889,
2-back,instructions\back-2.png,conditions\2back-p.xlsx,instructions\2-BACK.png,"(25, 15)",practice,2,4,stim\gray.png,stim\gray.png,stim\gray.png,stim\yellow.png,up,1,0,1,0,0,2,2,2,0,12,12,12,,,,,,,,,,,,,,,,,,,,,,,,,,,448.9569128000876,449.9583963000914,448.9569128000876,449.9583963000914,448.9569128000876,449.9583963000914,448.9569128000876,449.9583963000914,up,1,1.2671530999941751,448.9569128000876,None,448.9569128000876,None,448.9569128000876,449.4575666000601,448.9569128000876,449.4575666000601,448.9569128000876,449.4575666000601,448.9569128000876,449.4575666000601,448.9569128000876,None,,,,,,,,,,,,,,,,,,,,,,,,,,,,,,,,,,,,,,,,,,11019,001,2024_Jan_05_0951,nback,2021.2.3,59.87206538626889,
2-back,instructions\back-2.png,conditions\2back-p.xlsx,instructions\2-BACK.png,"(25, 15)",practice,2,3,stim\gray.png,stim\gray.png,stim\yellow.png,stim\gray.png,left,1,0,1,0,0,2,2,2,0,13,13,13,,,,,,,,,,,,,,,,,,,,,,,,,,,450.45880240004044,451.4612513000611,450.45880240004044,451.4612513000611,450.45880240004044,451.4612513000611,450.45880240004044,451.4612513000611,None,0,,450.45880240004044,None,450.45880240004044,None,450.45880240004044,450.9595937000122,450.45880240004044,450.9595937000122,450.45880240004044,450.9595937000122,450.45880240004044,450.9595937000122,450.45880240004044,None,,,,,,,,,,,,,,,,,,,,,,,,,,,,,,,,,,,,,,,,,,11019,001,2024_Jan_05_0951,nback,2021.2.3,59.87206538626889,
2-back,instructions\back-2.png,conditions\2back-p.xlsx,instructions\2-BACK.png,"(25, 15)",practice,2,1,stim\yellow.png,stim\gray.png,stim\gray.png,stim\gray.png,down,1,0,1,0,0,2,2,2,0,14,14,14,,,,,,,,,,,,,,,,,,,,,,,,,,,451.9443386000348,452.94593180005904,451.9443386000348,452.94593180005904,451.9443386000348,452.94593180005904,451.9443386000348,452.94593180005904,right,0,0.16874500003177673,451.9443386000348,None,451.9443386000348,None,451.9443386000348,452.4444440000225,451.9443386000348,452.4444440000225,451.9443386000348,452.4444440000225,451.9443386000348,452.4444440000225,451.9443386000348,None,,,,,,,,,,,,,,,,,,,,,,,,,,,,,,,,,,,,,,,,,,11019,001,2024_Jan_05_0951,nback,2021.2.3,59.87206538626889,
2-back,instructions\back-2.png,conditions\2back-p.xlsx,instructions\2-BACK.png,"(25, 15)",practice,2,2,stim\gray.png,stim\yellow.png,stim\gray.png,stim\gray.png,right,1,0,1,0,0,2,2,2,0,15,15,15,,,,,,,,,,,,,,,,,,,,,,,,,,,453.4466059000697,454.44794029998593,453.4466059000697,454.44794029998593,453.4466059000697,454.44794029998593,453.4466059000697,454.44794029998593,right,1,1.122114000027068,453.4466059000697,None,453.4466059000697,None,453.4466059000697,453.94801350007765,453.4466059000697,453.94801350007765,453.4466059000697,453.94801350007765,453.4466059000697,453.94801350007765,453.4466059000697,None,,,,,,,,,,,,,,,,,,,,,,,,,,,,,,,,,,,,,,,,,,11019,001,2024_Jan_05_0951,nback,2021.2.3,59.87206538626889,
2-back,instructions\back-2.png,conditions\2back-p.xlsx,instructions\2-BACK.png,"(25, 15)",practice,2,3,stim\gray.png,stim\gray.png,stim\yellow.png,stim\gray.png,up,1,0,1,0,0,2,2,2,0,16,16,16,,,,,,,,,,,,,,,,,,,,,,,,,,,454.94915420003235,455.95035549998283,454.94915420003235,455.95035549998283,454.94915420003235,455.95035549998283,454.94915420003235,455.95035549998283,None,0,,454.94915420003235,None,454.94915420003235,None,454.94915420003235,455.44959249999374,454.94915420003235,455.44959249999374,454.94915420003235,455.44959249999374,454.94915420003235,455.44959249999374,454.94915420003235,None,,,,,,,,,,,,,,,,,,,,,,,,,,,,,,,,,,,,,,,,,,11019,001,2024_Jan_05_0951,nback,2021.2.3,59.87206538626889,
2-back,instructions\back-2.png,conditions\2back-p.xlsx,instructions\2-BACK.png,"(25, 15)",practice,2,1,stim\yellow.png,stim\gray.png,stim\gray.png,stim\gray.png,left,1,0,1,0,0,2,2,2,0,17,17,17,,,,,,,,,,,,,,,,,,,,,,,,,,,456.45085120003205,457.4532034000149,456.45085120003205,457.4532034000149,456.45085120003205,457.4532034000149,456.45085120003205,457.4532034000149,None,0,,456.45085120003205,None,456.45085120003205,None,456.45085120003205,456.9518767000409,456.45085120003205,456.9518767000409,456.45085120003205,456.9518767000409,456.45085120003205,456.9518767000409,456.45085120003205,None,,,,,,,,,,,,,,,,,,,,,,,,,,,,,,,,,,,,,,,,,,11019,001,2024_Jan_05_0951,nback,2021.2.3,59.87206538626889,
2-back,instructions\back-2.png,conditions\2back-p.xlsx,instructions\2-BACK.png,"(25, 15)",practice,2,4,stim\gray.png,stim\gray.png,stim\gray.png,stim\yellow.png,right,1,0,1,0,0,2,2,2,0,18,18,18,,,,,,,,,,,,,,,,,,,,,,,,,,,457.9531866000034,458.9554879000643,457.9531866000034,458.9554879000643,457.9531866000034,458.9554879000643,457.9531866000034,458.9554879000643,None,0,,457.9531866000034,None,457.9531866000034,None,457.9531866000034,458.4547072000569,457.9531866000034,458.4547072000569,457.9531866000034,458.4547072000569,457.9531866000034,458.4547072000569,457.9531866000034,None,,,,,,,,,,,,,,,,,,,,,,,,,,,,,,,,,,,,,,,,,,11019,001,2024_Jan_05_0951,nback,2021.2.3,59.87206538626889,
2-back,instructions\back-2.png,conditions\2back-p.xlsx,instructions\2-BACK.png,"(25, 15)",practice,2,2,stim\gray.png,stim\yellow.png,stim\gray.png,stim\gray.png,up,1,0,1,0,0,2,2,2,0,19,19,19,,,,,,,,,,,,,,,,,,,,,,,,,,,459.45543070009444,460.45724380004685,459.45543070009444,460.45724380004685,459.45543070009444,460.45724380004685,459.45543070009444,460.45724380004685,up,1,0.7847974000032991,459.45543070009444,None,459.45543070009444,None,459.45543070009444,459.9563100000378,459.45543070009444,459.9563100000378,459.45543070009444,459.9563100000378,459.45543070009444,459.9563100000378,459.45543070009444,None,,,,,,,,,,,,,,,,,,,,,,,,,,,,,,,,,,,,,,,,,,11019,001,2024_Jan_05_0951,nback,2021.2.3,59.87206538626889,
2-back,instructions\back-2.png,conditions\2back-p.xlsx,instructions\2-BACK.png,"(25, 15)",,,,,,,,,1,0,1,0,0,2,2,2,,,,,,,,,,,,,,,,,,,,,,,,,,,,,,,,,,,,,,,,,,,,,,,,,,,,,,,,,,,,,,,,,,,,,,,,,,,,,,,,,,,,,,,,,,,,,,,,,11019,001,2024_Jan_05_0951,nback,2021.2.3,59.87206538626889,
,,,,,,,,,,,,,1,0,1,0,,,,,,,,,,,,,,,,,,,,,,,,,,,,,,,,,,,,,,,,,,,,,,,,,,,,,,,,,,,,460.9596467000665,None,space,12.12061820004601,460.9596467000665,None,,,,,,,,,,,,,,,,,,,,,,,,,,,,,,,,,,,,11019,001,2024_Jan_05_0951,nback,2021.2.3,59.87206538626889,
,,,,,,,,,,,,,,,,,,,,,,,,,,,,,,,,,,,,,,,,,,,,,,,,,,,,,,,,,,,,,,,,,,,,,,,,,,,,,,,,,,473.10908930003643,None,space,17.379444800084457,473.10908930003643,None,,,,,,,,,,,,,,,,,,,,,,,,,,,,,,11019,001,2024_Jan_05_0951,nback,2021.2.3,59.87206538626889,
0-back,instructions\back-0.png,conditions\02back-e.xlsx,,,experiment,0,4,stim\gray.png,stim\gray.png,stim\gray.png,stim\yellow.png,down,,,,,,,,,,,,,0,0,0,7,0,0,0,0,,,,,,,,,,,,,,,490.65193120006006,495.1610434000613,495.12607390002813,None,,,,,,,,,,,,,,,,,,,,,,,,,,,,,,,,,,,,,,down,1,1.2979836000595242,495.5425274000736,None,495.5425274000736,None,495.5425274000736,496.5444701000815,495.5425274000736,496.5444701000815,495.5425274000736,496.5444701000815,495.5425274000736,496.5444701000815,495.5425274000736,496.0436552000465,495.5425274000736,496.0436552000465,495.5425274000736,496.0436552000465,495.5425274000736,496.0436552000465,495.5425274000736,None,,,,,11019,001,2024_Jan_05_0951,nback,2021.2.3,59.87206538626889,
0-back,instructions\back-0.png,conditions\02back-e.xlsx,,,experiment,0,2,stim\gray.png,stim\yellow.png,stim\gray.png,stim\gray.png,left,,,,,,,,,,,,,0,0,0,7,0,1,1,1,,,,,,,,,,,,,,,,,,,,,,,,,,,,,,,,,,,,,,,,,,,,,,,,,,,,,,,,left,1,0.4597592999925837,497.02837850002106,None,497.02837850002106,None,497.02837850002106,498.0293747000396,497.02837850002106,498.0293747000396,497.02837850002106,498.0293747000396,497.02837850002106,498.0293747000396,497.02837850002106,497.5286524000112,497.02837850002106,497.5286524000112,497.02837850002106,497.5286524000112,497.02837850002106,497.5286524000112,497.02837850002106,None,,,,,11019,001,2024_Jan_05_0951,nback,2021.2.3,59.87206538626889,
0-back,instructions\back-0.png,conditions\02back-e.xlsx,,,experiment,0,1,stim\yellow.png,stim\gray.png,stim\gray.png,stim\gray.png,up,,,,,,,,,,,,,0,0,0,7,0,2,2,2,,,,,,,,,,,,,,,,,,,,,,,,,,,,,,,,,,,,,,,,,,,,,,,,,,,,,,,,up,1,0.3820964000187814,498.52997200004756,None,498.52997200004756,None,498.52997200004756,499.53227620001417,498.52997200004756,499.53227620001417,498.52997200004756,499.53227620001417,498.52997200004756,499.53227620001417,498.52997200004756,499.03149490000214,498.52997200004756,499.03149490000214,498.52997200004756,499.03149490000214,498.52997200004756,499.03149490000214,498.52997200004756,None,,,,,11019,001,2024_Jan_05_0951,nback,2021.2.3,59.87206538626889,
0-back,instructions\back-0.png,conditions\02back-e.xlsx,,,experiment,0,2,stim\gray.png,stim\yellow.png,stim\gray.png,stim\gray.png,left,,,,,,,,,,,,,0,0,0,7,0,3,3,3,,,,,,,,,,,,,,,,,,,,,,,,,,,,,,,,,,,,,,,,,,,,,,,,,,,,,,,,left,1,0.5119786000577733,500.0324247999815,None,500.0324247999815,None,500.0324247999815,501.03473910002504,500.0324247999815,501.03473910002504,500.0324247999815,501.03473910002504,500.0324247999815,501.03473910002504,500.0324247999815,500.53297970001586,500.0324247999815,500.53297970001586,500.0324247999815,500.53297970001586,500.0324247999815,500.53297970001586,500.0324247999815,None,,,,,11019,001,2024_Jan_05_0951,nback,2021.2.3,59.87206538626889,
0-back,instructions\back-0.png,conditions\02back-e.xlsx,,,experiment,0,3,stim\gray.png,stim\gray.png,stim\yellow.png,stim\gray.png,right,,,,,,,,,,,,,0,0,0,7,0,4,4,4,,,,,,,,,,,,,,,,,,,,,,,,,,,,,,,,,,,,,,,,,,,,,,,,,,,,,,,,right,1,0.4576700000325218,501.5345923000714,None,501.5345923000714,None,501.5345923000714,502.5362414000556,501.5345923000714,502.5362414000556,501.5345923000714,502.5362414000556,501.5345923000714,502.5362414000556,501.5345923000714,502.0353619999951,501.5345923000714,502.0353619999951,501.5345923000714,502.0353619999951,501.5345923000714,502.0353619999951,501.5345923000714,None,,,,,11019,001,2024_Jan_05_0951,nback,2021.2.3,59.87206538626889,
0-back,instructions\back-0.png,conditions\02back-e.xlsx,,,experiment,0,1,stim\yellow.png,stim\gray.png,stim\gray.png,stim\gray.png,up,,,,,,,,,,,,,0,0,0,7,0,5,5,5,,,,,,,,,,,,,,,,,,,,,,,,,,,,,,,,,,,,,,,,,,,,,,,,,,,,,,,,up,1,0.38770770002156496,503.0365795000689,None,503.0365795000689,None,503.0365795000689,504.03827150003053,503.0365795000689,504.03827150003053,503.0365795000689,504.03827150003053,503.0365795000689,504.03827150003053,503.0365795000689,503.5383569999831,503.0365795000689,503.5383569999831,503.0365795000689,503.5383569999831,503.0365795000689,503.5383569999831,503.0365795000689,None,,,,,11019,001,2024_Jan_05_0951,nback,2021.2.3,59.87206538626889,
0-back,instructions\back-0.png,conditions\02back-e.xlsx,,,experiment,0,2,stim\gray.png,stim\yellow.png,stim\gray.png,stim\gray.png,left,,,,,,,,,,,,,0,0,0,7,0,6,6,6,,,,,,,,,,,,,,,,,,,,,,,,,,,,,,,,,,,,,,,,,,,,,,,,,,,,,,,,left,1,0.5730153999757022,504.5231804000214,None,504.5231804000214,None,504.5231804000214,505.5241110000061,504.5231804000214,505.5241110000061,504.5231804000214,505.5241110000061,504.5231804000214,505.5241110000061,504.5231804000214,505.02380680001806,504.5231804000214,505.02380680001806,504.5231804000214,505.02380680001806,504.5231804000214,505.02380680001806,504.5231804000214,None,,,,,11019,001,2024_Jan_05_0951,nback,2021.2.3,59.87206538626889,
0-back,instructions\back-0.png,conditions\02back-e.xlsx,,,experiment,0,3,stim\gray.png,stim\gray.png,stim\yellow.png,stim\gray.png,right,,,,,,,,,,,,,0,0,0,7,0,7,7,7,,,,,,,,,,,,,,,,,,,,,,,,,,,,,,,,,,,,,,,,,,,,,,,,,,,,,,,,right,1,0.584136400022544,506.0245909000514,None,506.0245909000514,None,506.0245909000514,507.02645100001246,506.0245909000514,507.02645100001246,506.0245909000514,507.02645100001246,506.0245909000514,507.02645100001246,506.0245909000514,506.52515740005765,506.0245909000514,506.52515740005765,506.0245909000514,506.52515740005765,506.0245909000514,506.52515740005765,506.0245909000514,None,,,,,11019,001,2024_Jan_05_0951,nback,2021.2.3,59.87206538626889,
0-back,instructions\back-0.png,conditions\02back-e.xlsx,,,experiment,0,4,stim\gray.png,stim\gray.png,stim\gray.png,stim\yellow.png,down,,,,,,,,,,,,,0,0,0,7,0,8,8,8,,,,,,,,,,,,,,,,,,,,,,,,,,,,,,,,,,,,,,,,,,,,,,,,,,,,,,,,down,1,0.7928267000243068,507.5272430999903,None,507.5272430999903,None,507.5272430999903,508.52822490001563,507.5272430999903,508.52822490001563,507.5272430999903,508.52822490001563,507.5272430999903,508.52822490001563,507.5272430999903,508.0275308000855,507.5272430999903,508.0275308000855,507.5272430999903,508.0275308000855,507.5272430999903,508.0275308000855,507.5272430999903,None,,,,,11019,001,2024_Jan_05_0951,nback,2021.2.3,59.87206538626889,
0-back,instructions\back-0.png,conditions\02back-e.xlsx,,,experiment,0,3,stim\gray.png,stim\gray.png,stim\yellow.png,stim\gray.png,right,,,,,,,,,,,,,0,0,0,7,0,9,9,9,,,,,,,,,,,,,,,,,,,,,,,,,,,,,,,,,,,,,,,,,,,,,,,,,,,,,,,,right,1,0.6195911000249907,509.0289046000689,None,509.0289046000689,None,509.0289046000689,510.0304474000586,509.0289046000689,510.0304474000586,509.0289046000689,510.0304474000586,509.0289046000689,510.0304474000586,509.0289046000689,509.5296840000665,509.0289046000689,509.5296840000665,509.0289046000689,509.5296840000665,509.0289046000689,509.5296840000665,509.0289046000689,None,,,,,11019,001,2024_Jan_05_0951,nback,2021.2.3,59.87206538626889,
0-back,instructions\back-0.png,conditions\02back-e.xlsx,,,experiment,0,1,stim\yellow.png,stim\gray.png,stim\gray.png,stim\gray.png,up,,,,,,,,,,,,,0,0,0,7,0,10,10,10,,,,,,,,,,,,,,,,,,,,,,,,,,,,,,,,,,,,,,,,,,,,,,,,,,,,,,,,up,1,0.4369194000028074,510.5312268000562,None,510.5312268000562,None,510.5312268000562,511.533616800094,510.5312268000562,511.533616800094,510.5312268000562,511.533616800094,510.5312268000562,511.533616800094,510.5312268000562,511.031931500067,510.5312268000562,511.031931500067,510.5312268000562,511.031931500067,510.5312268000562,511.031931500067,510.5312268000562,None,,,,,11019,001,2024_Jan_05_0951,nback,2021.2.3,59.87206538626889,
0-back,instructions\back-0.png,conditions\02back-e.xlsx,,,experiment,0,4,stim\gray.png,stim\gray.png,stim\gray.png,stim\yellow.png,down,,,,,,,,,,,,,0,0,0,7,0,11,11,11,,,,,,,,,,,,,,,,,,,,,,,,,,,,,,,,,,,,,,,,,,,,,,,,,,,,,,,,down,1,0.8053888999857008,512.0349508000072,None,512.0349508000072,None,512.0349508000072,513.0352417000104,512.0349508000072,513.0352417000104,512.0349508000072,513.0352417000104,512.0349508000072,513.0352417000104,512.0349508000072,512.5353186000139,512.0349508000072,512.5353186000139,512.0349508000072,512.5353186000139,512.0349508000072,512.5353186000139,512.0349508000072,None,,,,,11019,001,2024_Jan_05_0951,nback,2021.2.3,59.87206538626889,
0-back,instructions\back-0.png,conditions\02back-e.xlsx,,,experiment,0,3,stim\gray.png,stim\gray.png,stim\yellow.png,stim\gray.png,right,,,,,,,,,,,,,0,0,0,7,0,12,12,12,,,,,,,,,,,,,,,,,,,,,,,,,,,,,,,,,,,,,,,,,,,,,,,,,,,,,,,,right,1,0.44814540003426373,513.5363054000773,None,513.5363054000773,None,513.5363054000773,514.5373062000144,513.5363054000773,514.5373062000144,513.5363054000773,514.5373062000144,513.5363054000773,514.5373062000144,513.5363054000773,514.0364193000132,513.5363054000773,514.0364193000132,513.5363054000773,514.0364193000132,513.5363054000773,514.0364193000132,513.5363054000773,None,,,,,11019,001,2024_Jan_05_0951,nback,2021.2.3,59.87206538626889,
0-back,instructions\back-0.png,conditions\02back-e.xlsx,,,experiment,0,1,stim\yellow.png,stim\gray.png,stim\gray.png,stim\gray.png,up,,,,,,,,,,,,,0,0,0,7,0,13,13,13,,,,,,,,,,,,,,,,,,,,,,,,,,,,,,,,,,,,,,,,,,,,,,,,,,,,,,,,up,1,0.3464829999720678,515.0379453999922,None,515.0379453999922,None,515.0379453999922,516.0392101000762,515.0379453999922,516.0392101000762,515.0379453999922,516.0392101000762,515.0379453999922,516.0392101000762,515.0379453999922,515.5385415999917,515.0379453999922,515.5385415999917,515.0379453999922,515.5385415999917,515.0379453999922,515.5385415999917,515.0379453999922,None,,,,,11019,001,2024_Jan_05_0951,nback,2021.2.3,59.87206538626889,
0-back,instructions\back-0.png,conditions\02back-e.xlsx,,,experiment,0,2,stim\gray.png,stim\yellow.png,stim\gray.png,stim\gray.png,left,,,,,,,,,,,,,0,0,0,7,0,14,14,14,,,,,,,,,,,,,,,,,,,,,,,,,,,,,,,,,,,,,,,,,,,,,,,,,,,,,,,,left,1,0.4521596999838948,516.5239502000622,None,516.5239502000622,None,516.5239502000622,517.5251273000613,516.5239502000622,517.5251273000613,516.5239502000622,517.5251273000613,516.5239502000622,517.5251273000613,516.5239502000622,517.0252586000133,516.5239502000622,517.0252586000133,516.5239502000622,517.0252586000133,516.5239502000622,517.0252586000133,516.5239502000622,None,,,,,11019,001,2024_Jan_05_0951,nback,2021.2.3,59.87206538626889,
