backseq,backinstr,backfile,instruction,size_in,Trialtype,back,number,P1,P2,P3,P4,corrAns,trials_practice.thisRepN,trials_practice.thisTrialN,trials_practice.thisN,trials_practice.thisIndex,trials.thisRepN,trials.thisTrialN,trials.thisN,trials.thisIndex,trials_3.thisRepN,trials_3.thisTrialN,trials_3.thisN,trials_3.thisIndex,trials_2.thisRepN,trials_2.thisTrialN,trials_2.thisN,trials_2.thisIndex,trials_4.thisRepN,trials_4.thisTrialN,trials_4.thisN,trials_4.thisIndex,image.started,image.stopped,image_2.started,image_2.stopped,key_resp.keys,key_resp.rt,key_resp.started,key_resp.stopped,image_3.started,image_3.stopped,key_resp_2.keys,key_resp_2.rt,key_resp_2.started,key_resp_2.stopped,image_4.started,image_4.stopped,text.started,text.stopped,H1.started,H1.stopped,H2.started,H2.stopped,H3.started,H3.stopped,H4.started,H4.stopped,key_resp_3.keys,key_resp_3.corr,key_resp_3.rt,key_resp_3.started,key_resp_3.stopped,text_4.started,text_4.stopped,F1.started,F1.stopped,F2.started,F2.stopped,F3.started,F3.stopped,F4.started,F4.stopped,image_7.started,image_7.stopped,text_5.started,text_5.stopped,key_resp_6.keys,key_resp_6.rt,key_resp_6.started,key_resp_6.stopped,image_5.started,image_5.stopped,key_resp_4.keys,key_resp_4.rt,key_resp_4.started,key_resp_4.stopped,key_resp_5.keys,key_resp_5.corr,key_resp_5.started,key_resp_5.stopped,text_3.started,text_3.stopped,H1_2.started,H1_2.stopped,H2_2.started,H2_2.stopped,H3_2.started,H3_2.stopped,H4_2.started,H4_2.stopped,F1_2.started,F1_2.stopped,F2_2.started,F2_2.stopped,F3_2.started,F3_2.stopped,F4_2.started,F4_2.stopped,image_8.started,image_8.stopped,key_resp_5.rt,text_2.started,text_2.stopped,image_6.started,image_6.stopped,participant,session,date,expName,psychopyVersion,frameRate,
,,,,,,,,,,,,,,,,,,,,,,,,,,,,,,,,,13.85525849997066,None,14.77516249998007,None,space,97.3673258999479,14.77516249998007,None,,,,,,,,,,,,,,,,,,,,,,,,,,,,,,,,,,,,,,,,,,,,,,,,,,,,,,,,,,,,,,,,,,,,,,,,,,,,,11010,001,2024_Jan_01_2003,nback,2021.2.3,59.85361004073735,
0-back,instructions\back-0.png,conditions\0back-p.xlsx,instructions\0-BACK.png,"(15, 8)",practice,0,1,stim\yellow.png,stim\gray.png,stim\gray.png,stim\gray.png,up,0,0,0,0,0,0,0,0,0,0,0,0,,,,,,,,,,,,,,,,,112.21803129999898,None,space,5.5162588999955915,112.21803129999898,None,117.90930900000967,122.41835689998697,122.38479749998078,None,122.78465859999415,123.78518669999903,122.78465859999415,123.78518669999903,122.78465859999415,123.78518669999903,122.78465859999415,123.78518669999903,up,1,0.6543661000323482,122.78465859999415,None,122.78465859999415,None,122.78465859999415,123.28411040001083,122.78465859999415,123.28411040001083,122.78465859999415,123.28411040001083,122.78465859999415,123.28411040001083,122.78465859999415,None,,,,,,,,,,,,,,,,,,,,,,,,,,,,,,,,,,,,,,,,,,11010,001,2024_Jan_01_2003,nback,2021.2.3,59.85361004073735,
0-back,instructions\back-0.png,conditions\0back-p.xlsx,instructions\0-BACK.png,"(15, 8)",practice,0,2,stim\gray.png,stim\yellow.png,stim\gray.png,stim\gray.png,left,0,0,0,0,0,0,0,0,0,1,1,1,,,,,,,,,,,,,,,,,,,,,,,,,,,124.26901220000582,125.2718867000076,124.26901220000582,125.2718867000076,124.26901220000582,125.2718867000076,124.26901220000582,125.2718867000076,left,1,0.5293137999833561,124.26901220000582,None,124.26901220000582,None,124.26901220000582,124.7708434999804,124.26901220000582,124.7708434999804,124.26901220000582,124.7708434999804,124.26901220000582,124.7708434999804,124.26901220000582,None,,,,,,,,,,,,,,,,,,,,,,,,,,,,,,,,,,,,,,,,,,11010,001,2024_Jan_01_2003,nback,2021.2.3,59.85361004073735,
0-back,instructions\back-0.png,conditions\0back-p.xlsx,instructions\0-BACK.png,"(15, 8)",practice,0,3,stim\gray.png,stim\gray.png,stim\yellow.png,stim\gray.png,right,0,0,0,0,0,0,0,0,0,2,2,2,,,,,,,,,,,,,,,,,,,,,,,,,,,125.77185299998382,126.77300099999411,125.77185299998382,126.77300099999411,125.77185299998382,126.77300099999411,125.77185299998382,126.77300099999411,right,1,0.4508269000216387,125.77185299998382,None,125.77185299998382,None,125.77185299998382,126.272085900011,125.77185299998382,126.272085900011,125.77185299998382,126.272085900011,125.77185299998382,126.272085900011,125.77185299998382,None,,,,,,,,,,,,,,,,,,,,,,,,,,,,,,,,,,,,,,,,,,11010,001,2024_Jan_01_2003,nback,2021.2.3,59.85361004073735,
0-back,instructions\back-0.png,conditions\0back-p.xlsx,instructions\0-BACK.png,"(15, 8)",practice,0,4,stim\gray.png,stim\gray.png,stim\gray.png,stim\yellow.png,down,0,0,0,0,0,0,0,0,0,3,3,3,,,,,,,,,,,,,,,,,,,,,,,,,,,127.27344209997682,128.27567200001795,127.27344209997682,128.27567200001795,127.27344209997682,128.27567200001795,127.27344209997682,128.27567200001795,down,1,0.5732729000155814,127.27344209997682,None,127.27344209997682,None,127.27344209997682,127.77420129999518,127.27344209997682,127.77420129999518,127.27344209997682,127.77420129999518,127.27344209997682,127.77420129999518,127.27344209997682,None,,,,,,,,,,,,,,,,,,,,,,,,,,,,,,,,,,,,,,,,,,11010,001,2024_Jan_01_2003,nback,2021.2.3,59.85361004073735,
0-back,instructions\back-0.png,conditions\0back-p.xlsx,instructions\0-BACK.png,"(15, 8)",practice,0,2,stim\gray.png,stim\yellow.png,stim\gray.png,stim\gray.png,left,0,0,0,0,0,0,0,0,0,4,4,4,,,,,,,,,,,,,,,,,,,,,,,,,,,128.77585470001213,129.77927559998352,128.77585470001213,129.77927559998352,128.77585470001213,129.77927559998352,128.77585470001213,129.77927559998352,left,1,0.47878240002319217,128.77585470001213,None,128.77585470001213,None,128.77585470001213,129.27640649996465,128.77585470001213,129.27640649996465,128.77585470001213,129.27640649996465,128.77585470001213,129.27640649996465,128.77585470001213,None,,,,,,,,,,,,,,,,,,,,,,,,,,,,,,,,,,,,,,,,,,11010,001,2024_Jan_01_2003,nback,2021.2.3,59.85361004073735,
0-back,instructions\back-0.png,conditions\0back-p.xlsx,instructions\0-BACK.png,"(15, 8)",practice,0,1,stim\yellow.png,stim\gray.png,stim\gray.png,stim\gray.png,up,0,0,0,0,0,0,0,0,0,5,5,5,,,,,,,,,,,,,,,,,,,,,,,,,,,130.27797310001915,131.27956479997374,130.27797310001915,131.27956479997374,130.27797310001915,131.27956479997374,130.27797310001915,131.27956479997374,up,1,0.4490009000292048,130.27797310001915,None,130.27797310001915,None,130.27797310001915,130.77903049997985,130.27797310001915,130.77903049997985,130.27797310001915,130.77903049997985,130.27797310001915,130.77903049997985,130.27797310001915,None,,,,,,,,,,,,,,,,,,,,,,,,,,,,,,,,,,,,,,,,,,11010,001,2024_Jan_01_2003,nback,2021.2.3,59.85361004073735,
0-back,instructions\back-0.png,conditions\0back-p.xlsx,instructions\0-BACK.png,"(15, 8)",practice,0,4,stim\gray.png,stim\gray.png,stim\gray.png,stim\yellow.png,down,0,0,0,0,0,0,0,0,0,6,6,6,,,,,,,,,,,,,,,,,,,,,,,,,,,131.7800321999821,132.7822729999898,131.7800321999821,132.7822729999898,131.7800321999821,132.7822729999898,131.7800321999821,132.7822729999898,down,1,0.6104795999708585,131.7800321999821,None,131.7800321999821,None,131.7800321999821,132.28093989996705,131.7800321999821,132.28093989996705,131.7800321999821,132.28093989996705,131.7800321999821,132.28093989996705,131.7800321999821,None,,,,,,,,,,,,,,,,,,,,,,,,,,,,,,,,,,,,,,,,,,11010,001,2024_Jan_01_2003,nback,2021.2.3,59.85361004073735,
0-back,instructions\back-0.png,conditions\0back-p.xlsx,instructions\0-BACK.png,"(15, 8)",practice,0,3,stim\gray.png,stim\gray.png,stim\yellow.png,stim\gray.png,right,0,0,0,0,0,0,0,0,0,7,7,7,,,,,,,,,,,,,,,,,,,,,,,,,,,133.26676359999692,134.26747610000893,133.26676359999692,134.26747610000893,133.26676359999692,134.26747610000893,133.26676359999692,134.26747610000893,right,1,0.4276985000469722,133.26676359999692,None,133.26676359999692,None,133.26676359999692,133.76657510001678,133.26676359999692,133.76657510001678,133.26676359999692,133.76657510001678,133.26676359999692,133.76657510001678,133.26676359999692,None,,,,,,,,,,,,,,,,,,,,,,,,,,,,,,,,,,,,,,,,,,11010,001,2024_Jan_01_2003,nback,2021.2.3,59.85361004073735,
0-back,instructions\back-0.png,conditions\0back-p.xlsx,instructions\0-BACK.png,"(15, 8)",practice,0,3,stim\gray.png,stim\gray.png,stim\yellow.png,stim\gray.png,right,0,0,0,0,0,0,0,0,0,8,8,8,,,,,,,,,,,,,,,,,,,,,,,,,,,134.76829569996335,135.7697095000185,134.76829569996335,135.7697095000185,134.76829569996335,135.7697095000185,134.76829569996335,135.7697095000185,right,1,0.39019570004893467,134.76829569996335,None,134.76829569996335,None,134.76829569996335,135.26945399999386,134.76829569996335,135.26945399999386,134.76829569996335,135.26945399999386,134.76829569996335,135.26945399999386,134.76829569996335,None,,,,,,,,,,,,,,,,,,,,,,,,,,,,,,,,,,,,,,,,,,11010,001,2024_Jan_01_2003,nback,2021.2.3,59.85361004073735,
0-back,instructions\back-0.png,conditions\0back-p.xlsx,instructions\0-BACK.png,"(15, 8)",practice,0,4,stim\gray.png,stim\gray.png,stim\gray.png,stim\yellow.png,down,0,0,0,0,0,0,0,0,0,9,9,9,,,,,,,,,,,,,,,,,,,,,,,,,,,136.27053939999314,137.27152090001618,136.27053939999314,137.27152090001618,136.27053939999314,137.27152090001618,136.27053939999314,137.27152090001618,down,1,0.6079582000384107,136.27053939999314,None,136.27053939999314,None,136.27053939999314,136.77111450000666,136.27053939999314,136.77111450000666,136.27053939999314,136.77111450000666,136.27053939999314,136.77111450000666,136.27053939999314,None,,,,,,,,,,,,,,,,,,,,,,,,,,,,,,,,,,,,,,,,,,11010,001,2024_Jan_01_2003,nback,2021.2.3,59.85361004073735,
0-back,instructions\back-0.png,conditions\0back-p.xlsx,instructions\0-BACK.png,"(15, 8)",practice,0,1,stim\yellow.png,stim\gray.png,stim\gray.png,stim\gray.png,up,0,0,0,0,0,0,0,0,0,10,10,10,,,,,,,,,,,,,,,,,,,,,,,,,,,137.77248939999845,138.7738076999667,137.77248939999845,138.7738076999667,137.77248939999845,138.7738076999667,137.77248939999845,138.7738076999667,up,1,0.39402160001918674,137.77248939999845,None,137.77248939999845,None,137.77248939999845,138.27317770000082,137.77248939999845,138.27317770000082,137.77248939999845,138.27317770000082,137.77248939999845,138.27317770000082,137.77248939999845,None,,,,,,,,,,,,,,,,,,,,,,,,,,,,,,,,,,,,,,,,,,11010,001,2024_Jan_01_2003,nback,2021.2.3,59.85361004073735,
0-back,instructions\back-0.png,conditions\0back-p.xlsx,instructions\0-BACK.png,"(15, 8)",practice,0,2,stim\gray.png,stim\yellow.png,stim\gray.png,stim\gray.png,left,0,0,0,0,0,0,0,0,0,11,11,11,,,,,,,,,,,,,,,,,,,,,,,,,,,139.27445979998447,140.27650099998573,139.27445979998447,140.27650099998573,139.27445979998447,140.27650099998573,139.27445979998447,140.27650099998573,left,1,0.51610539999092,139.27445979998447,None,139.27445979998447,None,139.27445979998447,139.77536410000175,139.27445979998447,139.77536410000175,139.27445979998447,139.77536410000175,139.27445979998447,139.77536410000175,139.27445979998447,None,,,,,,,,,,,,,,,,,,,,,,,,,,,,,,,,,,,,,,,,,,11010,001,2024_Jan_01_2003,nback,2021.2.3,59.85361004073735,
0-back,instructions\back-0.png,conditions\0back-p.xlsx,instructions\0-BACK.png,"(15, 8)",practice,0,4,stim\gray.png,stim\gray.png,stim\gray.png,stim\yellow.png,down,0,0,0,0,0,0,0,0,0,12,12,12,,,,,,,,,,,,,,,,,,,,,,,,,,,140.77676219999557,141.7784982000012,140.77676219999557,141.7784982000012,140.77676219999557,141.7784982000012,140.77676219999557,141.7784982000012,down,1,0.5095347000169568,140.77676219999557,None,140.77676219999557,None,140.77676219999557,141.27822899998864,140.77676219999557,141.27822899998864,140.77676219999557,141.27822899998864,140.77676219999557,141.27822899998864,140.77676219999557,None,,,,,,,,,,,,,,,,,,,,,,,,,,,,,,,,,,,,,,,,,,11010,001,2024_Jan_01_2003,nback,2021.2.3,59.85361004073735,
0-back,instructions\back-0.png,conditions\0back-p.xlsx,instructions\0-BACK.png,"(15, 8)",practice,0,3,stim\gray.png,stim\gray.png,stim\yellow.png,stim\gray.png,right,0,0,0,0,0,0,0,0,0,13,13,13,,,,,,,,,,,,,,,,,,,,,,,,,,,142.27904880000278,143.28077879996272,142.27904880000278,143.28077879996272,142.27904880000278,143.28077879996272,142.27904880000278,143.28077879996272,right,1,0.4237323999986984,142.27904880000278,None,142.27904880000278,None,142.27904880000278,142.7798438000027,142.27904880000278,142.7798438000027,142.27904880000278,142.7798438000027,142.27904880000278,142.7798438000027,142.27904880000278,None,,,,,,,,,,,,,,,,,,,,,,,,,,,,,,,,,,,,,,,,,,11010,001,2024_Jan_01_2003,nback,2021.2.3,59.85361004073735,
0-back,instructions\back-0.png,conditions\0back-p.xlsx,instructions\0-BACK.png,"(15, 8)",practice,0,1,stim\yellow.png,stim\gray.png,stim\gray.png,stim\gray.png,up,0,0,0,0,0,0,0,0,0,14,14,14,,,,,,,,,,,,,,,,,,,,,,,,,,,143.7815591999679,144.78257839998696,143.7815591999679,144.78257839998696,143.7815591999679,144.78257839998696,143.7815591999679,144.78257839998696,up,1,0.34584730002097785,143.7815591999679,None,143.7815591999679,None,143.7815591999679,144.2823667000048,143.7815591999679,144.2823667000048,143.7815591999679,144.2823667000048,143.7815591999679,144.2823667000048,143.7815591999679,None,,,,,,,,,,,,,,,,,,,,,,,,,,,,,,,,,,,,,,,,,,11010,001,2024_Jan_01_2003,nback,2021.2.3,59.85361004073735,
0-back,instructions\back-0.png,conditions\0back-p.xlsx,instructions\0-BACK.png,"(15, 8)",practice,0,2,stim\gray.png,stim\yellow.png,stim\gray.png,stim\gray.png,left,0,0,0,0,0,0,0,0,0,15,15,15,,,,,,,,,,,,,,,,,,,,,,,,,,,145.26690819999203,146.26820519997273,145.26690819999203,146.26820519997273,145.26690819999203,146.26820519997273,145.26690819999203,146.26820519997273,left,1,0.3798540999996476,145.26690819999203,None,145.26690819999203,None,145.26690819999203,145.76799379999284,145.26690819999203,145.76799379999284,145.26690819999203,145.76799379999284,145.26690819999203,145.76799379999284,145.26690819999203,None,,,,,,,,,,,,,,,,,,,,,,,,,,,,,,,,,,,,,,,,,,11010,001,2024_Jan_01_2003,nback,2021.2.3,59.85361004073735,
0-back,instructions\back-0.png,conditions\0back-p.xlsx,instructions\0-BACK.png,"(15, 8)",practice,0,3,stim\gray.png,stim\gray.png,stim\yellow.png,stim\gray.png,right,0,0,0,0,0,0,0,0,0,16,16,16,,,,,,,,,,,,,,,,,,,,,,,,,,,146.76917310000863,147.77072789997328,146.76917310000863,147.77072789997328,146.76917310000863,147.77072789997328,146.76917310000863,147.77072789997328,right,1,0.49316409998573363,146.76917310000863,None,146.76917310000863,None,146.76917310000863,147.26980539999204,146.76917310000863,147.26980539999204,146.76917310000863,147.26980539999204,146.76917310000863,147.26980539999204,146.76917310000863,None,,,,,,,,,,,,,,,,,,,,,,,,,,,,,,,,,,,,,,,,,,11010,001,2024_Jan_01_2003,nback,2021.2.3,59.85361004073735,
0-back,instructions\back-0.png,conditions\0back-p.xlsx,instructions\0-BACK.png,"(15, 8)",practice,0,1,stim\yellow.png,stim\gray.png,stim\gray.png,stim\gray.png,up,0,0,0,0,0,0,0,0,0,17,17,17,,,,,,,,,,,,,,,,,,,,,,,,,,,148.2712623999687,149.27298199996585,148.2712623999687,149.27298199996585,148.2712623999687,149.27298199996585,148.2712623999687,149.27298199996585,up,1,0.3914712000405416,148.2712623999687,None,148.2712623999687,None,148.2712623999687,148.77222270000493,148.2712623999687,148.77222270000493,148.2712623999687,148.77222270000493,148.2712623999687,148.77222270000493,148.2712623999687,None,,,,,,,,,,,,,,,,,,,,,,,,,,,,,,,,,,,,,,,,,,11010,001,2024_Jan_01_2003,nback,2021.2.3,59.85361004073735,
0-back,instructions\back-0.png,conditions\0back-p.xlsx,instructions\0-BACK.png,"(15, 8)",practice,0,4,stim\gray.png,stim\gray.png,stim\gray.png,stim\yellow.png,down,0,0,0,0,0,0,0,0,0,18,18,18,,,,,,,,,,,,,,,,,,,,,,,,,,,149.7735599000007,150.77593609999167,149.7735599000007,150.77593609999167,149.7735599000007,150.77593609999167,149.7735599000007,150.77593609999167,down,1,0.560750900011044,149.7735599000007,None,149.7735599000007,None,149.7735599000007,150.27431660000002,149.7735599000007,150.27431660000002,149.7735599000007,150.27431660000002,149.7735599000007,150.27431660000002,149.7735599000007,None,,,,,,,,,,,,,,,,,,,,,,,,,,,,,,,,,,,,,,,,,,11010,001,2024_Jan_01_2003,nback,2021.2.3,59.85361004073735,
0-back,instructions\back-0.png,conditions\0back-p.xlsx,instructions\0-BACK.png,"(15, 8)",practice,0,2,stim\gray.png,stim\yellow.png,stim\gray.png,stim\gray.png,left,0,0,0,0,0,0,0,0,0,19,19,19,,,,,,,,,,,,,,,,,,,,,,,,,,,151.275907800009,152.27765529998578,151.275907800009,152.27765529998578,151.275907800009,152.27765529998578,151.275907800009,152.27765529998578,left,1,0.4516877999994904,151.275907800009,None,151.275907800009,None,151.275907800009,151.77670089999447,151.275907800009,151.77670089999447,151.275907800009,151.77670089999447,151.275907800009,151.77670089999447,151.275907800009,None,,,,,,,,,,,,,,,,,,,,,,,,,,,,,,,,,,,,,,,,,,11010,001,2024_Jan_01_2003,nback,2021.2.3,59.85361004073735,
0-back,instructions\back-0.png,conditions\0back-p.xlsx,instructions\0-BACK.png,"(15, 8)",,,,,,,,,0,0,0,0,0,0,0,0,,,,,,,,,,,,,,,,,,,,,,,,,,,,,,,,,,,,,,,,,,,,,,,,,,,,,,,,,,,,,,,,,,,,,,,,,,,,,,,,,,,,,,,,,,,,,,,,,11010,001,2024_Jan_01_2003,nback,2021.2.3,59.85361004073735,
1-back,instructions\back-1.png,conditions\1back-p.xlsx,instructions\1-BACK.png,"(25, 15)",practice,1,1,stim\yellow.png,stim\gray.png,stim\gray.png,stim\gray.png,None,0,0,0,0,0,1,1,1,0,0,0,0,,,,,,,,,,,,,,,,,152.92811669997172,None,space,10.966373000002932,152.92811669997172,None,164.04460690001724,168.55312329996377,168.52014679997228,None,168.93661939998856,169.9369566999958,168.93661939998856,169.9369566999958,168.93661939998856,169.9369566999958,168.93661939998856,169.9369566999958,None,1,,168.93661939998856,None,168.93661939998856,None,168.93661939998856,169.43684450001456,168.93661939998856,169.43684450001456,168.93661939998856,169.43684450001456,168.93661939998856,169.43684450001456,168.93661939998856,None,,,,,,,,,,,,,,,,,,,,,,,,,,,,,,,,,,,,,,,,,,11010,001,2024_Jan_01_2003,nback,2021.2.3,59.85361004073735,
1-back,instructions\back-1.png,conditions\1back-p.xlsx,instructions\1-BACK.png,"(25, 15)",practice,1,2,stim\gray.png,stim\yellow.png,stim\gray.png,stim\gray.png,up,0,0,0,0,0,1,1,1,0,1,1,1,,,,,,,,,,,,,,,,,,,,,,,,,,,170.42077919997973,171.42355959996348,170.42077919997973,171.42355959996348,170.42077919997973,171.42355959996348,170.42077919997973,171.42355959996348,up,1,0.4178681999910623,170.42077919997973,None,170.42077919997973,None,170.42077919997973,170.92149199999403,170.42077919997973,170.92149199999403,170.42077919997973,170.92149199999403,170.42077919997973,170.92149199999403,170.42077919997973,None,,,,,,,,,,,,,,,,,,,,,,,,,,,,,,,,,,,,,,,,,,11010,001,2024_Jan_01_2003,nback,2021.2.3,59.85361004073735,
1-back,instructions\back-1.png,conditions\1back-p.xlsx,instructions\1-BACK.png,"(25, 15)",practice,1,3,stim\gray.png,stim\gray.png,stim\yellow.png,stim\gray.png,left,0,0,0,0,0,1,1,1,0,2,2,2,,,,,,,,,,,,,,,,,,,,,,,,,,,171.9228393000085,172.92447849997552,171.9228393000085,172.92447849997552,171.9228393000085,172.92447849997552,171.9228393000085,172.92447849997552,left,1,0.36366869998164475,171.9228393000085,None,171.9228393000085,None,171.9228393000085,172.42453219997697,171.9228393000085,172.42453219997697,171.9228393000085,172.42453219997697,171.9228393000085,172.42453219997697,171.9228393000085,None,,,,,,,,,,,,,,,,,,,,,,,,,,,,,,,,,,,,,,,,,,11010,001,2024_Jan_01_2003,nback,2021.2.3,59.85361004073735,
1-back,instructions\back-1.png,conditions\1back-p.xlsx,instructions\1-BACK.png,"(25, 15)",practice,1,4,stim\gray.png,stim\gray.png,stim\gray.png,stim\yellow.png,right,0,0,0,0,0,1,1,1,0,3,3,3,,,,,,,,,,,,,,,,,,,,,,,,,,,173.42516659997636,174.42727300000843,173.42516659997636,174.42727300000843,173.42516659997636,174.42727300000843,173.42516659997636,174.42727300000843,right,1,0.34943309996742755,173.42516659997636,None,173.42516659997636,None,173.42516659997636,173.9257778999745,173.42516659997636,173.9257778999745,173.42516659997636,173.9257778999745,173.42516659997636,173.9257778999745,173.42516659997636,None,,,,,,,,,,,,,,,,,,,,,,,,,,,,,,,,,,,,,,,,,,11010,001,2024_Jan_01_2003,nback,2021.2.3,59.85361004073735,
1-back,instructions\back-1.png,conditions\1back-p.xlsx,instructions\1-BACK.png,"(25, 15)",practice,1,2,stim\gray.png,stim\yellow.png,stim\gray.png,stim\gray.png,down,0,0,0,0,0,1,1,1,0,4,4,4,,,,,,,,,,,,,,,,,,,,,,,,,,,174.92760739999358,175.92976809997344,174.92760739999358,175.92976809997344,174.92760739999358,175.92976809997344,174.92760739999358,175.92976809997344,down,1,0.2708254000172019,174.92760739999358,None,174.92760739999358,None,174.92760739999358,175.42803110001842,174.92760739999358,175.42803110001842,174.92760739999358,175.42803110001842,174.92760739999358,175.42803110001842,174.92760739999358,None,,,,,,,,,,,,,,,,,,,,,,,,,,,,,,,,,,,,,,,,,,11010,001,2024_Jan_01_2003,nback,2021.2.3,59.85361004073735,
1-back,instructions\back-1.png,conditions\1back-p.xlsx,instructions\1-BACK.png,"(25, 15)",practice,1,1,stim\yellow.png,stim\gray.png,stim\gray.png,stim\gray.png,left,0,0,0,0,0,1,1,1,0,5,5,5,,,,,,,,,,,,,,,,,,,,,,,,,,,176.4297281000181,177.43135179998353,176.4297281000181,177.43135179998353,176.4297281000181,177.43135179998353,176.4297281000181,177.43135179998353,left,1,0.1925646000308916,176.4297281000181,None,176.4297281000181,None,176.4297281000181,176.93067319999682,176.4297281000181,176.93067319999682,176.4297281000181,176.93067319999682,176.4297281000181,176.93067319999682,176.4297281000181,None,,,,,,,,,,,,,,,,,,,,,,,,,,,,,,,,,,,,,,,,,,11010,001,2024_Jan_01_2003,nback,2021.2.3,59.85361004073735,
1-back,instructions\back-1.png,conditions\1back-p.xlsx,instructions\1-BACK.png,"(25, 15)",practice,1,4,stim\gray.png,stim\gray.png,stim\gray.png,stim\yellow.png,up,0,0,0,0,0,1,1,1,0,6,6,6,,,,,,,,,,,,,,,,,,,,,,,,,,,177.91525789996376,178.91699419997167,177.91525789996376,178.91699419997167,177.91525789996376,178.91699419997167,177.91525789996376,178.91699419997167,up,1,0.2191300000413321,177.91525789996376,None,177.91525789996376,None,177.91525789996376,178.4159905000124,177.91525789996376,178.4159905000124,177.91525789996376,178.4159905000124,177.91525789996376,178.4159905000124,177.91525789996376,None,,,,,,,,,,,,,,,,,,,,,,,,,,,,,,,,,,,,,,,,,,11010,001,2024_Jan_01_2003,nback,2021.2.3,59.85361004073735,
1-back,instructions\back-1.png,conditions\1back-p.xlsx,instructions\1-BACK.png,"(25, 15)",practice,1,3,stim\gray.png,stim\gray.png,stim\yellow.png,stim\gray.png,down,0,0,0,0,0,1,1,1,0,7,7,7,,,,,,,,,,,,,,,,,,,,,,,,,,,179.41754499997478,180.41923449997557,179.41754499997478,180.41923449997557,179.41754499997478,180.41923449997557,179.41754499997478,180.41923449997557,right,0,1.308921999996528,179.41754499997478,None,179.41754499997478,None,179.41754499997478,179.91854969999986,179.41754499997478,179.91854969999986,179.41754499997478,179.91854969999986,179.41754499997478,179.91854969999986,179.41754499997478,None,,,,,,,,,,,,,,,,,,,,,,,,,,,,,,,,,,,,,,,,,,11010,001,2024_Jan_01_2003,nback,2021.2.3,59.85361004073735,
1-back,instructions\back-1.png,conditions\1back-p.xlsx,instructions\1-BACK.png,"(25, 15)",practice,1,3,stim\gray.png,stim\gray.png,stim\yellow.png,stim\gray.png,right,0,0,0,0,0,1,1,1,0,8,8,8,,,,,,,,,,,,,,,,,,,,,,,,,,,180.9201560000074,181.92269549996126,180.9201560000074,181.92269549996126,180.9201560000074,181.92269549996126,180.9201560000074,181.92269549996126,None,0,,180.9201560000074,None,180.9201560000074,None,180.9201560000074,181.42080289998557,180.9201560000074,181.42080289998557,180.9201560000074,181.42080289998557,180.9201560000074,181.42080289998557,180.9201560000074,None,,,,,,,,,,,,,,,,,,,,,,,,,,,,,,,,,,,,,,,,,,11010,001,2024_Jan_01_2003,nback,2021.2.3,59.85361004073735,
1-back,instructions\back-1.png,conditions\1back-p.xlsx,instructions\1-BACK.png,"(25, 15)",practice,1,4,stim\gray.png,stim\gray.png,stim\gray.png,stim\yellow.png,right,0,0,0,0,0,1,1,1,0,9,9,9,,,,,,,,,,,,,,,,,,,,,,,,,,,182.4218490999774,183.4233310999698,182.4218490999774,183.4233310999698,182.4218490999774,183.4233310999698,182.4218490999774,183.4233310999698,None,0,,182.4218490999774,None,182.4218490999774,None,182.4218490999774,182.9226877000183,182.4218490999774,182.9226877000183,182.4218490999774,182.9226877000183,182.4218490999774,182.9226877000183,182.4218490999774,None,,,,,,,,,,,,,,,,,,,,,,,,,,,,,,,,,,,,,,,,,,11010,001,2024_Jan_01_2003,nback,2021.2.3,59.85361004073735,
1-back,instructions\back-1.png,conditions\1back-p.xlsx,instructions\1-BACK.png,"(25, 15)",practice,1,1,stim\yellow.png,stim\gray.png,stim\gray.png,stim\gray.png,down,0,0,0,0,0,1,1,1,0,10,10,10,,,,,,,,,,,,,,,,,,,,,,,,,,,183.92422330001136,184.92620749998605,183.92422330001136,184.92620749998605,183.92422330001136,184.92620749998605,183.92422330001136,184.92620749998605,up,0,0.5785368999931961,183.92422330001136,None,183.92422330001136,None,183.92422330001136,184.42516479996266,183.92422330001136,184.42516479996266,183.92422330001136,184.42516479996266,183.92422330001136,184.42516479996266,183.92422330001136,None,,,,,,,,,,,,,,,,,,,,,,,,,,,,,,,,,,,,,,,,,,11010,001,2024_Jan_01_2003,nback,2021.2.3,59.85361004073735,
1-back,instructions\back-1.png,conditions\1back-p.xlsx,instructions\1-BACK.png,"(25, 15)",practice,1,2,stim\gray.png,stim\yellow.png,stim\gray.png,stim\gray.png,up,0,0,0,0,0,1,1,1,0,11,11,11,,,,,,,,,,,,,,,,,,,,,,,,,,,185.42641650000587,186.42816269997275,185.42641650000587,186.42816269997275,185.42641650000587,186.42816269997275,185.42641650000587,186.42816269997275,up,1,0.4441031999886036,185.42641650000587,None,185.42641650000587,None,185.42641650000587,185.92749819997698,185.42641650000587,185.92749819997698,185.42641650000587,185.92749819997698,185.42641650000587,185.92749819997698,185.42641650000587,None,,,,,,,,,,,,,,,,,,,,,,,,,,,,,,,,,,,,,,,,,,11010,001,2024_Jan_01_2003,nback,2021.2.3,59.85361004073735,
1-back,instructions\back-1.png,conditions\1back-p.xlsx,instructions\1-BACK.png,"(25, 15)",practice,1,4,stim\gray.png,stim\gray.png,stim\gray.png,stim\yellow.png,left,0,0,0,0,0,1,1,1,0,12,12,12,,,,,,,,,,,,,,,,,,,,,,,,,,,186.92863350000698,187.93006849999074,186.92863350000698,187.93006849999074,186.92863350000698,187.93006849999074,186.92863350000698,187.93006849999074,left,1,0.18241890001809224,186.92863350000698,None,186.92863350000698,None,186.92863350000698,187.42927670001518,186.92863350000698,187.42927670001518,186.92863350000698,187.42927670001518,186.92863350000698,187.42927670001518,186.92863350000698,None,,,,,,,,,,,,,,,,,,,,,,,,,,,,,,,,,,,,,,,,,,11010,001,2024_Jan_01_2003,nback,2021.2.3,59.85361004073735,
1-back,instructions\back-1.png,conditions\1back-p.xlsx,instructions\1-BACK.png,"(25, 15)",practice,1,3,stim\gray.png,stim\gray.png,stim\yellow.png,stim\gray.png,down,0,0,0,0,0,1,1,1,0,13,13,13,,,,,,,,,,,,,,,,,,,,,,,,,,,188.43072609999217,189.43232269998407,188.43072609999217,189.43232269998407,188.43072609999217,189.43232269998407,188.43072609999217,189.43232269998407,down,1,0.2718167999992147,188.43072609999217,None,188.43072609999217,None,188.43072609999217,188.9315448999987,188.43072609999217,188.9315448999987,188.43072609999217,188.9315448999987,188.43072609999217,188.9315448999987,188.43072609999217,None,,,,,,,,,,,,,,,,,,,,,,,,,,,,,,,,,,,,,,,,,,11010,001,2024_Jan_01_2003,nback,2021.2.3,59.85361004073735,
1-back,instructions\back-1.png,conditions\1back-p.xlsx,instructions\1-BACK.png,"(25, 15)",practice,1,1,stim\yellow.png,stim\gray.png,stim\gray.png,stim\gray.png,right,0,0,0,0,0,1,1,1,0,14,14,14,,,,,,,,,,,,,,,,,,,,,,,,,,,189.91620849998435,190.9184986000182,189.91620849998435,190.9184986000182,189.91620849998435,190.9184986000182,189.91620849998435,190.9184986000182,right,1,0.29822280001826584,189.91620849998435,None,189.91620849998435,None,189.91620849998435,190.4174478999921,189.91620849998435,190.4174478999921,189.91620849998435,190.4174478999921,189.91620849998435,190.4174478999921,189.91620849998435,None,,,,,,,,,,,,,,,,,,,,,,,,,,,,,,,,,,,,,,,,,,11010,001,2024_Jan_01_2003,nback,2021.2.3,59.85361004073735,
1-back,instructions\back-1.png,conditions\1back-p.xlsx,instructions\1-BACK.png,"(25, 15)",practice,1,2,stim\gray.png,stim\yellow.png,stim\gray.png,stim\gray.png,up,0,0,0,0,0,1,1,1,0,15,15,15,,,,,,,,,,,,,,,,,,,,,,,,,,,191.41867859999184,192.420241899963,191.41867859999184,192.420241899963,191.41867859999184,192.420241899963,191.41867859999184,192.420241899963,up,1,0.33181210001930594,191.41867859999184,None,191.41867859999184,None,191.41867859999184,191.9192367999931,191.41867859999184,191.9192367999931,191.41867859999184,191.9192367999931,191.41867859999184,191.9192367999931,191.41867859999184,None,,,,,,,,,,,,,,,,,,,,,,,,,,,,,,,,,,,,,,,,,,11010,001,2024_Jan_01_2003,nback,2021.2.3,59.85361004073735,
1-back,instructions\back-1.png,conditions\1back-p.xlsx,instructions\1-BACK.png,"(25, 15)",practice,1,3,stim\gray.png,stim\gray.png,stim\yellow.png,stim\gray.png,left,0,0,0,0,0,1,1,1,0,16,16,16,,,,,,,,,,,,,,,,,,,,,,,,,,,192.92145189997973,193.92270850000205,192.92145189997973,193.92270850000205,192.92145189997973,193.92270850000205,192.92145189997973,193.92270850000205,left,1,0.31761179998284206,192.92145189997973,None,192.92145189997973,None,192.92145189997973,193.42159489996266,192.92145189997973,193.42159489996266,192.92145189997973,193.42159489996266,192.92145189997973,193.42159489996266,192.92145189997973,None,,,,,,,,,,,,,,,,,,,,,,,,,,,,,,,,,,,,,,,,,,11010,001,2024_Jan_01_2003,nback,2021.2.3,59.85361004073735,
1-back,instructions\back-1.png,conditions\1back-p.xlsx,instructions\1-BACK.png,"(25, 15)",practice,1,1,stim\yellow.png,stim\gray.png,stim\gray.png,stim\gray.png,right,0,0,0,0,0,1,1,1,0,17,17,17,,,,,,,,,,,,,,,,,,,,,,,,,,,194.42347059998428,195.4246544999769,194.42347059998428,195.4246544999769,194.42347059998428,195.4246544999769,194.42347059998428,195.4246544999769,right,1,0.1749341000104323,194.42347059998428,None,194.42347059998428,None,194.42347059998428,194.92376709997188,194.42347059998428,194.92376709997188,194.42347059998428,194.92376709997188,194.42347059998428,194.92376709997188,194.42347059998428,None,,,,,,,,,,,,,,,,,,,,,,,,,,,,,,,,,,,,,,,,,,11010,001,2024_Jan_01_2003,nback,2021.2.3,59.85361004073735,
1-back,instructions\back-1.png,conditions\1back-p.xlsx,instructions\1-BACK.png,"(25, 15)",practice,1,4,stim\gray.png,stim\gray.png,stim\gray.png,stim\yellow.png,up,0,0,0,0,0,1,1,1,0,18,18,18,,,,,,,,,,,,,,,,,,,,,,,,,,,195.92528069997206,196.92663609999,195.92528069997206,196.92663609999,195.92528069997206,196.92663609999,195.92528069997206,196.92663609999,up,1,0.22522550000576302,195.92528069997206,None,195.92528069997206,None,195.92528069997206,196.42594609997468,195.92528069997206,196.42594609997468,195.92528069997206,196.42594609997468,195.92528069997206,196.42594609997468,195.92528069997206,None,,,,,,,,,,,,,,,,,,,,,,,,,,,,,,,,,,,,,,,,,,11010,001,2024_Jan_01_2003,nback,2021.2.3,59.85361004073735,
1-back,instructions\back-1.png,conditions\1back-p.xlsx,instructions\1-BACK.png,"(25, 15)",practice,1,2,stim\gray.png,stim\yellow.png,stim\gray.png,stim\gray.png,down,0,0,0,0,0,1,1,1,0,19,19,19,,,,,,,,,,,,,,,,,,,,,,,,,,,197.42753169999924,198.42907469999045,197.42753169999924,198.42907469999045,197.42753169999924,198.42907469999045,197.42753169999924,198.42907469999045,down,1,0.26779739995254204,197.42753169999924,None,197.42753169999924,None,197.42753169999924,197.92828369996278,197.42753169999924,197.92828369996278,197.42753169999924,197.92828369996278,197.42753169999924,197.92828369996278,197.42753169999924,None,,,,,,,,,,,,,,,,,,,,,,,,,,,,,,,,,,,,,,,,,,11010,001,2024_Jan_01_2003,nback,2021.2.3,59.85361004073735,
1-back,instructions\back-1.png,conditions\1back-p.xlsx,instructions\1-BACK.png,"(25, 15)",,,,,,,,,0,0,0,0,0,1,1,1,,,,,,,,,,,,,,,,,,,,,,,,,,,,,,,,,,,,,,,,,,,,,,,,,,,,,,,,,,,,,,,,,,,,,,,,,,,,,,,,,,,,,,,,,,,,,,,,,11010,001,2024_Jan_01_2003,nback,2021.2.3,59.85361004073735,
2-back,instructions\back-2.png,conditions\2back-p.xlsx,instructions\2-BACK.png,"(25, 15)",practice,2,1,stim\yellow.png,stim\gray.png,stim\gray.png,stim\gray.png,None,0,0,0,0,0,2,2,2,0,0,0,0,,,,,,,,,,,,,,,,,199.06319939997047,None,space,6.175808000029065,199.06319939997047,None,205.40592109999852,209.9135095999809,209.86276009998983,None,210.28056290000677,211.28173210000386,210.28056290000677,211.28173210000386,210.28056290000677,211.28173210000386,210.28056290000677,211.28173210000386,None,1,,210.28056290000677,None,210.28056290000677,None,210.28056290000677,210.78134479996515,210.28056290000677,210.78134479996515,210.28056290000677,210.78134479996515,210.28056290000677,210.78134479996515,210.28056290000677,None,,,,,,,,,,,,,,,,,,,,,,,,,,,,,,,,,,,,,,,,,,11010,001,2024_Jan_01_2003,nback,2021.2.3,59.85361004073735,
2-back,instructions\back-2.png,conditions\2back-p.xlsx,instructions\2-BACK.png,"(25, 15)",practice,2,2,stim\gray.png,stim\yellow.png,stim\gray.png,stim\gray.png,None,0,0,0,0,0,2,2,2,0,1,1,1,,,,,,,,,,,,,,,,,,,,,,,,,,,211.76543049997417,212.76696059998358,211.76543049997417,212.76696059998358,211.76543049997417,212.76696059998358,211.76543049997417,212.76696059998358,None,1,,211.76543049997417,None,211.76543049997417,None,211.76543049997417,212.26614590000827,211.76543049997417,212.26614590000827,211.76543049997417,212.26614590000827,211.76543049997417,212.26614590000827,211.76543049997417,None,,,,,,,,,,,,,,,,,,,,,,,,,,,,,,,,,,,,,,,,,,11010,001,2024_Jan_01_2003,nback,2021.2.3,59.85361004073735,
2-back,instructions\back-2.png,conditions\2back-p.xlsx,instructions\2-BACK.png,"(25, 15)",practice,2,3,stim\gray.png,stim\gray.png,stim\yellow.png,stim\gray.png,up,0,0,0,0,0,2,2,2,0,2,2,2,,,,,,,,,,,,,,,,,,,,,,,,,,,213.2677732000011,214.26935630000662,213.2677732000011,214.26935630000662,213.2677732000011,214.26935630000662,213.2677732000011,214.26935630000662,up,1,0.41062260000035167,213.2677732000011,None,213.2677732000011,None,213.2677732000011,213.76859559997683,213.2677732000011,213.76859559997683,213.2677732000011,213.76859559997683,213.2677732000011,213.76859559997683,213.2677732000011,None,,,,,,,,,,,,,,,,,,,,,,,,,,,,,,,,,,,,,,,,,,11010,001,2024_Jan_01_2003,nback,2021.2.3,59.85361004073735,
2-back,instructions\back-2.png,conditions\2back-p.xlsx,instructions\2-BACK.png,"(25, 15)",practice,2,4,stim\gray.png,stim\gray.png,stim\gray.png,stim\yellow.png,left,0,0,0,0,0,2,2,2,0,3,3,3,,,,,,,,,,,,,,,,,,,,,,,,,,,214.76985969999805,215.77189410000574,214.76985969999805,215.77189410000574,214.76985969999805,215.77189410000574,214.76985969999805,215.77189410000574,left,1,0.340880100033246,214.76985969999805,None,214.76985969999805,None,214.76985969999805,215.27151290001348,214.76985969999805,215.27151290001348,214.76985969999805,215.27151290001348,214.76985969999805,215.27151290001348,214.76985969999805,None,,,,,,,,,,,,,,,,,,,,,,,,,,,,,,,,,,,,,,,,,,11010,001,2024_Jan_01_2003,nback,2021.2.3,59.85361004073735,
2-back,instructions\back-2.png,conditions\2back-p.xlsx,instructions\2-BACK.png,"(25, 15)",practice,2,2,stim\gray.png,stim\yellow.png,stim\gray.png,stim\gray.png,right,0,0,0,0,0,2,2,2,0,4,4,4,,,,,,,,,,,,,,,,,,,,,,,,,,,216.27213679999113,217.27424850000534,216.27213679999113,217.27424850000534,216.27213679999113,217.27424850000534,216.27213679999113,217.27424850000534,right,1,0.20663260004948825,216.27213679999113,None,216.27213679999113,None,216.27213679999113,216.77294140000595,216.27213679999113,216.77294140000595,216.27213679999113,216.77294140000595,216.27213679999113,216.77294140000595,216.27213679999113,None,,,,,,,,,,,,,,,,,,,,,,,,,,,,,,,,,,,,,,,,,,11010,001,2024_Jan_01_2003,nback,2021.2.3,59.85361004073735,
2-back,instructions\back-2.png,conditions\2back-p.xlsx,instructions\2-BACK.png,"(25, 15)",practice,2,1,stim\yellow.png,stim\gray.png,stim\gray.png,stim\gray.png,down,0,0,0,0,0,2,2,2,0,5,5,5,,,,,,,,,,,,,,,,,,,,,,,,,,,217.77438949997304,218.77810950001003,217.77438949997304,218.77810950001003,217.77438949997304,218.77810950001003,217.77438949997304,218.77810950001003,down,1,0.20807849999982864,217.77438949997304,None,217.77438949997304,None,217.77438949997304,218.27504769997904,217.77438949997304,218.27504769997904,217.77438949997304,218.27504769997904,217.77438949997304,218.27504769997904,217.77438949997304,None,,,,,,,,,,,,,,,,,,,,,,,,,,,,,,,,,,,,,,,,,,11010,001,2024_Jan_01_2003,nback,2021.2.3,59.85361004073735,
2-back,instructions\back-2.png,conditions\2back-p.xlsx,instructions\2-BACK.png,"(25, 15)",practice,2,4,stim\gray.png,stim\gray.png,stim\gray.png,stim\yellow.png,left,0,0,0,0,0,2,2,2,0,6,6,6,,,,,,,,,,,,,,,,,,,,,,,,,,,219.25972949998686,220.2612938999664,219.25972949998686,220.2612938999664,219.25972949998686,220.2612938999664,219.25972949998686,220.2612938999664,left,1,0.09103170002344996,219.25972949998686,None,219.25972949998686,None,219.25972949998686,219.76127949997317,219.25972949998686,219.76127949997317,219.25972949998686,219.76127949997317,219.25972949998686,219.76127949997317,219.25972949998686,None,,,,,,,,,,,,,,,,,,,,,,,,,,,,,,,,,,,,,,,,,,11010,001,2024_Jan_01_2003,nback,2021.2.3,59.85361004073735,
2-back,instructions\back-2.png,conditions\2back-p.xlsx,instructions\2-BACK.png,"(25, 15)",practice,2,3,stim\gray.png,stim\gray.png,stim\yellow.png,stim\gray.png,up,0,0,0,0,0,2,2,2,0,7,7,7,,,,,,,,,,,,,,,,,,,,,,,,,,,220.76200250000693,221.76435169996694,220.76200250000693,221.76435169996694,220.76200250000693,221.76435169996694,220.76200250000693,221.76435169996694,up,1,0.2523801999632269,220.76200250000693,None,220.76200250000693,None,220.76200250000693,221.26324569998542,220.76200250000693,221.26324569998542,220.76200250000693,221.26324569998542,220.76200250000693,221.26324569998542,220.76200250000693,None,,,,,,,,,,,,,,,,,,,,,,,,,,,,,,,,,,,,,,,,,,11010,001,2024_Jan_01_2003,nback,2021.2.3,59.85361004073735,
2-back,instructions\back-2.png,conditions\2back-p.xlsx,instructions\2-BACK.png,"(25, 15)",practice,2,3,stim\gray.png,stim\gray.png,stim\yellow.png,stim\gray.png,down,0,0,0,0,0,2,2,2,0,8,8,8,,,,,,,,,,,,,,,,,,,,,,,,,,,222.2644984999788,223.2657051999704,222.2644984999788,223.2657051999704,222.2644984999788,223.2657051999704,222.2644984999788,223.2657051999704,down,1,0.062032699992414564,222.2644984999788,None,222.2644984999788,None,222.2644984999788,222.76505829999223,222.2644984999788,222.76505829999223,222.2644984999788,222.76505829999223,222.2644984999788,222.76505829999223,222.2644984999788,None,,,,,,,,,,,,,,,,,,,,,,,,,,,,,,,,,,,,,,,,,,11010,001,2024_Jan_01_2003,nback,2021.2.3,59.85361004073735,
2-back,instructions\back-2.png,conditions\2back-p.xlsx,instructions\2-BACK.png,"(25, 15)",practice,2,4,stim\gray.png,stim\gray.png,stim\gray.png,stim\yellow.png,right,0,0,0,0,0,2,2,2,0,9,9,9,,,,,,,,,,,,,,,,,,,,,,,,,,,223.76649289997295,224.7679644000018,223.76649289997295,224.7679644000018,223.76649289997295,224.7679644000018,223.76649289997295,224.7679644000018,right,1,0.16839740000432357,223.76649289997295,None,223.76649289997295,None,223.76649289997295,224.2671338999644,223.76649289997295,224.2671338999644,223.76649289997295,224.2671338999644,223.76649289997295,224.2671338999644,223.76649289997295,None,,,,,,,,,,,,,,,,,,,,,,,,,,,,,,,,,,,,,,,,,,11010,001,2024_Jan_01_2003,nback,2021.2.3,59.85361004073735,
2-back,instructions\back-2.png,conditions\2back-p.xlsx,instructions\2-BACK.png,"(25, 15)",practice,2,1,stim\yellow.png,stim\gray.png,stim\gray.png,stim\gray.png,right,0,0,0,0,0,2,2,2,0,10,10,10,,,,,,,,,,,,,,,,,,,,,,,,,,,225.26884579996113,226.27102749998448,225.26884579996113,226.27102749998448,225.26884579996113,226.27102749998448,225.26884579996113,226.27102749998448,None,0,,225.26884579996113,None,225.26884579996113,None,225.26884579996113,225.77026869996917,225.26884579996113,225.77026869996917,225.26884579996113,225.77026869996917,225.26884579996113,225.77026869996917,225.26884579996113,None,,,,,,,,,,,,,,,,,,,,,,,,,,,,,,,,,,,,,,,,,,11010,001,2024_Jan_01_2003,nback,2021.2.3,59.85361004073735,
2-back,instructions\back-2.png,conditions\2back-p.xlsx,instructions\2-BACK.png,"(25, 15)",practice,2,2,stim\gray.png,stim\yellow.png,stim\gray.png,stim\gray.png,down,0,0,0,0,0,2,2,2,0,11,11,11,,,,,,,,,,,,,,,,,,,,,,,,,,,226.77079679997405,227.77266760001658,226.77079679997405,227.77266760001658,226.77079679997405,227.77266760001658,226.77079679997405,227.77266760001658,down,1,0.4915760000003502,226.77079679997405,None,226.77079679997405,None,226.77079679997405,227.27170809998643,226.77079679997405,227.27170809998643,226.77079679997405,227.27170809998643,226.77079679997405,227.27170809998643,226.77079679997405,None,,,,,,,,,,,,,,,,,,,,,,,,,,,,,,,,,,,,,,,,,,11010,001,2024_Jan_01_2003,nback,2021.2.3,59.85361004073735,
2-back,instructions\back-2.png,conditions\2back-p.xlsx,instructions\2-BACK.png,"(25, 15)",practice,2,4,stim\gray.png,stim\gray.png,stim\gray.png,stim\yellow.png,up,0,0,0,0,0,2,2,2,0,12,12,12,,,,,,,,,,,,,,,,,,,,,,,,,,,228.27366920001805,229.27526299998863,228.27366920001805,229.27526299998863,228.27366920001805,229.27526299998863,228.27366920001805,229.27526299998863,up,1,0.7249384999740869,228.27366920001805,None,228.27366920001805,None,228.27366920001805,228.77476960001513,228.27366920001805,228.77476960001513,228.27366920001805,228.77476960001513,228.27366920001805,228.77476960001513,228.27366920001805,None,,,,,,,,,,,,,,,,,,,,,,,,,,,,,,,,,,,,,,,,,,11010,001,2024_Jan_01_2003,nback,2021.2.3,59.85361004073735,
2-back,instructions\back-2.png,conditions\2back-p.xlsx,instructions\2-BACK.png,"(25, 15)",practice,2,3,stim\gray.png,stim\gray.png,stim\yellow.png,stim\gray.png,left,0,0,0,0,0,2,2,2,0,13,13,13,,,,,,,,,,,,,,,,,,,,,,,,,,,229.77539069997147,230.77705380000407,229.77539069997147,230.77705380000407,229.77539069997147,230.77705380000407,229.77539069997147,230.77705380000407,right,0,0.7912801000056788,229.77539069997147,None,229.77539069997147,None,229.77539069997147,230.27688859996852,229.77539069997147,230.27688859996852,229.77539069997147,230.27688859996852,229.77539069997147,230.27688859996852,229.77539069997147,None,,,,,,,,,,,,,,,,,,,,,,,,,,,,,,,,,,,,,,,,,,11010,001,2024_Jan_01_2003,nback,2021.2.3,59.85361004073735,
2-back,instructions\back-2.png,conditions\2back-p.xlsx,instructions\2-BACK.png,"(25, 15)",practice,2,1,stim\yellow.png,stim\gray.png,stim\gray.png,stim\gray.png,down,0,0,0,0,0,2,2,2,0,14,14,14,,,,,,,,,,,,,,,,,,,,,,,,,,,231.26112919999287,232.26234269997803,231.26112919999287,232.26234269997803,231.26112919999287,232.26234269997803,231.26112919999287,232.26234269997803,up,0,0.9857531000161543,231.26112919999287,None,231.26112919999287,None,231.26112919999287,231.76167380000697,231.26112919999287,231.76167380000697,231.26112919999287,231.76167380000697,231.26112919999287,231.76167380000697,231.26112919999287,None,,,,,,,,,,,,,,,,,,,,,,,,,,,,,,,,,,,,,,,,,,11010,001,2024_Jan_01_2003,nback,2021.2.3,59.85361004073735,
2-back,instructions\back-2.png,conditions\2back-p.xlsx,instructions\2-BACK.png,"(25, 15)",practice,2,2,stim\gray.png,stim\yellow.png,stim\gray.png,stim\gray.png,right,0,0,0,0,0,2,2,2,0,15,15,15,,,,,,,,,,,,,,,,,,,,,,,,,,,232.76317890000064,233.76597249996848,232.76317890000064,233.76597249996848,232.76317890000064,233.76597249996848,232.76317890000064,233.76597249996848,None,0,,232.76317890000064,None,232.76317890000064,None,232.76317890000064,233.26390839996748,232.76317890000064,233.26390839996748,232.76317890000064,233.26390839996748,232.76317890000064,233.26390839996748,232.76317890000064,None,,,,,,,,,,,,,,,,,,,,,,,,,,,,,,,,,,,,,,,,,,11010,001,2024_Jan_01_2003,nback,2021.2.3,59.85361004073735,
2-back,instructions\back-2.png,conditions\2back-p.xlsx,instructions\2-BACK.png,"(25, 15)",practice,2,3,stim\gray.png,stim\gray.png,stim\yellow.png,stim\gray.png,up,0,0,0,0,0,2,2,2,0,16,16,16,,,,,,,,,,,,,,,,,,,,,,,,,,,234.2654231999768,235.26883640000597,234.2654231999768,235.26883640000597,234.2654231999768,235.26883640000597,234.2654231999768,235.26883640000597,None,0,,234.2654231999768,None,234.2654231999768,None,234.2654231999768,234.76669600000605,234.2654231999768,234.76669600000605,234.2654231999768,234.76669600000605,234.2654231999768,234.76669600000605,234.2654231999768,None,,,,,,,,,,,,,,,,,,,,,,,,,,,,,,,,,,,,,,,,,,11010,001,2024_Jan_01_2003,nback,2021.2.3,59.85361004073735,
2-back,instructions\back-2.png,conditions\2back-p.xlsx,instructions\2-BACK.png,"(25, 15)",practice,2,1,stim\yellow.png,stim\gray.png,stim\gray.png,stim\gray.png,left,0,0,0,0,0,2,2,2,0,17,17,17,,,,,,,,,,,,,,,,,,,,,,,,,,,235.7676414999878,236.76912109996192,235.7676414999878,236.76912109996192,235.7676414999878,236.76912109996192,235.7676414999878,236.76912109996192,left,1,0.3187997000059113,235.7676414999878,None,235.7676414999878,None,235.7676414999878,236.2686515999958,235.7676414999878,236.2686515999958,235.7676414999878,236.2686515999958,235.7676414999878,236.2686515999958,235.7676414999878,None,,,,,,,,,,,,,,,,,,,,,,,,,,,,,,,,,,,,,,,,,,11010,001,2024_Jan_01_2003,nback,2021.2.3,59.85361004073735,
2-back,instructions\back-2.png,conditions\2back-p.xlsx,instructions\2-BACK.png,"(25, 15)",practice,2,4,stim\gray.png,stim\gray.png,stim\gray.png,stim\yellow.png,right,0,0,0,0,0,2,2,2,0,18,18,18,,,,,,,,,,,,,,,,,,,,,,,,,,,237.27004759997362,238.27175089996308,237.27004759997362,238.27175089996308,237.27004759997362,238.27175089996308,237.27004759997362,238.27175089996308,right,1,0.28869969997322187,237.27004759997362,None,237.27004759997362,None,237.27004759997362,237.77126660000067,237.27004759997362,237.77126660000067,237.27004759997362,237.77126660000067,237.27004759997362,237.77126660000067,237.27004759997362,None,,,,,,,,,,,,,,,,,,,,,,,,,,,,,,,,,,,,,,,,,,11010,001,2024_Jan_01_2003,nback,2021.2.3,59.85361004073735,
2-back,instructions\back-2.png,conditions\2back-p.xlsx,instructions\2-BACK.png,"(25, 15)",practice,2,2,stim\gray.png,stim\yellow.png,stim\gray.png,stim\gray.png,up,0,0,0,0,0,2,2,2,0,19,19,19,,,,,,,,,,,,,,,,,,,,,,,,,,,238.7719678999856,239.77481450000778,238.7719678999856,239.77481450000778,238.7719678999856,239.77481450000778,238.7719678999856,239.77481450000778,up,1,0.16271859995322302,238.7719678999856,None,238.7719678999856,None,238.7719678999856,239.27291299996432,238.7719678999856,239.27291299996432,238.7719678999856,239.27291299996432,238.7719678999856,239.27291299996432,238.7719678999856,None,,,,,,,,,,,,,,,,,,,,,,,,,,,,,,,,,,,,,,,,,,11010,001,2024_Jan_01_2003,nback,2021.2.3,59.85361004073735,
2-back,instructions\back-2.png,conditions\2back-p.xlsx,instructions\2-BACK.png,"(25, 15)",,,,,,,,,0,0,0,0,0,2,2,2,,,,,,,,,,,,,,,,,,,,,,,,,,,,,,,,,,,,,,,,,,,,,,,,,,,,,,,,,,,,,,,,,,,,,,,,,,,,,,,,,,,,,,,,,,,,,,,,,11010,001,2024_Jan_01_2003,nback,2021.2.3,59.85361004073735,
,,,,,,,,,,,,,0,0,0,0,,,,,,,,,,,,,,,,,,,,,,,,,,,,,,,,,,,,,,,,,,,,,,,,,,,,,,,,,,,,240.27441279997583,None,space,29.635904299968388,240.27441279997583,None,,,,,,,,,,,,,,,,,,,,,,,,,,,,,,,,,,,,11010,001,2024_Jan_01_2003,nback,2021.2.3,59.85361004073735,
,,,,,,,,,,,,,,,,,,,,,,,,,,,,,,,,,,,,,,,,,,,,,,,,,,,,,,,,,,,,,,,,,,,,,,,,,,,,,,,,,,269.934844399977,None,space,3.24815060000401,269.934844399977,None,,,,,,,,,,,,,,,,,,,,,,,,,,,,,,11010,001,2024_Jan_01_2003,nback,2021.2.3,59.85361004073735,
2-back,instructions\back-2.png,conditions\21back-e.xlsx,,,experiment,2,3,stim\gray.png,stim\gray.png,stim\yellow.png,stim\gray.png,None,,,,,,,,,,,,,0,0,0,3,0,0,0,0,,,,,,,,,,,,,,,273.3399367000093,277.84728380001616,277.8133299999754,None,,,,,,,,,,,,,,,,,,,,,,,,,,,,,,,,,,,,,,None,1,278.23046029999387,None,278.23046029999387,None,278.23046029999387,279.23250559996814,278.23046029999387,279.23250559996814,278.23046029999387,279.23250559996814,278.23046029999387,279.23250559996814,278.23046029999387,278.7315040999674,278.23046029999387,278.7315040999674,278.23046029999387,278.7315040999674,278.23046029999387,278.7315040999674,278.23046029999387,None,,,,,,11010,001,2024_Jan_01_2003,nback,2021.2.3,59.85361004073735,
2-back,instructions\back-2.png,conditions\21back-e.xlsx,,,experiment,2,4,stim\gray.png,stim\gray.png,stim\gray.png,stim\yellow.png,None,,,,,,,,,,,,,0,0,0,3,0,1,1,1,,,,,,,,,,,,,,,,,,,,,,,,,,,,,,,,,,,,,,,,,,,,,,,,,,,,,,,,None,1,279.7161116999923,None,279.7161116999923,None,279.7161116999923,280.7189069999731,279.7161116999923,280.7189069999731,279.7161116999923,280.7189069999731,279.7161116999923,280.7189069999731,279.7161116999923,280.21722130000126,279.7161116999923,280.21722130000126,279.7161116999923,280.21722130000126,279.7161116999923,280.21722130000126,279.7161116999923,None,,,,,,11010,001,2024_Jan_01_2003,nback,2021.2.3,59.85361004073735,
2-back,instructions\back-2.png,conditions\21back-e.xlsx,,,experiment,2,1,stim\yellow.png,stim\gray.png,stim\gray.png,stim\gray.png,right,,,,,,,,,,,,,0,0,0,3,0,2,2,2,,,,,,,,,,,,,,,,,,,,,,,,,,,,,,,,,,,,,,,,,,,,,,,,,,,,,,,,right,1,281.2183509999886,None,281.2183509999886,None,281.2183509999886,282.219835099997,281.2183509999886,282.219835099997,281.2183509999886,282.219835099997,281.2183509999886,282.219835099997,281.2183509999886,281.71971440000925,281.2183509999886,281.71971440000925,281.2183509999886,281.71971440000925,281.2183509999886,281.71971440000925,281.2183509999886,None,0.3565470000030473,,,,,11010,001,2024_Jan_01_2003,nback,2021.2.3,59.85361004073735,
2-back,instructions\back-2.png,conditions\21back-e.xlsx,,,experiment,2,2,stim\gray.png,stim\yellow.png,stim\gray.png,stim\gray.png,down,,,,,,,,,,,,,0,0,0,3,0,3,3,3,,,,,,,,,,,,,,,,,,,,,,,,,,,,,,,,,,,,,,,,,,,,,,,,,,,,,,,,down,1,282.72120719996747,None,282.72120719996747,None,282.72120719996747,283.72285660001216,282.72120719996747,283.72285660001216,282.72120719996747,283.72285660001216,282.72120719996747,283.72285660001216,282.72120719996747,283.22140470001614,282.72120719996747,283.22140470001614,282.72120719996747,283.22140470001614,282.72120719996747,283.22140470001614,282.72120719996747,None,0.42157169996062294,,,,,11010,001,2024_Jan_01_2003,nback,2021.2.3,59.85361004073735,
2-back,instructions\back-2.png,conditions\21back-e.xlsx,,,experiment,2,1,stim\yellow.png,stim\gray.png,stim\gray.png,stim\gray.png,up,,,,,,,,,,,,,0,0,0,3,0,4,4,4,,,,,,,,,,,,,,,,,,,,,,,,,,,,,,,,,,,,,,,,,,,,,,,,,,,,,,,,up,1,284.2234681000118,None,284.2234681000118,None,284.2234681000118,285.22493600001326,284.2234681000118,285.22493600001326,284.2234681000118,285.22493600001326,284.2234681000118,285.22493600001326,284.2234681000118,284.7237622999819,284.2234681000118,284.7237622999819,284.2234681000118,284.7237622999819,284.2234681000118,284.7237622999819,284.2234681000118,None,0.30302819999633357,,,,,11010,001,2024_Jan_01_2003,nback,2021.2.3,59.85361004073735,
2-back,instructions\back-2.png,conditions\21back-e.xlsx,,,experiment,2,2,stim\gray.png,stim\yellow.png,stim\gray.png,stim\gray.png,left,,,,,,,,,,,,,0,0,0,3,0,5,5,5,,,,,,,,,,,,,,,,,,,,,,,,,,,,,,,,,,,,,,,,,,,,,,,,,,,,,,,,left,1,285.725106399972,None,285.725106399972,None,285.725106399972,286.7264972999692,285.725106399972,286.7264972999692,285.725106399972,286.7264972999692,285.725106399972,286.7264972999692,285.725106399972,286.2259790999815,285.725106399972,286.2259790999815,285.725106399972,286.2259790999815,285.725106399972,286.2259790999815,285.725106399972,None,0.21776510000927374,,,,,11010,001,2024_Jan_01_2003,nback,2021.2.3,59.85361004073735,
2-back,instructions\back-2.png,conditions\21back-e.xlsx,,,experiment,2,3,stim\gray.png,stim\gray.png,stim\yellow.png,stim\gray.png,up,,,,,,,,,,,,,0,0,0,3,0,6,6,6,,,,,,,,,,,,,,,,,,,,,,,,,,,,,,,,,,,,,,,,,,,,,,,,,,,,,,,,left,0,287.2109083000105,None,287.2109083000105,None,287.2109083000105,288.2131521999836,287.2109083000105,288.2131521999836,287.2109083000105,288.2131521999836,287.2109083000105,288.2131521999836,287.2109083000105,287.7114706999855,287.2109083000105,287.7114706999855,287.2109083000105,287.7114706999855,287.2109083000105,287.7114706999855,287.2109083000105,None,1.2597133999806829,,,,,11010,001,2024_Jan_01_2003,nback,2021.2.3,59.85361004073735,
2-back,instructions\back-2.png,conditions\21back-e.xlsx,,,experiment,2,4,stim\gray.png,stim\gray.png,stim\gray.png,stim\yellow.png,left,,,,,,,,,,,,,0,0,0,3,0,7,7,7,,,,,,,,,,,,,,,,,,,,,,,,,,,,,,,,,,,,,,,,,,,,,,,,,,,,,,,,None,0,288.7128465999849,None,288.7128465999849,None,288.7128465999849,289.71485709998524,288.7128465999849,289.71485709998524,288.7128465999849,289.71485709998524,288.7128465999849,289.71485709998524,288.7128465999849,289.2135019999696,288.7128465999849,289.2135019999696,288.7128465999849,289.2135019999696,288.7128465999849,289.2135019999696,288.7128465999849,None,,,,,,11010,001,2024_Jan_01_2003,nback,2021.2.3,59.85361004073735,
2-back,instructions\back-2.png,conditions\21back-e.xlsx,,,experiment,2,3,stim\gray.png,stim\gray.png,stim\yellow.png,stim\gray.png,right,,,,,,,,,,,,,0,0,0,3,0,8,8,8,,,,,,,,,,,,,,,,,,,,,,,,,,,,,,,,,,,,,,,,,,,,,,,,,,,,,,,,right,1,290.21504779998213,None,290.21504779998213,None,290.21504779998213,291.2164286999614,290.21504779998213,291.2164286999614,290.21504779998213,291.2164286999614,290.21504779998213,291.2164286999614,290.21504779998213,290.7157751999912,290.21504779998213,290.7157751999912,290.21504779998213,290.7157751999912,290.21504779998213,290.7157751999912,290.21504779998213,None,0.20054369996069,,,,,11010,001,2024_Jan_01_2003,nback,2021.2.3,59.85361004073735,
2-back,instructions\back-2.png,conditions\21back-e.xlsx,,,experiment,2,1,stim\yellow.png,stim\gray.png,stim\gray.png,stim\gray.png,down,,,,,,,,,,,,,0,0,0,3,0,9,9,9,,,,,,,,,,,,,,,,,,,,,,,,,,,,,,,,,,,,,,,,,,,,,,,,,,,,,,,,down,1,291.71707800001604,None,291.71707800001604,None,291.71707800001604,292.719228699978,291.71707800001604,292.719228699978,291.71707800001604,292.719228699978,291.71707800001604,292.719228699978,291.71707800001604,292.2190799000091,291.71707800001604,292.2190799000091,291.71707800001604,292.2190799000091,291.71707800001604,292.2190799000091,291.71707800001604,None,0.1456252000061795,,,,,11010,001,2024_Jan_01_2003,nback,2021.2.3,59.85361004073735,
2-back,instructions\back-2.png,conditions\21back-e.xlsx,,,experiment,2,4,stim\gray.png,stim\gray.png,stim\gray.png,stim\yellow.png,right,,,,,,,,,,,,,0,0,0,3,0,10,10,10,,,,,,,,,,,,,,,,,,,,,,,,,,,,,,,,,,,,,,,,,,,,,,,,,,,,,,,,right,1,293.2194513999857,None,293.2194513999857,None,293.2194513999857,294.2213371999678,293.2194513999857,294.2213371999678,293.2194513999857,294.2213371999678,293.2194513999857,294.2213371999678,293.2194513999857,293.72040910000214,293.2194513999857,293.72040910000214,293.2194513999857,293.72040910000214,293.2194513999857,293.72040910000214,293.2194513999857,None,0.2350134999724105,,,,,11010,001,2024_Jan_01_2003,nback,2021.2.3,59.85361004073735,
2-back,instructions\back-2.png,conditions\21back-e.xlsx,,,experiment,2,2,stim\gray.png,stim\yellow.png,stim\gray.png,stim\gray.png,up,,,,,,,,,,,,,0,0,0,3,0,11,11,11,,,,,,,,,,,,,,,,,,,,,,,,,,,,,,,,,,,,,,,,,,,,,,,,,,,,,,,,up,1,294.72191229998134,None,294.72191229998134,None,294.72191229998134,295.723963299999,294.72191229998134,295.723963299999,294.72191229998134,295.723963299999,294.72191229998134,295.723963299999,294.72191229998134,295.2223566999892,294.72191229998134,295.2223566999892,294.72191229998134,295.2223566999892,294.72191229998134,295.2223566999892,294.72191229998134,None,0.16501830000197515,,,,,11010,001,2024_Jan_01_2003,nback,2021.2.3,59.85361004073735,
2-back,instructions\back-2.png,conditions\21back-e.xlsx,,,experiment,2,4,stim\gray.png,stim\gray.png,stim\gray.png,stim\yellow.png,down,,,,,,,,,,,,,0,0,0,3,0,12,12,12,,,,,,,,,,,,,,,,,,,,,,,,,,,,,,,,,,,,,,,,,,,,,,,,,,,,,,,,left,0,296.22390320000704,None,296.22390320000704,None,296.22390320000704,297.22564259998035,296.22390320000704,297.22564259998035,296.22390320000704,297.22564259998035,296.22390320000704,297.22564259998035,296.22390320000704,296.72490289999405,296.22390320000704,296.72490289999405,296.22390320000704,296.72490289999405,296.22390320000704,296.72490289999405,296.22390320000704,None,1.3749594999826513,,,,,11010,001,2024_Jan_01_2003,nback,2021.2.3,59.85361004073735,
2-back,instructions\back-2.png,conditions\21back-e.xlsx,,,experiment,2,3,stim\gray.png,stim\gray.png,stim\yellow.png,stim\gray.png,left,,,,,,,,,,,,,0,0,0,3,0,13,13,13,,,,,,,,,,,,,,,,,,,,,,,,,,,,,,,,,,,,,,,,,,,,,,,,,,,,,,,,down,0,297.72625319997314,None,297.72625319997314,None,297.72625319997314,298.72762730001705,297.72625319997314,298.72762730001705,297.72625319997314,298.72762730001705,297.72625319997314,298.72762730001705,297.72625319997314,298.2271029999829,297.72625319997314,298.2271029999829,297.72625319997314,298.2271029999829,297.72625319997314,298.2271029999829,297.72625319997314,None,1.3528545000008307,,,,,11010,001,2024_Jan_01_2003,nback,2021.2.3,59.85361004073735,
2-back,instructions\back-2.png,conditions\21back-e.xlsx,,,experiment,2,1,stim\yellow.png,stim\gray.png,stim\gray.png,stim\gray.png,down,,,,,,,,,,,,,0,0,0,3,0,14,14,14,,,,,,,,,,,,,,,,,,,,,,,,,,,,,,,,,,,,,,,,,,,,,,,,,,,,,,,,right,0,299.2117656999617,None,299.2117656999617,None,299.2117656999617,300.2135172999697,299.2117656999617,300.2135172999697,299.2117656999617,300.2135172999697,299.2117656999617,300.2135172999697,299.2117656999617,299.71284389996435,299.2117656999617,299.71284389996435,299.2117656999617,299.71284389996435,299.2117656999617,299.71284389996435,299.2117656999617,None,1.4514851000276394,,,,,11010,001,2024_Jan_01_2003,nback,2021.2.3,59.85361004073735,
2-back,instructions\back-2.png,conditions\21back-e.xlsx,,,experiment,2,2,stim\gray.png,stim\yellow.png,stim\gray.png,stim\gray.png,right,,,,,,,,,,,,,0,0,0,3,0,15,15,15,,,,,,,,,,,,,,,,,,,,,,,,,,,,,,,,,,,,,,,,,,,,,,,,,,,,,,,,None,0,300.71394380001584,None,300.71394380001584,None,300.71394380001584,301.71540789998835,300.71394380001584,301.71540789998835,300.71394380001584,301.71540789998835,300.71394380001584,301.71540789998835,300.71394380001584,301.21497560001444,300.71394380001584,301.21497560001444,300.71394380001584,301.21497560001444,300.71394380001584,301.21497560001444,300.71394380001584,None,,,,,,11010,001,2024_Jan_01_2003,nback,2021.2.3,59.85361004073735,
2-back,instructions\back-2.png,conditions\21back-e.xlsx,,,experiment,2,2,stim\gray.png,stim\yellow.png,stim\gray.png,stim\gray.png,up,,,,,,,,,,,,,0,0,0,3,0,16,16,16,,,,,,,,,,,,,,,,,,,,,,,,,,,,,,,,,,,,,,,,,,,,,,,,,,,,,,,,up,1,302.21674760000315,None,302.21674760000315,None,302.21674760000315,303.21784379996825,302.21674760000315,303.21784379996825,302.21674760000315,303.21784379996825,302.21674760000315,303.21784379996825,302.21674760000315,302.7177430000156,302.21674760000315,302.7177430000156,302.21674760000315,302.7177430000156,302.21674760000315,302.7177430000156,302.21674760000315,None,0.3024062000331469,,,,,11010,001,2024_Jan_01_2003,nback,2021.2.3,59.85361004073735,
2-back,instructions\back-2.png,conditions\21back-e.xlsx,,,experiment,2,1,stim\yellow.png,stim\gray.png,stim\gray.png,stim\gray.png,left,,,,,,,,,,,,,0,0,0,3,0,17,17,17,,,,,,,,,,,,,,,,,,,,,,,,,,,,,,,,,,,,,,,,,,,,,,,,,,,,,,,,left,1,303.7183226000052,None,303.7183226000052,None,303.7183226000052,304.7199380999664,303.7183226000052,304.7199380999664,303.7183226000052,304.7199380999664,303.7183226000052,304.7199380999664,303.7183226000052,304.22059539996553,303.7183226000052,304.22059539996553,303.7183226000052,304.22059539996553,303.7183226000052,304.22059539996553,303.7183226000052,None,0.3361875000409782,,,,,11010,001,2024_Jan_01_2003,nback,2021.2.3,59.85361004073735,
2-back,instructions\back-2.png,conditions\21back-e.xlsx,,,experiment,2,4,stim\gray.png,stim\gray.png,stim\gray.png,stim\yellow.png,left,,,,,,,,,,,,,0,0,0,3,0,18,18,18,,,,,,,,,,,,,,,,,,,,,,,,,,,,,,,,,,,,,,,,,,,,,,,,,,,,,,,,None,0,305.22068879997823,None,305.22068879997823,None,305.22068879997823,306.22294379997766,305.22068879997823,306.22294379997766,305.22068879997823,306.22294379997766,305.22068879997823,306.22294379997766,305.22068879997823,305.72185849997913,305.22068879997823,305.72185849997913,305.22068879997823,305.72185849997913,305.22068879997823,305.72185849997913,305.22068879997823,None,,,,,,11010,001,2024_Jan_01_2003,nback,2021.2.3,59.85361004073735,
2-back,instructions\back-2.png,conditions\21back-e.xlsx,,,experiment,2,3,stim\gray.png,stim\gray.png,stim\yellow.png,stim\gray.png,up,,,,,,,,,,,,,0,0,0,3,0,19,19,19,,,,,,,,,,,,,,,,,,,,,,,,,,,,,,,,,,,,,,,,,,,,,,,,,,,,,,,,up,1,306.72336659999564,None,306.72336659999564,None,306.72336659999564,307.7241834999877,306.72336659999564,307.7241834999877,306.72336659999564,307.7241834999877,306.72336659999564,307.7241834999877,306.72336659999564,307.22354490001453,306.72336659999564,307.22354490001453,306.72336659999564,307.22354490001453,306.72336659999564,307.22354490001453,306.72336659999564,None,0.5313559000496753,,,,,11010,001,2024_Jan_01_2003,nback,2021.2.3,59.85361004073735,
2-back,instructions\back-2.png,conditions\21back-e.xlsx,,,,,,,,,,,,,,,,,,,,,,,0,0,0,3,,,,,,,,,,,,,,,,,,,,,,,,,,,,,,,,,,,,,,,,,,,,,,,,,,,,,,,,,,,,,,,,,,,,,,,,,,,,,,,,,,,,,308.2252925999928,None,,,11010,001,2024_Jan_01_2003,nback,2021.2.3,59.85361004073735,
0-back,instructions\back-0.png,conditions\04back-e.xlsx,,,experiment,0,3,stim\gray.png,stim\gray.png,stim\yellow.png,stim\gray.png,right,,,,,,,,,,,,,0,1,1,13,0,0,0,0,,,,,,,,,,,,,,,309.37586709996685,313.88339159998577,313.8507993000094,None,,,,,,,,,,,,,,,,,,,,,,,,,,,,,,,,,,,,,,right,1,314.23441629996523,None,314.23441629996523,None,314.23441629996523,315.23540870001307,314.23441629996523,315.23540870001307,314.23441629996523,315.23540870001307,314.23441629996523,315.23540870001307,314.23441629996523,314.7364639000152,314.23441629996523,314.7364639000152,314.23441629996523,314.7364639000152,314.23441629996523,314.7364639000152,314.23441629996523,None,0.46798089996445924,,,,,11010,001,2024_Jan_01_2003,nback,2021.2.3,59.85361004073735,
0-back,instructions\back-0.png,conditions\04back-e.xlsx,,,experiment,0,1,stim\yellow.png,stim\gray.png,stim\gray.png,stim\gray.png,up,,,,,,,,,,,,,0,1,1,13,0,1,1,1,,,,,,,,,,,,,,,,,,,,,,,,,,,,,,,,,,,,,,,,,,,,,,,,,,,,,,,,up,1,315.71950299997116,None,315.71950299997116,None,315.71950299997116,316.72109830001136,315.71950299997116,316.72109830001136,315.71950299997116,316.72109830001136,315.71950299997116,316.72109830001136,315.71950299997116,316.2207782000187,315.71950299997116,316.2207782000187,315.71950299997116,316.2207782000187,315.71950299997116,316.2207782000187,315.71950299997116,None,0.4472416000207886,,,,,11010,001,2024_Jan_01_2003,nback,2021.2.3,59.85361004073735,
0-back,instructions\back-0.png,conditions\04back-e.xlsx,,,experiment,0,2,stim\gray.png,stim\yellow.png,stim\gray.png,stim\gray.png,left,,,,,,,,,,,,,0,1,1,13,0,2,2,2,,,,,,,,,,,,,,,,,,,,,,,,,,,,,,,,,,,,,,,,,,,,,,,,,,,,,,,,left,1,317.2216908999835,None,317.2216908999835,None,317.2216908999835,318.2236891000066,317.2216908999835,318.2236891000066,317.2216908999835,318.2236891000066,317.2216908999835,318.2236891000066,317.2216908999835,317.7225521999644,317.2216908999835,317.7225521999644,317.2216908999835,317.7225521999644,317.2216908999835,317.7225521999644,317.2216908999835,None,0.31284849997609854,,,,,11010,001,2024_Jan_01_2003,nback,2021.2.3,59.85361004073735,
0-back,instructions\back-0.png,conditions\04back-e.xlsx,,,experiment,0,3,stim\gray.png,stim\gray.png,stim\yellow.png,stim\gray.png,right,,,,,,,,,,,,,0,1,1,13,0,3,3,3,,,,,,,,,,,,,,,,,,,,,,,,,,,,,,,,,,,,,,,,,,,,,,,,,,,,,,,,right,1,318.7240105000092,None,318.7240105000092,None,318.7240105000092,319.7261075999704,318.7240105000092,319.7261075999704,318.7240105000092,319.7261075999704,318.7240105000092,319.7261075999704,318.7240105000092,319.2249276000075,318.7240105000092,319.2249276000075,318.7240105000092,319.2249276000075,318.7240105000092,319.2249276000075,318.7240105000092,None,0.3309908999945037,,,,,11010,001,2024_Jan_01_2003,nback,2021.2.3,59.85361004073735,
0-back,instructions\back-0.png,conditions\04back-e.xlsx,,,experiment,0,3,stim\gray.png,stim\gray.png,stim\yellow.png,stim\gray.png,right,,,,,,,,,,,,,0,1,1,13,0,4,4,4,,,,,,,,,,,,,,,,,,,,,,,,,,,,,,,,,,,,,,,,,,,,,,,,,,,,,,,,right,1,320.20953789999476,None,320.20953789999476,None,320.20953789999476,321.21104779996676,320.20953789999476,321.21104779996676,320.20953789999476,321.21104779996676,320.20953789999476,321.21104779996676,320.20953789999476,320.7100305999629,320.20953789999476,320.7100305999629,320.20953789999476,320.7100305999629,320.20953789999476,320.7100305999629,320.20953789999476,None,0.34904109995113686,,,,,11010,001,2024_Jan_01_2003,nback,2021.2.3,59.85361004073735,
0-back,instructions\back-0.png,conditions\04back-e.xlsx,,,experiment,0,2,stim\gray.png,stim\yellow.png,stim\gray.png,stim\gray.png,left,,,,,,,,,,,,,0,1,1,13,0,5,5,5,,,,,,,,,,,,,,,,,,,,,,,,,,,,,,,,,,,,,,,,,,,,,,,,,,,,,,,,left,1,321.71204549999675,None,321.71204549999675,None,321.71204549999675,322.7136987000122,321.71204549999675,322.7136987000122,321.71204549999675,322.7136987000122,321.71204549999675,322.7136987000122,321.71204549999675,322.2124360000016,321.71204549999675,322.2124360000016,321.71204549999675,322.2124360000016,321.71204549999675,322.2124360000016,321.71204549999675,None,0.3745692999800667,,,,,11010,001,2024_Jan_01_2003,nback,2021.2.3,59.85361004073735,
0-back,instructions\back-0.png,conditions\04back-e.xlsx,,,experiment,0,2,stim\gray.png,stim\yellow.png,stim\gray.png,stim\gray.png,left,,,,,,,,,,,,,0,1,1,13,0,6,6,6,,,,,,,,,,,,,,,,,,,,,,,,,,,,,,,,,,,,,,,,,,,,,,,,,,,,,,,,left,1,323.2141811000183,None,323.2141811000183,None,323.2141811000183,324.2155957999639,323.2141811000183,324.2155957999639,323.2141811000183,324.2155957999639,323.2141811000183,324.2155957999639,323.2141811000183,323.7152540999814,323.2141811000183,323.7152540999814,323.2141811000183,323.7152540999814,323.2141811000183,323.7152540999814,323.2141811000183,None,0.3763545000110753,,,,,11010,001,2024_Jan_01_2003,nback,2021.2.3,59.85361004073735,
0-back,instructions\back-0.png,conditions\04back-e.xlsx,,,experiment,0,1,stim\yellow.png,stim\gray.png,stim\gray.png,stim\gray.png,up,,,,,,,,,,,,,0,1,1,13,0,7,7,7,,,,,,,,,,,,,,,,,,,,,,,,,,,,,,,,,,,,,,,,,,,,,,,,,,,,,,,,up,1,324.71656779997284,None,324.71656779997284,None,324.71656779997284,325.71804479998536,324.71656779997284,325.71804479998536,324.71656779997284,325.71804479998536,324.71656779997284,325.71804479998536,324.71656779997284,325.2174520000117,324.71656779997284,325.2174520000117,324.71656779997284,325.2174520000117,324.71656779997284,325.2174520000117,324.71656779997284,None,0.3220222999807447,,,,,11010,001,2024_Jan_01_2003,nback,2021.2.3,59.85361004073735,
0-back,instructions\back-0.png,conditions\04back-e.xlsx,,,experiment,0,4,stim\gray.png,stim\gray.png,stim\gray.png,stim\yellow.png,down,,,,,,,,,,,,,0,1,1,13,0,8,8,8,,,,,,,,,,,,,,,,,,,,,,,,,,,,,,,,,,,,,,,,,,,,,,,,,,,,,,,,down,1,326.21829940000316,None,326.21829940000316,None,326.21829940000316,327.2200986999669,326.21829940000316,327.2200986999669,326.21829940000316,327.2200986999669,326.21829940000316,327.2200986999669,326.21829940000316,326.7194565999671,326.21829940000316,326.7194565999671,326.21829940000316,326.7194565999671,326.21829940000316,326.7194565999671,326.21829940000316,None,0.4443563999957405,,,,,11010,001,2024_Jan_01_2003,nback,2021.2.3,59.85361004073735,
0-back,instructions\back-0.png,conditions\04back-e.xlsx,,,experiment,0,4,stim\gray.png,stim\gray.png,stim\gray.png,stim\yellow.png,down,,,,,,,,,,,,,0,1,1,13,0,9,9,9,,,,,,,,,,,,,,,,,,,,,,,,,,,,,,,,,,,,,,,,,,,,,,,,,,,,,,,,down,1,327.72121059999336,None,327.72121059999336,None,327.72121059999336,328.7226300999755,327.72121059999336,328.7226300999755,327.72121059999336,328.7226300999755,327.72121059999336,328.7226300999755,327.72121059999336,328.221965899982,327.72121059999336,328.221965899982,327.72121059999336,328.221965899982,327.72121059999336,328.221965899982,327.72121059999336,None,0.5414748000330292,,,,,11010,001,2024_Jan_01_2003,nback,2021.2.3,59.85361004073735,
0-back,instructions\back-0.png,conditions\04back-e.xlsx,,,experiment,0,1,stim\yellow.png,stim\gray.png,stim\gray.png,stim\gray.png,up,,,,,,,,,,,,,0,1,1,13,0,10,10,10,,,,,,,,,,,,,,,,,,,,,,,,,,,,,,,,,,,,,,,,,,,,,,,,,,,,,,,,up,1,329.2228480000049,None,329.2228480000049,None,329.2228480000049,330.2250548999873,329.2228480000049,330.2250548999873,329.2228480000049,330.2250548999873,329.2228480000049,330.2250548999873,329.2228480000049,329.72364629997173,329.2228480000049,329.72364629997173,329.2228480000049,329.72364629997173,329.2228480000049,329.72364629997173,329.2228480000049,None,0.3118623000336811,,,,,11010,001,2024_Jan_01_2003,nback,2021.2.3,59.85361004073735,
0-back,instructions\back-0.png,conditions\04back-e.xlsx,,,experiment,0,4,stim\gray.png,stim\gray.png,stim\gray.png,stim\yellow.png,down,,,,,,,,,,,,,0,1,1,13,0,11,11,11,,,,,,,,,,,,,,,,,,,,,,,,,,,,,,,,,,,,,,,,,,,,,,,,,,,,,,,,down,1,330.7248776999768,None,330.7248776999768,None,330.7248776999768,331.72647910000524,330.7248776999768,331.72647910000524,330.7248776999768,331.72647910000524,330.7248776999768,331.72647910000524,330.7248776999768,331.22609429998556,330.7248776999768,331.22609429998556,330.7248776999768,331.22609429998556,330.7248776999768,331.22609429998556,330.7248776999768,None,0.5059567000134848,,,,,11010,001,2024_Jan_01_2003,nback,2021.2.3,59.85361004073735,
0-back,instructions\back-0.png,conditions\04back-e.xlsx,,,experiment,0,1,stim\yellow.png,stim\gray.png,stim\gray.png,stim\gray.png,up,,,,,,,,,,,,,0,1,1,13,0,12,12,12,,,,,,,,,,,,,,,,,,,,,,,,,,,,,,,,,,,,,,,,,,,,,,,,,,,,,,,,up,1,332.2105985999806,None,332.2105985999806,None,332.2105985999806,333.21226619998924,332.2105985999806,333.21226619998924,332.2105985999806,333.21226619998924,332.2105985999806,333.21226619998924,332.2105985999806,332.71137309999904,332.2105985999806,332.71137309999904,332.2105985999806,332.71137309999904,332.2105985999806,332.71137309999904,332.2105985999806,None,0.32420580001780763,,,,,11010,001,2024_Jan_01_2003,nback,2021.2.3,59.85361004073735,
0-back,instructions\back-0.png,conditions\04back-e.xlsx,,,experiment,0,3,stim\gray.png,stim\gray.png,stim\yellow.png,stim\gray.png,right,,,,,,,,,,,,,0,1,1,13,0,13,13,13,,,,,,,,,,,,,,,,,,,,,,,,,,,,,,,,,,,,,,,,,,,,,,,,,,,,,,,,right,1,333.71329929999774,None,333.71329929999774,None,333.71329929999774,334.7142714000074,333.71329929999774,334.7142714000074,333.71329929999774,334.7142714000074,333.71329929999774,334.7142714000074,333.71329929999774,334.21360740001546,333.71329929999774,334.21360740001546,333.71329929999774,334.21360740001546,333.71329929999774,334.21360740001546,333.71329929999774,None,0.33364230004372075,,,,,11010,001,2024_Jan_01_2003,nback,2021.2.3,59.85361004073735,
0-back,instructions\back-0.png,conditions\04back-e.xlsx,,,experiment,0,4,stim\gray.png,stim\gray.png,stim\gray.png,stim\yellow.png,down,,,,,,,,,,,,,0,1,1,13,0,14,14,14,,,,,,,,,,,,,,,,,,,,,,,,,,,,,,,,,,,,,,,,,,,,,,,,,,,,,,,,down,1,335.2150380999665,None,335.2150380999665,None,335.2150380999665,336.21726070001023,335.2150380999665,336.21726070001023,335.2150380999665,336.21726070001023,335.2150380999665,336.21726070001023,335.2150380999665,335.71591189998435,335.2150380999665,335.71591189998435,335.2150380999665,335.71591189998435,335.2150380999665,335.71591189998435,335.2150380999665,None,0.47973640001146123,,,,,11010,001,2024_Jan_01_2003,nback,2021.2.3,59.85361004073735,
0-back,instructions\back-0.png,conditions\04back-e.xlsx,,,experiment,0,1,stim\yellow.png,stim\gray.png,stim\gray.png,stim\gray.png,up,,,,,,,,,,,,,0,1,1,13,0,15,15,15,,,,,,,,,,,,,,,,,,,,,,,,,,,,,,,,,,,,,,,,,,,,,,,,,,,,,,,,up,1,336.7173478999757,None,336.7173478999757,None,336.7173478999757,337.7188014999847,336.7173478999757,337.7188014999847,336.7173478999757,337.7188014999847,336.7173478999757,337.7188014999847,336.7173478999757,337.2178607999813,336.7173478999757,337.2178607999813,336.7173478999757,337.2178607999813,336.7173478999757,337.2178607999813,336.7173478999757,None,0.36917839996749535,,,,,11010,001,2024_Jan_01_2003,nback,2021.2.3,59.85361004073735,
0-back,instructions\back-0.png,conditions\04back-e.xlsx,,,experiment,0,2,stim\gray.png,stim\yellow.png,stim\gray.png,stim\gray.png,left,,,,,,,,,,,,,0,1,1,13,0,16,16,16,,,,,,,,,,,,,,,,,,,,,,,,,,,,,,,,,,,,,,,,,,,,,,,,,,,,,,,,left,1,338.2194775000098,None,338.2194775000098,None,338.2194775000098,339.22078649996547,338.2194775000098,339.22078649996547,338.2194775000098,339.22078649996547,338.2194775000098,339.22078649996547,338.2194775000098,338.72020599996904,338.2194775000098,338.72020599996904,338.2194775000098,338.72020599996904,338.2194775000098,338.72020599996904,338.2194775000098,None,0.30745580000802875,,,,,11010,001,2024_Jan_01_2003,nback,2021.2.3,59.85361004073735,
0-back,instructions\back-0.png,conditions\04back-e.xlsx,,,experiment,0,3,stim\gray.png,stim\gray.png,stim\yellow.png,stim\gray.png,right,,,,,,,,,,,,,0,1,1,13,0,17,17,17,,,,,,,,,,,,,,,,,,,,,,,,,,,,,,,,,,,,,,,,,,,,,,,,,,,,,,,,right,1,339.7225973000168,None,339.7225973000168,None,339.7225973000168,340.72427810000954,339.7225973000168,340.72427810000954,339.7225973000168,340.72427810000954,339.7225973000168,340.72427810000954,339.7225973000168,340.2226629999932,339.7225973000168,340.2226629999932,339.7225973000168,340.2226629999932,339.7225973000168,340.2226629999932,339.7225973000168,None,0.38855899998452514,,,,,11010,001,2024_Jan_01_2003,nback,2021.2.3,59.85361004073735,
0-back,instructions\back-0.png,conditions\04back-e.xlsx,,,experiment,0,2,stim\gray.png,stim\yellow.png,stim\gray.png,stim\gray.png,left,,,,,,,,,,,,,0,1,1,13,0,18,18,18,,,,,,,,,,,,,,,,,,,,,,,,,,,,,,,,,,,,,,,,,,,,,,,,,,,,,,,,left,1,341.223763099988,None,341.223763099988,None,341.223763099988,342.22536079998827,341.223763099988,342.22536079998827,341.223763099988,342.22536079998827,341.223763099988,342.22536079998827,341.223763099988,341.7250577000086,341.223763099988,341.7250577000086,341.223763099988,341.7250577000086,341.223763099988,341.7250577000086,341.223763099988,None,0.4071453000069596,,,,,11010,001,2024_Jan_01_2003,nback,2021.2.3,59.85361004073735,
0-back,instructions\back-0.png,conditions\04back-e.xlsx,,,experiment,0,4,stim\gray.png,stim\gray.png,stim\gray.png,stim\yellow.png,down,,,,,,,,,,,,,0,1,1,13,0,19,19,19,,,,,,,,,,,,,,,,,,,,,,,,,,,,,,,,,,,,,,,,,,,,,,,,,,,,,,,,down,1,342.72718119999627,None,342.72718119999627,None,342.72718119999627,343.72818169998936,342.72718119999627,343.72818169998936,342.72718119999627,343.72818169998936,342.72718119999627,343.72818169998936,342.72718119999627,343.2269958999823,342.72718119999627,343.2269958999823,342.72718119999627,343.2269958999823,342.72718119999627,343.2269958999823,342.72718119999627,None,0.47938680002698675,,,,,11010,001,2024_Jan_01_2003,nback,2021.2.3,59.85361004073735,
0-back,instructions\back-0.png,conditions\04back-e.xlsx,,,,,,,,,,,,,,,,,,,,,,,0,1,1,13,,,,,,,,,,,,,,,,,,,,,,,,,,,,,,,,,,,,,,,,,,,,,,,,,,,,,,,,,,,,,,,,,,,,,,,,,,,,,,,,,,,,,344.21172929997556,None,,,11010,001,2024_Jan_01_2003,nback,2021.2.3,59.85361004073735,
2-back,instructions\back-2.png,conditions\23back-e.xlsx,,,experiment,2,2,stim\gray.png,stim\yellow.png,stim\gray.png,stim\gray.png,None,,,,,,,,,,,,,0,2,2,9,0,0,0,0,,,,,,,,,,,,,,,345.36328809999395,349.87184679997154,349.8365660000127,None,,,,,,,,,,,,,,,,,,,,,,,,,,,,,,,,,,,,,,None,1,350.2378591999877,None,350.2378591999877,None,350.2378591999877,351.238904799975,350.2378591999877,351.238904799975,350.2378591999877,351.238904799975,350.2378591999877,351.238904799975,350.2378591999877,350.7391424999805,350.2378591999877,350.7391424999805,350.2378591999877,350.7391424999805,350.2378591999877,350.7391424999805,350.2378591999877,None,,,,,,11010,001,2024_Jan_01_2003,nback,2021.2.3,59.85361004073735,
2-back,instructions\back-2.png,conditions\23back-e.xlsx,,,experiment,2,4,stim\gray.png,stim\gray.png,stim\gray.png,stim\yellow.png,None,,,,,,,,,,,,,0,2,2,9,0,1,1,1,,,,,,,,,,,,,,,,,,,,,,,,,,,,,,,,,,,,,,,,,,,,,,,,,,,,,,,,None,1,351.72272570000496,None,351.72272570000496,None,351.72272570000496,352.72514639998553,351.72272570000496,352.72514639998553,351.72272570000496,352.72514639998553,351.72272570000496,352.72514639998553,351.72272570000496,352.2241871000151,351.72272570000496,352.2241871000151,351.72272570000496,352.2241871000151,351.72272570000496,352.2241871000151,351.72272570000496,None,,,,,,11010,001,2024_Jan_01_2003,nback,2021.2.3,59.85361004073735,
2-back,instructions\back-2.png,conditions\23back-e.xlsx,,,experiment,2,3,stim\gray.png,stim\gray.png,stim\yellow.png,stim\gray.png,left,,,,,,,,,,,,,0,2,2,9,0,2,2,2,,,,,,,,,,,,,,,,,,,,,,,,,,,,,,,,,,,,,,,,,,,,,,,,,,,,,,,,left,1,353.22511220001616,None,353.22511220001616,None,353.22511220001616,354.227893400006,353.22511220001616,354.227893400006,353.22511220001616,354.227893400006,353.22511220001616,354.227893400006,353.22511220001616,353.7264778999961,353.22511220001616,353.7264778999961,353.22511220001616,353.7264778999961,353.22511220001616,353.7264778999961,353.22511220001616,None,0.34990279999328777,,,,,11010,001,2024_Jan_01_2003,nback,2021.2.3,59.85361004073735,
2-back,instructions\back-2.png,conditions\23back-e.xlsx,,,experiment,2,2,stim\gray.png,stim\yellow.png,stim\gray.png,stim\gray.png,down,,,,,,,,,,,,,0,2,2,9,0,3,3,3,,,,,,,,,,,,,,,,,,,,,,,,,,,,,,,,,,,,,,,,,,,,,,,,,,,,,,,,down,1,354.710525100003,None,354.710525100003,None,354.710525100003,355.7124880999909,354.710525100003,355.7124880999909,354.710525100003,355.7124880999909,354.710525100003,355.7124880999909,354.710525100003,355.21197770000435,354.710525100003,355.21197770000435,354.710525100003,355.21197770000435,354.710525100003,355.21197770000435,354.710525100003,None,0.23322350002126768,,,,,11010,001,2024_Jan_01_2003,nback,2021.2.3,59.85361004073735,
2-back,instructions\back-2.png,conditions\23back-e.xlsx,,,experiment,2,1,stim\yellow.png,stim\gray.png,stim\gray.png,stim\gray.png,right,,,,,,,,,,,,,0,2,2,9,0,4,4,4,,,,,,,,,,,,,,,,,,,,,,,,,,,,,,,,,,,,,,,,,,,,,,,,,,,,,,,,right,1,356.2128765999805,None,356.2128765999805,None,356.2128765999805,357.2142517999746,356.2128765999805,357.2142517999746,356.2128765999805,357.2142517999746,356.2128765999805,357.2142517999746,356.2128765999805,356.71399730001576,356.2128765999805,356.71399730001576,356.2128765999805,356.71399730001576,356.2128765999805,356.71399730001576,356.2128765999805,None,0.1937809999799356,,,,,11010,001,2024_Jan_01_2003,nback,2021.2.3,59.85361004073735,
2-back,instructions\back-2.png,conditions\23back-e.xlsx,,,experiment,2,2,stim\gray.png,stim\yellow.png,stim\gray.png,stim\gray.png,left,,,,,,,,,,,,,0,2,2,9,0,5,5,5,,,,,,,,,,,,,,,,,,,,,,,,,,,,,,,,,,,,,,,,,,,,,,,,,,,,,,,,left,1,357.71507129998645,None,357.71507129998645,None,357.71507129998645,358.7164480999927,357.71507129998645,358.7164480999927,357.71507129998645,358.7164480999927,357.71507129998645,358.7164480999927,357.71507129998645,358.21586090000346,357.71507129998645,358.21586090000346,357.71507129998645,358.21586090000346,357.71507129998645,358.21586090000346,357.71507129998645,None,0.1955858999863267,,,,,11010,001,2024_Jan_01_2003,nback,2021.2.3,59.85361004073735,
2-back,instructions\back-2.png,conditions\23back-e.xlsx,,,experiment,2,4,stim\gray.png,stim\gray.png,stim\gray.png,stim\yellow.png,up,,,,,,,,,,,,,0,2,2,9,0,6,6,6,,,,,,,,,,,,,,,,,,,,,,,,,,,,,,,,,,,,,,,,,,,,,,,,,,,,,,,,up,1,359.2171285999939,None,359.2171285999939,None,359.2171285999939,360.21904609998455,359.2171285999939,360.21904609998455,359.2171285999939,360.21904609998455,359.2171285999939,360.21904609998455,359.2171285999939,359.71865619998425,359.2171285999939,359.71865619998425,359.2171285999939,359.71865619998425,359.2171285999939,359.71865619998425,359.2171285999939,None,0.1896054000244476,,,,,11010,001,2024_Jan_01_2003,nback,2021.2.3,59.85361004073735,
2-back,instructions\back-2.png,conditions\23back-e.xlsx,,,experiment,2,3,stim\gray.png,stim\gray.png,stim\yellow.png,stim\gray.png,left,,,,,,,,,,,,,0,2,2,9,0,7,7,7,,,,,,,,,,,,,,,,,,,,,,,,,,,,,,,,,,,,,,,,,,,,,,,,,,,,,,,,left,1,360.7194398000138,None,360.7194398000138,None,360.7194398000138,361.7218125999789,360.7194398000138,361.7218125999789,360.7194398000138,361.7218125999789,360.7194398000138,361.7218125999789,360.7194398000138,361.220576599997,360.7194398000138,361.220576599997,360.7194398000138,361.220576599997,360.7194398000138,361.220576599997,360.7194398000138,None,0.2164290000218898,,,,,11010,001,2024_Jan_01_2003,nback,2021.2.3,59.85361004073735,
2-back,instructions\back-2.png,conditions\23back-e.xlsx,,,experiment,2,4,stim\gray.png,stim\gray.png,stim\gray.png,stim\yellow.png,down,,,,,,,,,,,,,0,2,2,9,0,8,8,8,,,,,,,,,,,,,,,,,,,,,,,,,,,,,,,,,,,,,,,,,,,,,,,,,,,,,,,,down,1,362.22171279997565,None,362.22171279997565,None,362.22171279997565,363.2238755999715,362.22171279997565,363.2238755999715,362.22171279997565,363.2238755999715,362.22171279997565,363.2238755999715,362.22171279997565,362.7227232999867,362.22171279997565,362.7227232999867,362.22171279997565,362.7227232999867,362.22171279997565,362.7227232999867,362.22171279997565,None,0.2810320999706164,,,,,11010,001,2024_Jan_01_2003,nback,2021.2.3,59.85361004073735,
2-back,instructions\back-2.png,conditions\23back-e.xlsx,,,experiment,2,1,stim\yellow.png,stim\gray.png,stim\gray.png,stim\gray.png,right,,,,,,,,,,,,,0,2,2,9,0,9,9,9,,,,,,,,,,,,,,,,,,,,,,,,,,,,,,,,,,,,,,,,,,,,,,,,,,,,,,,,up,0,363.7240268000169,None,363.7240268000169,None,363.7240268000169,364.72580249997554,363.7240268000169,364.72580249997554,363.7240268000169,364.72580249997554,363.7240268000169,364.72580249997554,363.7240268000169,364.2249700999819,363.7240268000169,364.2249700999819,363.7240268000169,364.2249700999819,363.7240268000169,364.2249700999819,363.7240268000169,None,0.09103850001702085,,,,,11010,001,2024_Jan_01_2003,nback,2021.2.3,59.85361004073735,
2-back,instructions\back-2.png,conditions\23back-e.xlsx,,,experiment,2,4,stim\gray.png,stim\gray.png,stim\gray.png,stim\yellow.png,down,,,,,,,,,,,,,0,2,2,9,0,10,10,10,,,,,,,,,,,,,,,,,,,,,,,,,,,,,,,,,,,,,,,,,,,,,,,,,,,,,,,,down,1,365.2094885999686,None,365.2094885999686,None,365.2094885999686,366.2116052999627,365.2094885999686,366.2116052999627,365.2094885999686,366.2116052999627,365.2094885999686,366.2116052999627,365.2094885999686,365.7105278999661,365.2094885999686,365.7105278999661,365.2094885999686,365.7105278999661,365.2094885999686,365.7105278999661,365.2094885999686,None,0.669174499984365,,,,,11010,001,2024_Jan_01_2003,nback,2021.2.3,59.85361004073735,
2-back,instructions\back-2.png,conditions\23back-e.xlsx,,,experiment,2,1,stim\yellow.png,stim\gray.png,stim\gray.png,stim\gray.png,up,,,,,,,,,,,,,0,2,2,9,0,11,11,11,,,,,,,,,,,,,,,,,,,,,,,,,,,,,,,,,,,,,,,,,,,,,,,,,,,,,,,,up,1,366.71185969997896,None,366.71185969997896,None,366.71185969997896,367.7137079999666,366.71185969997896,367.7137079999666,366.71185969997896,367.7137079999666,366.71185969997896,367.7137079999666,366.71185969997896,367.2125667000073,366.71185969997896,367.2125667000073,366.71185969997896,367.2125667000073,366.71185969997896,367.2125667000073,366.71185969997896,None,1.3991419000085443,,,,,11010,001,2024_Jan_01_2003,nback,2021.2.3,59.85361004073735,
2-back,instructions\back-2.png,conditions\23back-e.xlsx,,,experiment,2,2,stim\gray.png,stim\yellow.png,stim\gray.png,stim\gray.png,down,,,,,,,,,,,,,0,2,2,9,0,12,12,12,,,,,,,,,,,,,,,,,,,,,,,,,,,,,,,,,,,,,,,,,,,,,,,,,,,,,,,,down,1,368.21451999997953,None,368.21451999997953,None,368.21451999997953,369.21594680001726,368.21451999997953,369.21594680001726,368.21451999997953,369.21594680001726,368.21451999997953,369.21594680001726,368.21451999997953,368.71469799999613,368.21451999997953,368.71469799999613,368.21451999997953,368.71469799999613,368.21451999997953,368.71469799999613,368.21451999997953,None,0.9921321000438184,,,,,11010,001,2024_Jan_01_2003,nback,2021.2.3,59.85361004073735,
2-back,instructions\back-2.png,conditions\23back-e.xlsx,,,experiment,2,3,stim\gray.png,stim\gray.png,stim\yellow.png,stim\gray.png,up,,,,,,,,,,,,,0,2,2,9,0,13,13,13,,,,,,,,,,,,,,,,,,,,,,,,,,,,,,,,,,,,,,,,,,,,,,,,,,,,,,,,right,0,369.71613209997304,None,369.71613209997304,None,369.71613209997304,370.7181925000041,369.71613209997304,370.7181925000041,369.71613209997304,370.7181925000041,369.71613209997304,370.7181925000041,369.71613209997304,370.2176452999702,369.71613209997304,370.2176452999702,369.71613209997304,370.2176452999702,369.71613209997304,370.2176452999702,369.71613209997304,None,0.6426819000043906,,,,,11010,001,2024_Jan_01_2003,nback,2021.2.3,59.85361004073735,
2-back,instructions\back-2.png,conditions\23back-e.xlsx,,,experiment,2,4,stim\gray.png,stim\gray.png,stim\gray.png,stim\yellow.png,left,,,,,,,,,,,,,0,2,2,9,0,14,14,14,,,,,,,,,,,,,,,,,,,,,,,,,,,,,,,,,,,,,,,,,,,,,,,,,,,,,,,,None,0,371.2185804999899,None,371.2185804999899,None,371.2185804999899,372.22060960001545,371.2185804999899,372.22060960001545,371.2185804999899,372.22060960001545,371.2185804999899,372.22060960001545,371.2185804999899,371.719241600018,371.2185804999899,371.719241600018,371.2185804999899,371.719241600018,371.2185804999899,371.719241600018,371.2185804999899,None,,,,,,11010,001,2024_Jan_01_2003,nback,2021.2.3,59.85361004073735,
2-back,instructions\back-2.png,conditions\23back-e.xlsx,,,experiment,2,3,stim\gray.png,stim\gray.png,stim\yellow.png,stim\gray.png,right,,,,,,,,,,,,,0,2,2,9,0,15,15,15,,,,,,,,,,,,,,,,,,,,,,,,,,,,,,,,,,,,,,,,,,,,,,,,,,,,,,,,right,1,372.7214195000124,None,372.7214195000124,None,372.7214195000124,373.7231554000173,372.7214195000124,373.7231554000173,372.7214195000124,373.7231554000173,372.7214195000124,373.7231554000173,372.7214195000124,373.2214239999885,372.7214195000124,373.2214239999885,372.7214195000124,373.2214239999885,372.7214195000124,373.2214239999885,372.7214195000124,None,0.373269000032451,,,,,11010,001,2024_Jan_01_2003,nback,2021.2.3,59.85361004073735,
2-back,instructions\back-2.png,conditions\23back-e.xlsx,,,experiment,2,2,stim\gray.png,stim\yellow.png,stim\gray.png,stim\gray.png,down,,,,,,,,,,,,,0,2,2,9,0,16,16,16,,,,,,,,,,,,,,,,,,,,,,,,,,,,,,,,,,,,,,,,,,,,,,,,,,,,,,,,down,1,374.2229131999775,None,374.2229131999775,None,374.2229131999775,375.2245080000139,374.2229131999775,375.2245080000139,374.2229131999775,375.2245080000139,374.2229131999775,375.2245080000139,374.2229131999775,374.72377310000593,374.2229131999775,374.72377310000593,374.2229131999775,374.72377310000593,374.2229131999775,374.72377310000593,374.2229131999775,None,0.18437719997018576,,,,,11010,001,2024_Jan_01_2003,nback,2021.2.3,59.85361004073735,
2-back,instructions\back-2.png,conditions\23back-e.xlsx,,,experiment,2,1,stim\yellow.png,stim\gray.png,stim\gray.png,stim\gray.png,right,,,,,,,,,,,,,0,2,2,9,0,17,17,17,,,,,,,,,,,,,,,,,,,,,,,,,,,,,,,,,,,,,,,,,,,,,,,,,,,,,,,,right,1,375.72499159997096,None,375.72499159997096,None,375.72499159997096,376.7270455000107,375.72499159997096,376.7270455000107,375.72499159997096,376.7270455000107,375.72499159997096,376.7270455000107,375.72499159997096,376.22616129997186,375.72499159997096,376.22616129997186,375.72499159997096,376.22616129997186,375.72499159997096,376.22616129997186,375.72499159997096,None,0.1857507000095211,,,,,11010,001,2024_Jan_01_2003,nback,2021.2.3,59.85361004073735,
2-back,instructions\back-2.png,conditions\23back-e.xlsx,,,experiment,2,3,stim\gray.png,stim\gray.png,stim\yellow.png,stim\gray.png,left,,,,,,,,,,,,,0,2,2,9,0,18,18,18,,,,,,,,,,,,,,,,,,,,,,,,,,,,,,,,,,,,,,,,,,,,,,,,,,,,,,,,left,1,377.2105104000075,None,377.2105104000075,None,377.2105104000075,378.21256939996965,377.2105104000075,378.21256939996965,377.2105104000075,378.21256939996965,377.2105104000075,378.21256939996965,377.2105104000075,377.71197000000393,377.2105104000075,377.71197000000393,377.2105104000075,377.71197000000393,377.2105104000075,377.71197000000393,377.2105104000075,None,0.5488861000048928,,,,,11010,001,2024_Jan_01_2003,nback,2021.2.3,59.85361004073735,
2-back,instructions\back-2.png,conditions\23back-e.xlsx,,,experiment,2,1,stim\yellow.png,stim\gray.png,stim\gray.png,stim\gray.png,up,,,,,,,,,,,,,0,2,2,9,0,19,19,19,,,,,,,,,,,,,,,,,,,,,,,,,,,,,,,,,,,,,,,,,,,,,,,,,,,,,,,,right,0,378.71349669998745,None,378.71349669998745,None,378.71349669998745,379.7154457999859,378.71349669998745,379.7154457999859,378.71349669998745,379.7154457999859,378.71349669998745,379.7154457999859,378.71349669998745,379.21441849996336,378.71349669998745,379.21441849996336,378.71349669998745,379.21441849996336,378.71349669998745,379.21441849996336,378.71349669998745,None,1.1178313000127673,,,,,11010,001,2024_Jan_01_2003,nback,2021.2.3,59.85361004073735,
2-back,instructions\back-2.png,conditions\23back-e.xlsx,,,,,,,,,,,,,,,,,,,,,,,0,2,2,9,,,,,,,,,,,,,,,,,,,,,,,,,,,,,,,,,,,,,,,,,,,,,,,,,,,,,,,,,,,,,,,,,,,,,,,,,,,,,,,,,,,,,380.2155456999899,None,,,11010,001,2024_Jan_01_2003,nback,2021.2.3,59.85361004073735,
1-back,instructions\back-1.png,conditions\12back-e.xlsx,,,experiment,1,2,stim\gray.png,stim\yellow.png,stim\gray.png,stim\gray.png,None,,,,,,,,,,,,,0,3,3,6,0,0,0,0,,,,,,,,,,,,,,,381.3833761999849,385.89091149996966,385.8400926999748,None,,,,,,,,,,,,,,,,,,,,,,,,,,,,,,,,,,,,,,None,1,386.24084380001295,None,386.24084380001295,None,386.24084380001295,387.242145599972,386.24084380001295,387.242145599972,386.24084380001295,387.242145599972,386.24084380001295,387.242145599972,386.24084380001295,386.74327380000614,386.24084380001295,386.74327380000614,386.24084380001295,386.74327380000614,386.24084380001295,386.74327380000614,386.24084380001295,None,,,,,,11010,001,2024_Jan_01_2003,nback,2021.2.3,59.85361004073735,
1-back,instructions\back-1.png,conditions\12back-e.xlsx,,,experiment,1,3,stim\gray.png,stim\gray.png,stim\yellow.png,stim\gray.png,left,,,,,,,,,,,,,0,3,3,6,0,1,1,1,,,,,,,,,,,,,,,,,,,,,,,,,,,,,,,,,,,,,,,,,,,,,,,,,,,,,,,,left,1,387.7266715000151,None,387.7266715000151,None,387.7266715000151,388.7274540999788,387.7266715000151,388.7274540999788,387.7266715000151,388.7274540999788,387.7266715000151,388.7274540999788,387.7266715000151,388.2282560999738,387.7266715000151,388.2282560999738,387.7266715000151,388.2282560999738,387.7266715000151,388.2282560999738,387.7266715000151,None,0.35183100000722334,,,,,11010,001,2024_Jan_01_2003,nback,2021.2.3,59.85361004073735,
1-back,instructions\back-1.png,conditions\12back-e.xlsx,,,experiment,1,4,stim\gray.png,stim\gray.png,stim\gray.png,stim\yellow.png,right,,,,,,,,,,,,,0,3,3,6,0,2,2,2,,,,,,,,,,,,,,,,,,,,,,,,,,,,,,,,,,,,,,,,,,,,,,,,,,,,,,,,right,1,389.2116313999868,None,389.2116313999868,None,389.2116313999868,390.2134786999668,389.2116313999868,390.2134786999668,389.2116313999868,390.2134786999668,389.2116313999868,390.2134786999668,389.2116313999868,389.71363979997113,389.2116313999868,389.71363979997113,389.2116313999868,389.71363979997113,389.2116313999868,389.71363979997113,389.2116313999868,None,0.26786809996701777,,,,,11010,001,2024_Jan_01_2003,nback,2021.2.3,59.85361004073735,
1-back,instructions\back-1.png,conditions\12back-e.xlsx,,,experiment,1,3,stim\gray.png,stim\gray.png,stim\yellow.png,stim\gray.png,down,,,,,,,,,,,,,0,3,3,6,0,3,3,3,,,,,,,,,,,,,,,,,,,,,,,,,,,,,,,,,,,,,,,,,,,,,,,,,,,,,,,,down,1,390.71399859996745,None,390.71399859996745,None,390.71399859996745,391.7157135999878,390.71399859996745,391.7157135999878,390.71399859996745,391.7157135999878,390.71399859996745,391.7157135999878,390.71399859996745,391.2148961999919,390.71399859996745,391.2148961999919,390.71399859996745,391.2148961999919,390.71399859996745,391.2148961999919,390.71399859996745,None,0.18149660003837198,,,,,11010,001,2024_Jan_01_2003,nback,2021.2.3,59.85361004073735,
1-back,instructions\back-1.png,conditions\12back-e.xlsx,,,experiment,1,1,stim\yellow.png,stim\gray.png,stim\gray.png,stim\gray.png,right,,,,,,,,,,,,,0,3,3,6,0,4,4,4,,,,,,,,,,,,,,,,,,,,,,,,,,,,,,,,,,,,,,,,,,,,,,,,,,,,,,,,right,1,392.21618459996535,None,392.21618459996535,None,392.21618459996535,393.2176252999925,392.21618459996535,393.2176252999925,392.21618459996535,393.2176252999925,392.21618459996535,393.2176252999925,392.21618459996535,392.71695119998185,392.21618459996535,392.71695119998185,392.21618459996535,392.71695119998185,392.21618459996535,392.71695119998185,392.21618459996535,None,0.21502840000903234,,,,,11010,001,2024_Jan_01_2003,nback,2021.2.3,59.85361004073735,
1-back,instructions\back-1.png,conditions\12back-e.xlsx,,,experiment,1,2,stim\gray.png,stim\yellow.png,stim\gray.png,stim\gray.png,up,,,,,,,,,,,,,0,3,3,6,0,5,5,5,,,,,,,,,,,,,,,,,,,,,,,,,,,,,,,,,,,,,,,,,,,,,,,,,,,,,,,,up,1,393.7183309000102,None,393.7183309000102,None,393.7183309000102,394.72005259996513,393.7183309000102,394.72005259996513,393.7183309000102,394.72005259996513,393.7183309000102,394.72005259996513,393.7183309000102,394.21949270000914,393.7183309000102,394.21949270000914,393.7183309000102,394.21949270000914,393.7183309000102,394.21949270000914,393.7183309000102,None,0.25660189997870475,,,,,11010,001,2024_Jan_01_2003,nback,2021.2.3,59.85361004073735,
1-back,instructions\back-1.png,conditions\12back-e.xlsx,,,experiment,1,2,stim\gray.png,stim\yellow.png,stim\gray.png,stim\gray.png,left,,,,,,,,,,,,,0,3,3,6,0,6,6,6,,,,,,,,,,,,,,,,,,,,,,,,,,,,,,,,,,,,,,,,,,,,,,,,,,,,,,,,left,1,395.220649099967,None,395.220649099967,None,395.220649099967,396.2229881999665,395.220649099967,396.2229881999665,395.220649099967,396.2229881999665,395.220649099967,396.2229881999665,395.220649099967,395.72129700001096,395.220649099967,395.72129700001096,395.220649099967,395.72129700001096,395.220649099967,395.72129700001096,395.220649099967,None,0.1779433999909088,,,,,11010,001,2024_Jan_01_2003,nback,2021.2.3,59.85361004073735,
1-back,instructions\back-1.png,conditions\12back-e.xlsx,,,experiment,1,4,stim\gray.png,stim\gray.png,stim\gray.png,stim\yellow.png,left,,,,,,,,,,,,,0,3,3,6,0,7,7,7,,,,,,,,,,,,,,,,,,,,,,,,,,,,,,,,,,,,,,,,,,,,,,,,,,,,,,,,None,0,396.72287679999135,None,396.72287679999135,None,396.72287679999135,397.7241682999884,396.72287679999135,397.7241682999884,396.72287679999135,397.7241682999884,396.72287679999135,397.7241682999884,396.72287679999135,397.22379269998055,396.72287679999135,397.22379269998055,396.72287679999135,397.22379269998055,396.72287679999135,397.22379269998055,396.72287679999135,None,,,,,,11010,001,2024_Jan_01_2003,nback,2021.2.3,59.85361004073735,
1-back,instructions\back-1.png,conditions\12back-e.xlsx,,,experiment,1,1,stim\yellow.png,stim\gray.png,stim\gray.png,stim\gray.png,down,,,,,,,,,,,,,0,3,3,6,0,8,8,8,,,,,,,,,,,,,,,,,,,,,,,,,,,,,,,,,,,,,,,,,,,,,,,,,,,,,,,,down,1,398.22509229998104,None,398.22509229998104,None,398.22509229998104,399.22748599998886,398.22509229998104,399.22748599998886,398.22509229998104,399.22748599998886,398.22509229998104,399.22748599998886,398.22509229998104,398.72602529998403,398.22509229998104,398.72602529998403,398.22509229998104,398.72602529998403,398.22509229998104,398.72602529998403,398.22509229998104,None,0.3660120000131428,,,,,11010,001,2024_Jan_01_2003,nback,2021.2.3,59.85361004073735,
1-back,instructions\back-1.png,conditions\12back-e.xlsx,,,experiment,1,3,stim\gray.png,stim\gray.png,stim\yellow.png,stim\gray.png,up,,,,,,,,,,,,,0,3,3,6,0,9,9,9,,,,,,,,,,,,,,,,,,,,,,,,,,,,,,,,,,,,,,,,,,,,,,,,,,,,,,,,up,1,399.7106405000086,None,399.7106405000086,None,399.7106405000086,400.7120689000003,399.7106405000086,400.7120689000003,399.7106405000086,400.7120689000003,399.7106405000086,400.7120689000003,399.7106405000086,400.21140699996613,399.7106405000086,400.21140699996613,399.7106405000086,400.21140699996613,399.7106405000086,400.21140699996613,399.7106405000086,None,0.2400707000051625,,,,,11010,001,2024_Jan_01_2003,nback,2021.2.3,59.85361004073735,
1-back,instructions\back-1.png,conditions\12back-e.xlsx,,,experiment,1,4,stim\gray.png,stim\gray.png,stim\gray.png,stim\yellow.png,right,,,,,,,,,,,,,0,3,3,6,0,10,10,10,,,,,,,,,,,,,,,,,,,,,,,,,,,,,,,,,,,,,,,,,,,,,,,,,,,,,,,,right,1,401.21272259997204,None,401.21272259997204,None,401.21272259997204,402.2143445999827,401.21272259997204,402.2143445999827,401.21272259997204,402.2143445999827,401.21272259997204,402.2143445999827,401.21272259997204,401.7136383000179,401.21272259997204,401.7136383000179,401.21272259997204,401.7136383000179,401.21272259997204,401.7136383000179,401.21272259997204,None,0.20187109999824315,,,,,11010,001,2024_Jan_01_2003,nback,2021.2.3,59.85361004073735,
1-back,instructions\back-1.png,conditions\12back-e.xlsx,,,experiment,1,3,stim\gray.png,stim\gray.png,stim\yellow.png,stim\gray.png,down,,,,,,,,,,,,,0,3,3,6,0,11,11,11,,,,,,,,,,,,,,,,,,,,,,,,,,,,,,,,,,,,,,,,,,,,,,,,,,,,,,,,down,1,402.7152444999665,None,402.7152444999665,None,402.7152444999665,403.71729170001345,402.7152444999665,403.71729170001345,402.7152444999665,403.71729170001345,402.7152444999665,403.71729170001345,402.7152444999665,403.21566899999743,402.7152444999665,403.21566899999743,402.7152444999665,403.21566899999743,402.7152444999665,403.21566899999743,402.7152444999665,None,0.21147979999659583,,,,,11010,001,2024_Jan_01_2003,nback,2021.2.3,59.85361004073735,
1-back,instructions\back-1.png,conditions\12back-e.xlsx,,,experiment,1,1,stim\yellow.png,stim\gray.png,stim\gray.png,stim\gray.png,left,,,,,,,,,,,,,0,3,3,6,0,12,12,12,,,,,,,,,,,,,,,,,,,,,,,,,,,,,,,,,,,,,,,,,,,,,,,,,,,,,,,,right,0,404.2172227000119,None,404.2172227000119,None,404.2172227000119,405.21942749997834,404.2172227000119,405.21942749997834,404.2172227000119,405.21942749997834,404.2172227000119,405.21942749997834,404.2172227000119,404.7182801999734,404.2172227000119,404.7182801999734,404.2172227000119,404.7182801999734,404.2172227000119,404.7182801999734,404.2172227000119,None,0.16553290002048016,,,,,11010,001,2024_Jan_01_2003,nback,2021.2.3,59.85361004073735,
1-back,instructions\back-1.png,conditions\12back-e.xlsx,,,experiment,1,4,stim\gray.png,stim\gray.png,stim\gray.png,stim\yellow.png,up,,,,,,,,,,,,,0,3,3,6,0,13,13,13,,,,,,,,,,,,,,,,,,,,,,,,,,,,,,,,,,,,,,,,,,,,,,,,,,,,,,,,None,0,405.71949970000423,None,405.71949970000423,None,405.71949970000423,406.720861800015,405.71949970000423,406.720861800015,405.71949970000423,406.720861800015,405.71949970000423,406.720861800015,405.71949970000423,406.22084729996277,405.71949970000423,406.22084729996277,405.71949970000423,406.22084729996277,405.71949970000423,406.22084729996277,405.71949970000423,None,,,,,,11010,001,2024_Jan_01_2003,nback,2021.2.3,59.85361004073735,
1-back,instructions\back-1.png,conditions\12back-e.xlsx,,,experiment,1,1,stim\yellow.png,stim\gray.png,stim\gray.png,stim\gray.png,down,,,,,,,,,,,,,0,3,3,6,0,14,14,14,,,,,,,,,,,,,,,,,,,,,,,,,,,,,,,,,,,,,,,,,,,,,,,,,,,,,,,,down,1,407.2217190999654,None,407.2217190999654,None,407.2217190999654,408.22319320001407,407.2217190999654,408.22319320001407,407.2217190999654,408.22319320001407,407.2217190999654,408.22319320001407,407.2217190999654,407.72306019999087,407.2217190999654,407.72306019999087,407.2217190999654,407.72306019999087,407.2217190999654,407.72306019999087,407.2217190999654,None,0.1687915999791585,,,,,11010,001,2024_Jan_01_2003,nback,2021.2.3,59.85361004073735,
1-back,instructions\back-1.png,conditions\12back-e.xlsx,,,experiment,1,2,stim\gray.png,stim\yellow.png,stim\gray.png,stim\gray.png,up,,,,,,,,,,,,,0,3,3,6,0,15,15,15,,,,,,,,,,,,,,,,,,,,,,,,,,,,,,,,,,,,,,,,,,,,,,,,,,,,,,,,up,1,408.7239727000124,None,408.7239727000124,None,408.7239727000124,409.72601410001516,408.7239727000124,409.72601410001516,408.7239727000124,409.72601410001516,408.7239727000124,409.72601410001516,408.7239727000124,409.22483949997695,408.7239727000124,409.22483949997695,408.7239727000124,409.22483949997695,408.7239727000124,409.22483949997695,408.7239727000124,None,0.202919400006067,,,,,11010,001,2024_Jan_01_2003,nback,2021.2.3,59.85361004073735,
1-back,instructions\back-1.png,conditions\12back-e.xlsx,,,experiment,1,1,stim\yellow.png,stim\gray.png,stim\gray.png,stim\gray.png,left,,,,,,,,,,,,,0,3,3,6,0,16,16,16,,,,,,,,,,,,,,,,,,,,,,,,,,,,,,,,,,,,,,,,,,,,,,,,,,,,,,,,left,1,410.22618719999446,None,410.22618719999446,None,410.22618719999446,411.2283621999668,410.22618719999446,411.2283621999668,410.22618719999446,411.2283621999668,410.22618719999446,411.2283621999668,410.22618719999446,410.726964499976,410.22618719999446,410.726964499976,410.22618719999446,410.726964499976,410.22618719999446,410.726964499976,410.22618719999446,None,0.2765376000315882,,,,,11010,001,2024_Jan_01_2003,nback,2021.2.3,59.85361004073735,
