backseq,backinstr,backfile,instruction,size_in,Trialtype,back,number,P1,P2,P3,P4,corrAns,trials_practice.thisRepN,trials_practice.thisTrialN,trials_practice.thisN,trials_practice.thisIndex,trials.thisRepN,trials.thisTrialN,trials.thisN,trials.thisIndex,trials_3.thisRepN,trials_3.thisTrialN,trials_3.thisN,trials_3.thisIndex,trials_2.thisRepN,trials_2.thisTrialN,trials_2.thisN,trials_2.thisIndex,trials_4.thisRepN,trials_4.thisTrialN,trials_4.thisN,trials_4.thisIndex,image.started,image.stopped,image_2.started,image_2.stopped,key_resp.keys,key_resp.rt,key_resp.started,key_resp.stopped,image_3.started,image_3.stopped,key_resp_2.keys,key_resp_2.rt,key_resp_2.started,key_resp_2.stopped,image_4.started,image_4.stopped,text.started,text.stopped,H1.started,H1.stopped,H2.started,H2.stopped,H3.started,H3.stopped,H4.started,H4.stopped,key_resp_3.keys,key_resp_3.corr,key_resp_3.rt,key_resp_3.started,key_resp_3.stopped,text_4.started,text_4.stopped,F1.started,F1.stopped,F2.started,F2.stopped,F3.started,F3.stopped,F4.started,F4.stopped,image_7.started,image_7.stopped,text_5.started,text_5.stopped,key_resp_6.keys,key_resp_6.rt,key_resp_6.started,key_resp_6.stopped,image_5.started,image_5.stopped,key_resp_4.keys,key_resp_4.rt,key_resp_4.started,key_resp_4.stopped,key_resp_5.keys,key_resp_5.corr,key_resp_5.started,key_resp_5.stopped,text_3.started,text_3.stopped,H1_2.started,H1_2.stopped,H2_2.started,H2_2.stopped,H3_2.started,H3_2.stopped,H4_2.started,H4_2.stopped,F1_2.started,F1_2.stopped,F2_2.started,F2_2.stopped,F3_2.started,F3_2.stopped,F4_2.started,F4_2.stopped,image_8.started,image_8.stopped,key_resp_5.rt,text_2.started,text_2.stopped,image_6.started,image_6.stopped,participant,session,date,expName,psychopyVersion,frameRate,
,,,,,,,,,,,,,,,,,,,,,,,,,,,,,,,,,11.859213899937458,None,12.82851819996722,None,space,33.157463799929246,12.82851819996722,None,,,,,,,,,,,,,,,,,,,,,,,,,,,,,,,,,,,,,,,,,,,,,,,,,,,,,,,,,,,,,,,,,,,,,,,,,,,,,11015,001,2024_Jan_04_1129,nback,2021.2.3,59.33013902267368,
0-back,instructions\back-0.png,conditions\0back-p.xlsx,instructions\0-BACK.png,"(15, 8)",practice,0,1,stim\yellow.png,stim\gray.png,stim\gray.png,stim\gray.png,up,0,0,0,0,0,0,0,0,0,0,0,0,,,,,,,,,,,,,,,,,46.04254139994737,None,space,44.43162469996605,46.04254139994737,None,90.60961629997473,95.11662330001127,95.08360060001723,None,95.51780659996439,96.51831189997029,95.51780659996439,96.51831189997029,95.51780659996439,96.51831189997029,95.51780659996439,96.51831189997029,up,1,0.5481471000239253,95.51780659996439,None,95.51780659996439,None,95.51780659996439,96.01749210001435,95.51780659996439,96.01749210001435,95.51780659996439,96.01749210001435,95.51780659996439,96.01749210001435,95.51780659996439,None,,,,,,,,,,,,,,,,,,,,,,,,,,,,,,,,,,,,,,,,,,11015,001,2024_Jan_04_1129,nback,2021.2.3,59.33013902267368,
0-back,instructions\back-0.png,conditions\0back-p.xlsx,instructions\0-BACK.png,"(15, 8)",practice,0,2,stim\gray.png,stim\yellow.png,stim\gray.png,stim\gray.png,left,0,0,0,0,0,0,0,0,0,1,1,1,,,,,,,,,,,,,,,,,,,,,,,,,,,97.00194500002544,98.00365770002827,97.00194500002544,98.00365770002827,97.00194500002544,98.00365770002827,97.00194500002544,98.00365770002827,left,1,0.37610779993701726,97.00194500002544,None,97.00194500002544,None,97.00194500002544,97.50297459994908,97.00194500002544,97.50297459994908,97.00194500002544,97.50297459994908,97.00194500002544,97.50297459994908,97.00194500002544,None,,,,,,,,,,,,,,,,,,,,,,,,,,,,,,,,,,,,,,,,,,11015,001,2024_Jan_04_1129,nback,2021.2.3,59.33013902267368,
0-back,instructions\back-0.png,conditions\0back-p.xlsx,instructions\0-BACK.png,"(15, 8)",practice,0,3,stim\gray.png,stim\gray.png,stim\yellow.png,stim\gray.png,right,0,0,0,0,0,0,0,0,0,2,2,2,,,,,,,,,,,,,,,,,,,,,,,,,,,98.5087641000282,99.52310290001333,98.5087641000282,99.52310290001333,98.5087641000282,99.52310290001333,98.5087641000282,99.52310290001333,right,1,0.3013088000006974,98.5087641000282,None,98.5087641000282,None,98.5087641000282,99.02228819997981,98.5087641000282,99.02228819997981,98.5087641000282,99.02228819997981,98.5087641000282,99.02228819997981,98.5087641000282,None,,,,,,,,,,,,,,,,,,,,,,,,,,,,,,,,,,,,,,,,,,11015,001,2024_Jan_04_1129,nback,2021.2.3,59.33013902267368,
0-back,instructions\back-0.png,conditions\0back-p.xlsx,instructions\0-BACK.png,"(15, 8)",practice,0,4,stim\gray.png,stim\gray.png,stim\gray.png,stim\yellow.png,down,0,0,0,0,0,0,0,0,0,3,3,3,,,,,,,,,,,,,,,,,,,,,,,,,,,100.00653779995628,101.00800090003759,100.00653779995628,101.00800090003759,100.00653779995628,101.00800090003759,100.00653779995628,101.00800090003759,down,1,0.22742759995162487,100.00653779995628,None,100.00653779995628,None,100.00653779995628,100.50832130003255,100.00653779995628,100.50832130003255,100.00653779995628,100.50832130003255,100.00653779995628,100.50832130003255,100.00653779995628,None,,,,,,,,,,,,,,,,,,,,,,,,,,,,,,,,,,,,,,,,,,11015,001,2024_Jan_04_1129,nback,2021.2.3,59.33013902267368,
0-back,instructions\back-0.png,conditions\0back-p.xlsx,instructions\0-BACK.png,"(15, 8)",practice,0,2,stim\gray.png,stim\yellow.png,stim\gray.png,stim\gray.png,left,0,0,0,0,0,0,0,0,0,4,4,4,,,,,,,,,,,,,,,,,,,,,,,,,,,101.5096395999426,102.51122809993103,101.5096395999426,102.51122809993103,101.5096395999426,102.51122809993103,101.5096395999426,102.51122809993103,left,1,0.3406886999728158,101.5096395999426,None,101.5096395999426,None,101.5096395999426,102.00993579998612,101.5096395999426,102.00993579998612,101.5096395999426,102.00993579998612,101.5096395999426,102.00993579998612,101.5096395999426,None,,,,,,,,,,,,,,,,,,,,,,,,,,,,,,,,,,,,,,,,,,11015,001,2024_Jan_04_1129,nback,2021.2.3,59.33013902267368,
0-back,instructions\back-0.png,conditions\0back-p.xlsx,instructions\0-BACK.png,"(15, 8)",practice,0,1,stim\yellow.png,stim\gray.png,stim\gray.png,stim\gray.png,up,0,0,0,0,0,0,0,0,0,5,5,5,,,,,,,,,,,,,,,,,,,,,,,,,,,103.01109319995157,104.01348219998181,103.01109319995157,104.01348219998181,103.01109319995157,104.01348219998181,103.01109319995157,104.01348219998181,up,1,0.3677262000273913,103.01109319995157,None,103.01109319995157,None,103.01109319995157,103.51179839996621,103.01109319995157,103.51179839996621,103.01109319995157,103.51179839996621,103.01109319995157,103.51179839996621,103.01109319995157,None,,,,,,,,,,,,,,,,,,,,,,,,,,,,,,,,,,,,,,,,,,11015,001,2024_Jan_04_1129,nback,2021.2.3,59.33013902267368,
0-back,instructions\back-0.png,conditions\0back-p.xlsx,instructions\0-BACK.png,"(15, 8)",practice,0,4,stim\gray.png,stim\gray.png,stim\gray.png,stim\yellow.png,down,0,0,0,0,0,0,0,0,0,6,6,6,,,,,,,,,,,,,,,,,,,,,,,,,,,104.49738930002786,105.49803310004063,104.49738930002786,105.49803310004063,104.49738930002786,105.49803310004063,104.49738930002786,105.49803310004063,down,1,0.31280680000782013,104.49738930002786,None,104.49738930002786,None,104.49738930002786,104.99795929994434,104.49738930002786,104.99795929994434,104.49738930002786,104.99795929994434,104.49738930002786,104.99795929994434,104.49738930002786,None,,,,,,,,,,,,,,,,,,,,,,,,,,,,,,,,,,,,,,,,,,11015,001,2024_Jan_04_1129,nback,2021.2.3,59.33013902267368,
0-back,instructions\back-0.png,conditions\0back-p.xlsx,instructions\0-BACK.png,"(15, 8)",practice,0,3,stim\gray.png,stim\gray.png,stim\yellow.png,stim\gray.png,right,0,0,0,0,0,0,0,0,0,7,7,7,,,,,,,,,,,,,,,,,,,,,,,,,,,105.99868990003597,107.00038620003033,105.99868990003597,107.00038620003033,105.99868990003597,107.00038620003033,105.99868990003597,107.00038620003033,right,1,0.364628899958916,105.99868990003597,None,105.99868990003597,None,105.99868990003597,106.50011749996338,105.99868990003597,106.50011749996338,105.99868990003597,106.50011749996338,105.99868990003597,106.50011749996338,105.99868990003597,None,,,,,,,,,,,,,,,,,,,,,,,,,,,,,,,,,,,,,,,,,,11015,001,2024_Jan_04_1129,nback,2021.2.3,59.33013902267368,
0-back,instructions\back-0.png,conditions\0back-p.xlsx,instructions\0-BACK.png,"(15, 8)",practice,0,3,stim\gray.png,stim\gray.png,stim\yellow.png,stim\gray.png,right,0,0,0,0,0,0,0,0,0,8,8,8,,,,,,,,,,,,,,,,,,,,,,,,,,,107.50116700003855,108.50320649996866,107.50116700003855,108.50320649996866,107.50116700003855,108.50320649996866,107.50116700003855,108.50320649996866,right,1,0.357035499997437,107.50116700003855,None,107.50116700003855,None,107.50116700003855,108.00166730000637,107.50116700003855,108.00166730000637,107.50116700003855,108.00166730000637,107.50116700003855,108.00166730000637,107.50116700003855,None,,,,,,,,,,,,,,,,,,,,,,,,,,,,,,,,,,,,,,,,,,11015,001,2024_Jan_04_1129,nback,2021.2.3,59.33013902267368,
0-back,instructions\back-0.png,conditions\0back-p.xlsx,instructions\0-BACK.png,"(15, 8)",practice,0,4,stim\gray.png,stim\gray.png,stim\gray.png,stim\yellow.png,down,0,0,0,0,0,0,0,0,0,9,9,9,,,,,,,,,,,,,,,,,,,,,,,,,,,109.00335749995429,110.00547189998906,109.00335749995429,110.00547189998906,109.00335749995429,110.00547189998906,109.00335749995429,110.00547189998906,down,1,0.37479079992044717,109.00335749995429,None,109.00335749995429,None,109.00335749995429,109.50472450000234,109.00335749995429,109.50472450000234,109.00335749995429,109.50472450000234,109.00335749995429,109.50472450000234,109.00335749995429,None,,,,,,,,,,,,,,,,,,,,,,,,,,,,,,,,,,,,,,,,,,11015,001,2024_Jan_04_1129,nback,2021.2.3,59.33013902267368,
0-back,instructions\back-0.png,conditions\0back-p.xlsx,instructions\0-BACK.png,"(15, 8)",practice,0,1,stim\yellow.png,stim\gray.png,stim\gray.png,stim\gray.png,up,0,0,0,0,0,0,0,0,0,10,10,10,,,,,,,,,,,,,,,,,,,,,,,,,,,110.5054510999471,111.50799690000713,110.5054510999471,111.50799690000713,110.5054510999471,111.50799690000713,110.5054510999471,111.50799690000713,up,1,0.328816199908033,110.5054510999471,None,110.5054510999471,None,110.5054510999471,111.0067000000272,110.5054510999471,111.0067000000272,110.5054510999471,111.0067000000272,110.5054510999471,111.0067000000272,110.5054510999471,None,,,,,,,,,,,,,,,,,,,,,,,,,,,,,,,,,,,,,,,,,,11015,001,2024_Jan_04_1129,nback,2021.2.3,59.33013902267368,
0-back,instructions\back-0.png,conditions\0back-p.xlsx,instructions\0-BACK.png,"(15, 8)",practice,0,2,stim\gray.png,stim\yellow.png,stim\gray.png,stim\gray.png,left,0,0,0,0,0,0,0,0,0,11,11,11,,,,,,,,,,,,,,,,,,,,,,,,,,,112.00787039997522,113.01035909994971,112.00787039997522,113.01035909994971,112.00787039997522,113.01035909994971,112.00787039997522,113.01035909994971,left,1,0.3222178000723943,112.00787039997522,None,112.00787039997522,None,112.00787039997522,112.50922499992885,112.00787039997522,112.50922499992885,112.00787039997522,112.50922499992885,112.00787039997522,112.50922499992885,112.00787039997522,None,,,,,,,,,,,,,,,,,,,,,,,,,,,,,,,,,,,,,,,,,,11015,001,2024_Jan_04_1129,nback,2021.2.3,59.33013902267368,
0-back,instructions\back-0.png,conditions\0back-p.xlsx,instructions\0-BACK.png,"(15, 8)",practice,0,4,stim\gray.png,stim\gray.png,stim\gray.png,stim\yellow.png,down,0,0,0,0,0,0,0,0,0,12,12,12,,,,,,,,,,,,,,,,,,,,,,,,,,,113.5099126000423,114.5120652000187,113.5099126000423,114.5120652000187,113.5099126000423,114.5120652000187,113.5099126000423,114.5120652000187,down,1,0.30040760000701994,113.5099126000423,None,113.5099126000423,None,113.5099126000423,114.01142440002877,113.5099126000423,114.01142440002877,113.5099126000423,114.01142440002877,113.5099126000423,114.01142440002877,113.5099126000423,None,,,,,,,,,,,,,,,,,,,,,,,,,,,,,,,,,,,,,,,,,,11015,001,2024_Jan_04_1129,nback,2021.2.3,59.33013902267368,
0-back,instructions\back-0.png,conditions\0back-p.xlsx,instructions\0-BACK.png,"(15, 8)",practice,0,3,stim\gray.png,stim\gray.png,stim\yellow.png,stim\gray.png,right,0,0,0,0,0,0,0,0,0,13,13,13,,,,,,,,,,,,,,,,,,,,,,,,,,,115.01317569997627,116.01344180002343,115.01317569997627,116.01344180002343,115.01317569997627,116.01344180002343,115.01317569997627,116.01344180002343,right,1,0.3090028000297025,115.01317569997627,None,115.01317569997627,None,115.01317569997627,115.51351700001396,115.01317569997627,115.51351700001396,115.01317569997627,115.51351700001396,115.01317569997627,115.51351700001396,115.01317569997627,None,,,,,,,,,,,,,,,,,,,,,,,,,,,,,,,,,,,,,,,,,,11015,001,2024_Jan_04_1129,nback,2021.2.3,59.33013902267368,
0-back,instructions\back-0.png,conditions\0back-p.xlsx,instructions\0-BACK.png,"(15, 8)",practice,0,1,stim\yellow.png,stim\gray.png,stim\gray.png,stim\gray.png,up,0,0,0,0,0,0,0,0,0,14,14,14,,,,,,,,,,,,,,,,,,,,,,,,,,,116.49767519999295,117.49939350003842,116.49767519999295,117.49939350003842,116.49767519999295,117.49939350003842,116.49767519999295,117.49939350003842,up,1,0.2962210000259802,116.49767519999295,None,116.49767519999295,None,116.49767519999295,116.99917840003036,116.49767519999295,116.99917840003036,116.49767519999295,116.99917840003036,116.49767519999295,116.99917840003036,116.49767519999295,None,,,,,,,,,,,,,,,,,,,,,,,,,,,,,,,,,,,,,,,,,,11015,001,2024_Jan_04_1129,nback,2021.2.3,59.33013902267368,
0-back,instructions\back-0.png,conditions\0back-p.xlsx,instructions\0-BACK.png,"(15, 8)",practice,0,2,stim\gray.png,stim\yellow.png,stim\gray.png,stim\gray.png,left,0,0,0,0,0,0,0,0,0,15,15,15,,,,,,,,,,,,,,,,,,,,,,,,,,,118.00002060004044,119.0020949000027,118.00002060004044,119.0020949000027,118.00002060004044,119.0020949000027,118.00002060004044,119.0020949000027,left,1,0.25793929991777986,118.00002060004044,None,118.00002060004044,None,118.00002060004044,118.50106139993295,118.00002060004044,118.50106139993295,118.00002060004044,118.50106139993295,118.00002060004044,118.50106139993295,118.00002060004044,None,,,,,,,,,,,,,,,,,,,,,,,,,,,,,,,,,,,,,,,,,,11015,001,2024_Jan_04_1129,nback,2021.2.3,59.33013902267368,
0-back,instructions\back-0.png,conditions\0back-p.xlsx,instructions\0-BACK.png,"(15, 8)",practice,0,3,stim\gray.png,stim\gray.png,stim\yellow.png,stim\gray.png,right,0,0,0,0,0,0,0,0,0,16,16,16,,,,,,,,,,,,,,,,,,,,,,,,,,,119.50221669999883,120.50476849998813,119.50221669999883,120.50476849998813,119.50221669999883,120.50476849998813,119.50221669999883,120.50476849998813,right,1,0.3877986000152305,119.50221669999883,None,119.50221669999883,None,119.50221669999883,120.00335330003873,119.50221669999883,120.00335330003873,119.50221669999883,120.00335330003873,119.50221669999883,120.00335330003873,119.50221669999883,None,,,,,,,,,,,,,,,,,,,,,,,,,,,,,,,,,,,,,,,,,,11015,001,2024_Jan_04_1129,nback,2021.2.3,59.33013902267368,
0-back,instructions\back-0.png,conditions\0back-p.xlsx,instructions\0-BACK.png,"(15, 8)",practice,0,1,stim\yellow.png,stim\gray.png,stim\gray.png,stim\gray.png,up,0,0,0,0,0,0,0,0,0,17,17,17,,,,,,,,,,,,,,,,,,,,,,,,,,,121.00470639998093,122.00720839994028,121.00470639998093,122.00720839994028,121.00470639998093,122.00720839994028,121.00470639998093,122.00720839994028,up,1,0.3413920000893995,121.00470639998093,None,121.00470639998093,None,121.00470639998093,121.50593119999394,121.00470639998093,121.50593119999394,121.00470639998093,121.50593119999394,121.00470639998093,121.50593119999394,121.00470639998093,None,,,,,,,,,,,,,,,,,,,,,,,,,,,,,,,,,,,,,,,,,,11015,001,2024_Jan_04_1129,nback,2021.2.3,59.33013902267368,
0-back,instructions\back-0.png,conditions\0back-p.xlsx,instructions\0-BACK.png,"(15, 8)",practice,0,4,stim\gray.png,stim\gray.png,stim\gray.png,stim\yellow.png,down,0,0,0,0,0,0,0,0,0,18,18,18,,,,,,,,,,,,,,,,,,,,,,,,,,,122.50656699994579,123.50829459994566,122.50656699994579,123.50829459994566,122.50656699994579,123.50829459994566,122.50656699994579,123.50829459994566,down,1,0.25565479998476803,122.50656699994579,None,122.50656699994579,None,122.50656699994579,123.00798650004435,122.50656699994579,123.00798650004435,122.50656699994579,123.00798650004435,122.50656699994579,123.00798650004435,122.50656699994579,None,,,,,,,,,,,,,,,,,,,,,,,,,,,,,,,,,,,,,,,,,,11015,001,2024_Jan_04_1129,nback,2021.2.3,59.33013902267368,
0-back,instructions\back-0.png,conditions\0back-p.xlsx,instructions\0-BACK.png,"(15, 8)",practice,0,2,stim\gray.png,stim\yellow.png,stim\gray.png,stim\gray.png,left,0,0,0,0,0,0,0,0,0,19,19,19,,,,,,,,,,,,,,,,,,,,,,,,,,,124.00892739999108,125.01084789994638,124.00892739999108,125.01084789994638,124.00892739999108,125.01084789994638,124.00892739999108,125.01084789994638,left,1,0.34515740000642836,124.00892739999108,None,124.00892739999108,None,124.00892739999108,124.51025339995977,124.00892739999108,124.51025339995977,124.00892739999108,124.51025339995977,124.00892739999108,124.51025339995977,124.00892739999108,None,,,,,,,,,,,,,,,,,,,,,,,,,,,,,,,,,,,,,,,,,,11015,001,2024_Jan_04_1129,nback,2021.2.3,59.33013902267368,
0-back,instructions\back-0.png,conditions\0back-p.xlsx,instructions\0-BACK.png,"(15, 8)",,,,,,,,,0,0,0,0,0,0,0,0,,,,,,,,,,,,,,,,,,,,,,,,,,,,,,,,,,,,,,,,,,,,,,,,,,,,,,,,,,,,,,,,,,,,,,,,,,,,,,,,,,,,,,,,,,,,,,,,,11015,001,2024_Jan_04_1129,nback,2021.2.3,59.33013902267368,
1-back,instructions\back-1.png,conditions\1back-p.xlsx,instructions\1-BACK.png,"(25, 15)",practice,1,1,stim\yellow.png,stim\gray.png,stim\gray.png,stim\gray.png,None,0,0,0,0,0,1,1,1,0,0,0,0,,,,,,,,,,,,,,,,,125.62917600001674,None,space,48.72512680001091,125.62917600001674,None,174.48290239996277,178.99042849999387,178.9737428999506,None,179.40829639998265,180.40969330002554,179.40829639998265,180.40969330002554,179.40829639998265,180.40969330002554,179.40829639998265,180.40969330002554,None,1,,179.40829639998265,None,179.40829639998265,None,179.40829639998265,179.90808319998905,179.40829639998265,179.90808319998905,179.40829639998265,179.90808319998905,179.40829639998265,179.90808319998905,179.40829639998265,None,,,,,,,,,,,,,,,,,,,,,,,,,,,,,,,,,,,,,,,,,,11015,001,2024_Jan_04_1129,nback,2021.2.3,59.33013902267368,
1-back,instructions\back-1.png,conditions\1back-p.xlsx,instructions\1-BACK.png,"(25, 15)",practice,1,2,stim\gray.png,stim\yellow.png,stim\gray.png,stim\gray.png,up,0,0,0,0,0,1,1,1,0,1,1,1,,,,,,,,,,,,,,,,,,,,,,,,,,,180.89325480000116,181.89535410003737,180.89325480000116,181.89535410003737,180.89325480000116,181.89535410003737,180.89325480000116,181.89535410003737,up,1,0.9655535999918357,180.89325480000116,None,180.89325480000116,None,180.89325480000116,181.39469039998949,180.89325480000116,181.39469039998949,180.89325480000116,181.39469039998949,180.89325480000116,181.39469039998949,180.89325480000116,None,,,,,,,,,,,,,,,,,,,,,,,,,,,,,,,,,,,,,,,,,,11015,001,2024_Jan_04_1129,nback,2021.2.3,59.33013902267368,
1-back,instructions\back-1.png,conditions\1back-p.xlsx,instructions\1-BACK.png,"(25, 15)",practice,1,3,stim\gray.png,stim\gray.png,stim\yellow.png,stim\gray.png,left,0,0,0,0,0,1,1,1,0,2,2,2,,,,,,,,,,,,,,,,,,,,,,,,,,,182.39530470001046,183.39763999998104,182.39530470001046,183.39763999998104,182.39530470001046,183.39763999998104,182.39530470001046,183.39763999998104,left,1,1.3589854000601918,182.39530470001046,None,182.39530470001046,None,182.39530470001046,182.89616180001758,182.39530470001046,182.89616180001758,182.39530470001046,182.89616180001758,182.39530470001046,182.89616180001758,182.39530470001046,None,,,,,,,,,,,,,,,,,,,,,,,,,,,,,,,,,,,,,,,,,,11015,001,2024_Jan_04_1129,nback,2021.2.3,59.33013902267368,
1-back,instructions\back-1.png,conditions\1back-p.xlsx,instructions\1-BACK.png,"(25, 15)",practice,1,4,stim\gray.png,stim\gray.png,stim\gray.png,stim\yellow.png,right,0,0,0,0,0,1,1,1,0,3,3,3,,,,,,,,,,,,,,,,,,,,,,,,,,,183.89767360000405,184.8992627999978,183.89767360000405,184.8992627999978,183.89767360000405,184.8992627999978,183.89767360000405,184.8992627999978,None,0,,183.89767360000405,None,183.89767360000405,None,183.89767360000405,184.39898379996885,183.89767360000405,184.39898379996885,183.89767360000405,184.39898379996885,183.89767360000405,184.39898379996885,183.89767360000405,None,,,,,,,,,,,,,,,,,,,,,,,,,,,,,,,,,,,,,,,,,,11015,001,2024_Jan_04_1129,nback,2021.2.3,59.33013902267368,
1-back,instructions\back-1.png,conditions\1back-p.xlsx,instructions\1-BACK.png,"(25, 15)",practice,1,2,stim\gray.png,stim\yellow.png,stim\gray.png,stim\gray.png,down,0,0,0,0,0,1,1,1,0,4,4,4,,,,,,,,,,,,,,,,,,,,,,,,,,,185.40050180000253,186.4013866999885,185.40050180000253,186.4013866999885,185.40050180000253,186.4013866999885,185.40050180000253,186.4013866999885,right,0,0.0021983999758958817,185.40050180000253,None,185.40050180000253,None,185.40050180000253,185.90126059995964,185.40050180000253,185.90126059995964,185.40050180000253,185.90126059995964,185.40050180000253,185.90126059995964,185.40050180000253,None,,,,,,,,,,,,,,,,,,,,,,,,,,,,,,,,,,,,,,,,,,11015,001,2024_Jan_04_1129,nback,2021.2.3,59.33013902267368,
1-back,instructions\back-1.png,conditions\1back-p.xlsx,instructions\1-BACK.png,"(25, 15)",practice,1,1,stim\yellow.png,stim\gray.png,stim\gray.png,stim\gray.png,left,0,0,0,0,0,1,1,1,0,5,5,5,,,,,,,,,,,,,,,,,,,,,,,,,,,186.90286060003564,187.9035721999826,186.90286060003564,187.9035721999826,186.90286060003564,187.9035721999826,186.90286060003564,187.9035721999826,up,0,0.5481200999347493,186.90286060003564,None,186.90286060003564,None,186.90286060003564,187.40353459992912,186.90286060003564,187.40353459992912,186.90286060003564,187.40353459992912,186.90286060003564,187.40353459992912,186.90286060003564,None,,,,,,,,,,,,,,,,,,,,,,,,,,,,,,,,,,,,,,,,,,11015,001,2024_Jan_04_1129,nback,2021.2.3,59.33013902267368,
1-back,instructions\back-1.png,conditions\1back-p.xlsx,instructions\1-BACK.png,"(25, 15)",practice,1,4,stim\gray.png,stim\gray.png,stim\gray.png,stim\yellow.png,up,0,0,0,0,0,1,1,1,0,6,6,6,,,,,,,,,,,,,,,,,,,,,,,,,,,188.40472670004237,189.40586790000089,188.40472670004237,189.40586790000089,188.40472670004237,189.40586790000089,188.40472670004237,189.40586790000089,left,0,0.22144230001140386,188.40472670004237,None,188.40472670004237,None,188.40472670004237,188.90634560002945,188.40472670004237,188.90634560002945,188.40472670004237,188.90634560002945,188.40472670004237,188.90634560002945,188.40472670004237,None,,,,,,,,,,,,,,,,,,,,,,,,,,,,,,,,,,,,,,,,,,11015,001,2024_Jan_04_1129,nback,2021.2.3,59.33013902267368,
1-back,instructions\back-1.png,conditions\1back-p.xlsx,instructions\1-BACK.png,"(25, 15)",practice,1,3,stim\gray.png,stim\gray.png,stim\yellow.png,stim\gray.png,down,0,0,0,0,0,1,1,1,0,7,7,7,,,,,,,,,,,,,,,,,,,,,,,,,,,189.88989430002403,190.89138779998757,189.88989430002403,190.89138779998757,189.88989430002403,190.89138779998757,189.88989430002403,190.89138779998757,up,0,1.3530918000033125,189.88989430002403,None,189.88989430002403,None,189.88989430002403,190.39063080004416,189.88989430002403,190.39063080004416,189.88989430002403,190.39063080004416,189.88989430002403,190.39063080004416,189.88989430002403,None,,,,,,,,,,,,,,,,,,,,,,,,,,,,,,,,,,,,,,,,,,11015,001,2024_Jan_04_1129,nback,2021.2.3,59.33013902267368,
1-back,instructions\back-1.png,conditions\1back-p.xlsx,instructions\1-BACK.png,"(25, 15)",practice,1,3,stim\gray.png,stim\gray.png,stim\yellow.png,stim\gray.png,right,0,0,0,0,0,1,1,1,0,8,8,8,,,,,,,,,,,,,,,,,,,,,,,,,,,191.39273550000507,192.3932931999443,191.39273550000507,192.3932931999443,191.39273550000507,192.3932931999443,191.39273550000507,192.3932931999443,None,0,,191.39273550000507,None,191.39273550000507,None,191.39273550000507,191.89285019994713,191.39273550000507,191.89285019994713,191.39273550000507,191.89285019994713,191.39273550000507,191.89285019994713,191.39273550000507,None,,,,,,,,,,,,,,,,,,,,,,,,,,,,,,,,,,,,,,,,,,11015,001,2024_Jan_04_1129,nback,2021.2.3,59.33013902267368,
1-back,instructions\back-1.png,conditions\1back-p.xlsx,instructions\1-BACK.png,"(25, 15)",practice,1,4,stim\gray.png,stim\gray.png,stim\gray.png,stim\yellow.png,right,0,0,0,0,0,1,1,1,0,9,9,9,,,,,,,,,,,,,,,,,,,,,,,,,,,192.89429309999105,193.89574980002362,192.89429309999105,193.89574980002362,192.89429309999105,193.89574980002362,192.89429309999105,193.89574980002362,right,1,0.9243449000641704,192.89429309999105,None,192.89429309999105,None,192.89429309999105,193.39487099996768,192.89429309999105,193.39487099996768,192.89429309999105,193.39487099996768,192.89429309999105,193.39487099996768,192.89429309999105,None,,,,,,,,,,,,,,,,,,,,,,,,,,,,,,,,,,,,,,,,,,11015,001,2024_Jan_04_1129,nback,2021.2.3,59.33013902267368,
1-back,instructions\back-1.png,conditions\1back-p.xlsx,instructions\1-BACK.png,"(25, 15)",practice,1,1,stim\yellow.png,stim\gray.png,stim\gray.png,stim\gray.png,down,0,0,0,0,0,1,1,1,0,10,10,10,,,,,,,,,,,,,,,,,,,,,,,,,,,194.3962889999384,195.39863660000265,194.3962889999384,195.39863660000265,194.3962889999384,195.39863660000265,194.3962889999384,195.39863660000265,None,0,,194.3962889999384,None,194.3962889999384,None,194.3962889999384,194.89771549997386,194.3962889999384,194.89771549997386,194.3962889999384,194.89771549997386,194.3962889999384,194.89771549997386,194.3962889999384,None,,,,,,,,,,,,,,,,,,,,,,,,,,,,,,,,,,,,,,,,,,11015,001,2024_Jan_04_1129,nback,2021.2.3,59.33013902267368,
1-back,instructions\back-1.png,conditions\1back-p.xlsx,instructions\1-BACK.png,"(25, 15)",practice,1,2,stim\gray.png,stim\yellow.png,stim\gray.png,stim\gray.png,up,0,0,0,0,0,1,1,1,0,11,11,11,,,,,,,,,,,,,,,,,,,,,,,,,,,195.89875149994623,196.9002560999943,195.89875149994623,196.9002560999943,195.89875149994623,196.9002560999943,195.89875149994623,196.9002560999943,up,1,0.3354390999302268,195.89875149994623,None,195.89875149994623,None,195.89875149994623,196.39969009999186,195.89875149994623,196.39969009999186,195.89875149994623,196.39969009999186,195.89875149994623,196.39969009999186,195.89875149994623,None,,,,,,,,,,,,,,,,,,,,,,,,,,,,,,,,,,,,,,,,,,11015,001,2024_Jan_04_1129,nback,2021.2.3,59.33013902267368,
1-back,instructions\back-1.png,conditions\1back-p.xlsx,instructions\1-BACK.png,"(25, 15)",practice,1,4,stim\gray.png,stim\gray.png,stim\gray.png,stim\yellow.png,left,0,0,0,0,0,1,1,1,0,12,12,12,,,,,,,,,,,,,,,,,,,,,,,,,,,197.40114860003814,198.4031597999856,197.40114860003814,198.4031597999856,197.40114860003814,198.4031597999856,197.40114860003814,198.4031597999856,left,1,1.31357170001138,197.40114860003814,None,197.40114860003814,None,197.40114860003814,197.90256439999212,197.40114860003814,197.90256439999212,197.40114860003814,197.90256439999212,197.40114860003814,197.90256439999212,197.40114860003814,None,,,,,,,,,,,,,,,,,,,,,,,,,,,,,,,,,,,,,,,,,,11015,001,2024_Jan_04_1129,nback,2021.2.3,59.33013902267368,
1-back,instructions\back-1.png,conditions\1back-p.xlsx,instructions\1-BACK.png,"(25, 15)",practice,1,3,stim\gray.png,stim\gray.png,stim\yellow.png,stim\gray.png,down,0,0,0,0,0,1,1,1,0,13,13,13,,,,,,,,,,,,,,,,,,,,,,,,,,,198.90319039998576,199.90544989996124,198.90319039998576,199.90544989996124,198.90319039998576,199.90544989996124,198.90319039998576,199.90544989996124,None,0,,198.90319039998576,None,198.90319039998576,None,198.90319039998576,199.40466240001842,198.90319039998576,199.40466240001842,198.90319039998576,199.40466240001842,198.90319039998576,199.40466240001842,198.90319039998576,None,,,,,,,,,,,,,,,,,,,,,,,,,,,,,,,,,,,,,,,,,,11015,001,2024_Jan_04_1129,nback,2021.2.3,59.33013902267368,
1-back,instructions\back-1.png,conditions\1back-p.xlsx,instructions\1-BACK.png,"(25, 15)",practice,1,1,stim\yellow.png,stim\gray.png,stim\gray.png,stim\gray.png,right,0,0,0,0,0,1,1,1,0,14,14,14,,,,,,,,,,,,,,,,,,,,,,,,,,,200.3887192000402,201.3911008000141,200.3887192000402,201.3911008000141,200.3887192000402,201.3911008000141,200.3887192000402,201.3911008000141,down,0,0.6535294000059366,200.3887192000402,None,200.3887192000402,None,200.3887192000402,200.88985349994618,200.3887192000402,200.88985349994618,200.3887192000402,200.88985349994618,200.3887192000402,200.88985349994618,200.3887192000402,None,,,,,,,,,,,,,,,,,,,,,,,,,,,,,,,,,,,,,,,,,,11015,001,2024_Jan_04_1129,nback,2021.2.3,59.33013902267368,
1-back,instructions\back-1.png,conditions\1back-p.xlsx,instructions\1-BACK.png,"(25, 15)",practice,1,2,stim\gray.png,stim\yellow.png,stim\gray.png,stim\gray.png,up,0,0,0,0,0,1,1,1,0,15,15,15,,,,,,,,,,,,,,,,,,,,,,,,,,,201.89095289993566,202.8936837000074,201.89095289993566,202.8936837000074,201.89095289993566,202.8936837000074,201.89095289993566,202.8936837000074,right,0,1.0553652999224141,201.89095289993566,None,201.89095289993566,None,201.89095289993566,202.39198549999855,201.89095289993566,202.39198549999855,201.89095289993566,202.39198549999855,201.89095289993566,202.39198549999855,201.89095289993566,None,,,,,,,,,,,,,,,,,,,,,,,,,,,,,,,,,,,,,,,,,,11015,001,2024_Jan_04_1129,nback,2021.2.3,59.33013902267368,
1-back,instructions\back-1.png,conditions\1back-p.xlsx,instructions\1-BACK.png,"(25, 15)",practice,1,3,stim\gray.png,stim\gray.png,stim\yellow.png,stim\gray.png,left,0,0,0,0,0,1,1,1,0,16,16,16,,,,,,,,,,,,,,,,,,,,,,,,,,,203.39297389995772,204.39544679992832,203.39297389995772,204.39544679992832,203.39297389995772,204.39544679992832,203.39297389995772,204.39544679992832,left,1,1.2977402999531478,203.39297389995772,None,203.39297389995772,None,203.39297389995772,203.8943416000111,203.39297389995772,203.8943416000111,203.39297389995772,203.8943416000111,203.39297389995772,203.8943416000111,203.39297389995772,None,,,,,,,,,,,,,,,,,,,,,,,,,,,,,,,,,,,,,,,,,,11015,001,2024_Jan_04_1129,nback,2021.2.3,59.33013902267368,
1-back,instructions\back-1.png,conditions\1back-p.xlsx,instructions\1-BACK.png,"(25, 15)",practice,1,1,stim\yellow.png,stim\gray.png,stim\gray.png,stim\gray.png,right,0,0,0,0,0,1,1,1,0,17,17,17,,,,,,,,,,,,,,,,,,,,,,,,,,,204.89538390003145,205.89766669995151,204.89538390003145,205.89766669995151,204.89538390003145,205.89766669995151,204.89538390003145,205.89766669995151,None,0,,204.89538390003145,None,204.89538390003145,None,204.89538390003145,205.39613809995353,204.89538390003145,205.39613809995353,204.89538390003145,205.39613809995353,204.89538390003145,205.39613809995353,204.89538390003145,None,,,,,,,,,,,,,,,,,,,,,,,,,,,,,,,,,,,,,,,,,,11015,001,2024_Jan_04_1129,nback,2021.2.3,59.33013902267368,
1-back,instructions\back-1.png,conditions\1back-p.xlsx,instructions\1-BACK.png,"(25, 15)",practice,1,4,stim\gray.png,stim\gray.png,stim\gray.png,stim\yellow.png,up,0,0,0,0,0,1,1,1,0,18,18,18,,,,,,,,,,,,,,,,,,,,,,,,,,,206.39756980002858,207.39908010000363,206.39756980002858,207.39908010000363,206.39756980002858,207.39908010000363,206.39756980002858,207.39908010000363,right,0,1.3966617999831215,206.39756980002858,None,206.39756980002858,None,206.39756980002858,206.8990255999379,206.39756980002858,206.8990255999379,206.39756980002858,206.8990255999379,206.39756980002858,206.8990255999379,206.39756980002858,None,,,,,,,,,,,,,,,,,,,,,,,,,,,,,,,,,,,,,,,,,,11015,001,2024_Jan_04_1129,nback,2021.2.3,59.33013902267368,
1-back,instructions\back-1.png,conditions\1back-p.xlsx,instructions\1-BACK.png,"(25, 15)",practice,1,2,stim\gray.png,stim\yellow.png,stim\gray.png,stim\gray.png,down,0,0,0,0,0,1,1,1,0,19,19,19,,,,,,,,,,,,,,,,,,,,,,,,,,,207.89982519997284,208.90112729999237,207.89982519997284,208.90112729999237,207.89982519997284,208.90112729999237,207.89982519997284,208.90112729999237,None,0,,207.89982519997284,None,207.89982519997284,None,207.89982519997284,208.40071700001135,207.89982519997284,208.40071700001135,207.89982519997284,208.40071700001135,207.89982519997284,208.40071700001135,207.89982519997284,None,,,,,,,,,,,,,,,,,,,,,,,,,,,,,,,,,,,,,,,,,,11015,001,2024_Jan_04_1129,nback,2021.2.3,59.33013902267368,
1-back,instructions\back-1.png,conditions\1back-p.xlsx,instructions\1-BACK.png,"(25, 15)",,,,,,,,,0,0,0,0,0,1,1,1,,,,,,,,,,,,,,,,,,,,,,,,,,,,,,,,,,,,,,,,,,,,,,,,,,,,,,,,,,,,,,,,,,,,,,,,,,,,,,,,,,,,,,,,,,,,,,,,,11015,001,2024_Jan_04_1129,nback,2021.2.3,59.33013902267368,
2-back,instructions\back-2.png,conditions\2back-p.xlsx,instructions\2-BACK.png,"(25, 15)",practice,2,1,stim\yellow.png,stim\gray.png,stim\gray.png,stim\gray.png,None,0,0,0,0,0,2,2,2,0,0,0,0,,,,,,,,,,,,,,,,,209.51973049994558,None,space,25.91466099990066,209.51973049994558,None,235.57418080000207,240.0815839000279,240.0492730999831,None,240.4836696999846,241.4837357000215,240.4836696999846,241.4837357000215,240.4836696999846,241.4837357000215,240.4836696999846,241.4837357000215,None,1,,240.4836696999846,None,240.4836696999846,None,240.4836696999846,241.00012770004105,240.4836696999846,241.00012770004105,240.4836696999846,241.00012770004105,240.4836696999846,241.00012770004105,240.4836696999846,None,,,,,,,,,,,,,,,,,,,,,,,,,,,,,,,,,,,,,,,,,,11015,001,2024_Jan_04_1129,nback,2021.2.3,59.33013902267368,
2-back,instructions\back-2.png,conditions\2back-p.xlsx,instructions\2-BACK.png,"(25, 15)",practice,2,2,stim\gray.png,stim\yellow.png,stim\gray.png,stim\gray.png,None,0,0,0,0,0,2,2,2,0,1,1,1,,,,,,,,,,,,,,,,,,,,,,,,,,,241.96704250003677,242.96916049998254,241.96704250003677,242.96916049998254,241.96704250003677,242.96916049998254,241.96704250003677,242.96916049998254,None,1,,241.96704250003677,None,241.96704250003677,None,241.96704250003677,242.46924659993965,241.96704250003677,242.46924659993965,241.96704250003677,242.46924659993965,241.96704250003677,242.46924659993965,241.96704250003677,None,,,,,,,,,,,,,,,,,,,,,,,,,,,,,,,,,,,,,,,,,,11015,001,2024_Jan_04_1129,nback,2021.2.3,59.33013902267368,
2-back,instructions\back-2.png,conditions\2back-p.xlsx,instructions\2-BACK.png,"(25, 15)",practice,2,3,stim\gray.png,stim\gray.png,stim\yellow.png,stim\gray.png,up,0,0,0,0,0,2,2,2,0,2,2,2,,,,,,,,,,,,,,,,,,,,,,,,,,,243.46897419996094,244.47130239999387,243.46897419996094,244.47130239999387,243.46897419996094,244.47130239999387,243.46897419996094,244.47130239999387,up,1,0.42128860007505864,243.46897419996094,None,243.46897419996094,None,243.46897419996094,243.9710251999786,243.46897419996094,243.9710251999786,243.46897419996094,243.9710251999786,243.46897419996094,243.9710251999786,243.46897419996094,None,,,,,,,,,,,,,,,,,,,,,,,,,,,,,,,,,,,,,,,,,,11015,001,2024_Jan_04_1129,nback,2021.2.3,59.33013902267368,
2-back,instructions\back-2.png,conditions\2back-p.xlsx,instructions\2-BACK.png,"(25, 15)",practice,2,4,stim\gray.png,stim\gray.png,stim\gray.png,stim\yellow.png,left,0,0,0,0,0,2,2,2,0,3,3,3,,,,,,,,,,,,,,,,,,,,,,,,,,,244.9714352999581,245.97294509992935,244.9714352999581,245.97294509992935,244.9714352999581,245.97294509992935,244.9714352999581,245.97294509992935,left,1,0.46323700004722923,244.9714352999581,None,244.9714352999581,None,244.9714352999581,245.472819800023,244.9714352999581,245.472819800023,244.9714352999581,245.472819800023,244.9714352999581,245.472819800023,244.9714352999581,None,,,,,,,,,,,,,,,,,,,,,,,,,,,,,,,,,,,,,,,,,,11015,001,2024_Jan_04_1129,nback,2021.2.3,59.33013902267368,
2-back,instructions\back-2.png,conditions\2back-p.xlsx,instructions\2-BACK.png,"(25, 15)",practice,2,2,stim\gray.png,stim\yellow.png,stim\gray.png,stim\gray.png,right,0,0,0,0,0,2,2,2,0,4,4,4,,,,,,,,,,,,,,,,,,,,,,,,,,,246.4737322999863,247.47647779993713,246.4737322999863,247.47647779993713,246.4737322999863,247.47647779993713,246.4737322999863,247.47647779993713,right,1,0.29667549999430776,246.4737322999863,None,246.4737322999863,None,246.4737322999863,246.97526129998732,246.4737322999863,246.97526129998732,246.4737322999863,246.97526129998732,246.4737322999863,246.97526129998732,246.4737322999863,None,,,,,,,,,,,,,,,,,,,,,,,,,,,,,,,,,,,,,,,,,,11015,001,2024_Jan_04_1129,nback,2021.2.3,59.33013902267368,
2-back,instructions\back-2.png,conditions\2back-p.xlsx,instructions\2-BACK.png,"(25, 15)",practice,2,1,stim\yellow.png,stim\gray.png,stim\gray.png,stim\gray.png,down,0,0,0,0,0,2,2,2,0,5,5,5,,,,,,,,,,,,,,,,,,,,,,,,,,,247.97580050001852,248.978212099988,247.97580050001852,248.978212099988,247.97580050001852,248.978212099988,247.97580050001852,248.978212099988,left,0,1.2906058999942616,247.97580050001852,None,247.97580050001852,None,247.97580050001852,248.47668950003572,247.97580050001852,248.47668950003572,247.97580050001852,248.47668950003572,247.97580050001852,248.47668950003572,247.97580050001852,None,,,,,,,,,,,,,,,,,,,,,,,,,,,,,,,,,,,,,,,,,,11015,001,2024_Jan_04_1129,nback,2021.2.3,59.33013902267368,
2-back,instructions\back-2.png,conditions\2back-p.xlsx,instructions\2-BACK.png,"(25, 15)",practice,2,4,stim\gray.png,stim\gray.png,stim\gray.png,stim\yellow.png,left,0,0,0,0,0,2,2,2,0,6,6,6,,,,,,,,,,,,,,,,,,,,,,,,,,,249.461555799935,250.46303640003316,249.461555799935,250.46303640003316,249.461555799935,250.46303640003316,249.461555799935,250.46303640003316,up,0,1.1167623000219464,249.461555799935,None,249.461555799935,None,249.461555799935,249.96201379993,249.461555799935,249.96201379993,249.461555799935,249.96201379993,249.461555799935,249.96201379993,249.461555799935,None,,,,,,,,,,,,,,,,,,,,,,,,,,,,,,,,,,,,,,,,,,11015,001,2024_Jan_04_1129,nback,2021.2.3,59.33013902267368,
2-back,instructions\back-2.png,conditions\2back-p.xlsx,instructions\2-BACK.png,"(25, 15)",practice,2,3,stim\gray.png,stim\gray.png,stim\yellow.png,stim\gray.png,up,0,0,0,0,0,2,2,2,0,7,7,7,,,,,,,,,,,,,,,,,,,,,,,,,,,250.96369669993874,251.96675359993242,250.96369669993874,251.96675359993242,250.96369669993874,251.96675359993242,250.96369669993874,251.96675359993242,down,0,0.7426356999203563,250.96369669993874,None,250.96369669993874,None,250.96369669993874,251.4643946000142,250.96369669993874,251.4643946000142,250.96369669993874,251.4643946000142,250.96369669993874,251.4643946000142,250.96369669993874,None,,,,,,,,,,,,,,,,,,,,,,,,,,,,,,,,,,,,,,,,,,11015,001,2024_Jan_04_1129,nback,2021.2.3,59.33013902267368,
2-back,instructions\back-2.png,conditions\2back-p.xlsx,instructions\2-BACK.png,"(25, 15)",practice,2,3,stim\gray.png,stim\gray.png,stim\yellow.png,stim\gray.png,down,0,0,0,0,0,2,2,2,0,8,8,8,,,,,,,,,,,,,,,,,,,,,,,,,,,252.4659313999582,253.4679310999345,252.4659313999582,253.4679310999345,252.4659313999582,253.4679310999345,252.4659313999582,253.4679310999345,right,0,1.4243747000582516,252.4659313999582,None,252.4659313999582,None,252.4659313999582,252.96719330002088,252.4659313999582,252.96719330002088,252.4659313999582,252.96719330002088,252.4659313999582,252.96719330002088,252.4659313999582,None,,,,,,,,,,,,,,,,,,,,,,,,,,,,,,,,,,,,,,,,,,11015,001,2024_Jan_04_1129,nback,2021.2.3,59.33013902267368,
2-back,instructions\back-2.png,conditions\2back-p.xlsx,instructions\2-BACK.png,"(25, 15)",practice,2,4,stim\gray.png,stim\gray.png,stim\gray.png,stim\yellow.png,right,0,0,0,0,0,2,2,2,0,9,9,9,,,,,,,,,,,,,,,,,,,,,,,,,,,253.9681415000232,254.9702343000099,253.9681415000232,254.9702343000099,253.9681415000232,254.9702343000099,253.9681415000232,254.9702343000099,None,0,,253.9681415000232,None,253.9681415000232,None,253.9681415000232,254.46895889996085,253.9681415000232,254.46895889996085,253.9681415000232,254.46895889996085,253.9681415000232,254.46895889996085,253.9681415000232,None,,,,,,,,,,,,,,,,,,,,,,,,,,,,,,,,,,,,,,,,,,11015,001,2024_Jan_04_1129,nback,2021.2.3,59.33013902267368,
2-back,instructions\back-2.png,conditions\2back-p.xlsx,instructions\2-BACK.png,"(25, 15)",practice,2,1,stim\yellow.png,stim\gray.png,stim\gray.png,stim\gray.png,right,0,0,0,0,0,2,2,2,0,10,10,10,,,,,,,,,,,,,,,,,,,,,,,,,,,255.4701659999555,256.4720832000021,255.4701659999555,256.4720832000021,255.4701659999555,256.4720832000021,255.4701659999555,256.4720832000021,right,1,0.2040387000888586,255.4701659999555,None,255.4701659999555,None,255.4701659999555,255.9718515999848,255.4701659999555,255.9718515999848,255.4701659999555,255.9718515999848,255.4701659999555,255.9718515999848,255.4701659999555,None,,,,,,,,,,,,,,,,,,,,,,,,,,,,,,,,,,,,,,,,,,11015,001,2024_Jan_04_1129,nback,2021.2.3,59.33013902267368,
2-back,instructions\back-2.png,conditions\2back-p.xlsx,instructions\2-BACK.png,"(25, 15)",practice,2,2,stim\gray.png,stim\yellow.png,stim\gray.png,stim\gray.png,down,0,0,0,0,0,2,2,2,0,11,11,11,,,,,,,,,,,,,,,,,,,,,,,,,,,256.97343879996333,257.9740814999677,256.97343879996333,257.9740814999677,256.97343879996333,257.9740814999677,256.97343879996333,257.9740814999677,down,1,0.1890465000178665,256.97343879996333,None,256.97343879996333,None,256.97343879996333,257.47378749994095,256.97343879996333,257.47378749994095,256.97343879996333,257.47378749994095,256.97343879996333,257.47378749994095,256.97343879996333,None,,,,,,,,,,,,,,,,,,,,,,,,,,,,,,,,,,,,,,,,,,11015,001,2024_Jan_04_1129,nback,2021.2.3,59.33013902267368,
2-back,instructions\back-2.png,conditions\2back-p.xlsx,instructions\2-BACK.png,"(25, 15)",practice,2,4,stim\gray.png,stim\gray.png,stim\gray.png,stim\yellow.png,up,0,0,0,0,0,2,2,2,0,12,12,12,,,,,,,,,,,,,,,,,,,,,,,,,,,258.47489770001266,259.47636979992967,258.47489770001266,259.47636979992967,258.47489770001266,259.47636979992967,258.47489770001266,259.47636979992967,up,1,0.3192933000391349,258.47489770001266,None,258.47489770001266,None,258.47489770001266,258.9752978000324,258.47489770001266,258.9752978000324,258.47489770001266,258.9752978000324,258.47489770001266,258.9752978000324,258.47489770001266,None,,,,,,,,,,,,,,,,,,,,,,,,,,,,,,,,,,,,,,,,,,11015,001,2024_Jan_04_1129,nback,2021.2.3,59.33013902267368,
2-back,instructions\back-2.png,conditions\2back-p.xlsx,instructions\2-BACK.png,"(25, 15)",practice,2,3,stim\gray.png,stim\gray.png,stim\yellow.png,stim\gray.png,left,0,0,0,0,0,2,2,2,0,13,13,13,,,,,,,,,,,,,,,,,,,,,,,,,,,259.97764830000233,260.9783689000178,259.97764830000233,260.9783689000178,259.97764830000233,260.9783689000178,259.97764830000233,260.9783689000178,down,0,1.3130005999701098,259.97764830000233,None,259.97764830000233,None,259.97764830000233,260.47890250000637,259.97764830000233,260.47890250000637,259.97764830000233,260.47890250000637,259.97764830000233,260.47890250000637,259.97764830000233,None,,,,,,,,,,,,,,,,,,,,,,,,,,,,,,,,,,,,,,,,,,11015,001,2024_Jan_04_1129,nback,2021.2.3,59.33013902267368,
2-back,instructions\back-2.png,conditions\2back-p.xlsx,instructions\2-BACK.png,"(25, 15)",practice,2,1,stim\yellow.png,stim\gray.png,stim\gray.png,stim\gray.png,down,0,0,0,0,0,2,2,2,0,14,14,14,,,,,,,,,,,,,,,,,,,,,,,,,,,261.46251690003555,262.4639867999358,261.46251690003555,262.4639867999358,261.46251690003555,262.4639867999358,261.46251690003555,262.4639867999358,right,0,1.043753799982369,261.46251690003555,None,261.46251690003555,None,261.46251690003555,261.9633268000325,261.46251690003555,261.9633268000325,261.46251690003555,261.9633268000325,261.46251690003555,261.9633268000325,261.46251690003555,None,,,,,,,,,,,,,,,,,,,,,,,,,,,,,,,,,,,,,,,,,,11015,001,2024_Jan_04_1129,nback,2021.2.3,59.33013902267368,
2-back,instructions\back-2.png,conditions\2back-p.xlsx,instructions\2-BACK.png,"(25, 15)",practice,2,2,stim\gray.png,stim\yellow.png,stim\gray.png,stim\gray.png,right,0,0,0,0,0,2,2,2,0,15,15,15,,,,,,,,,,,,,,,,,,,,,,,,,,,262.96484409994446,263.96742500003893,262.96484409994446,263.96742500003893,262.96484409994446,263.96742500003893,262.96484409994446,263.96742500003893,up,0,1.0774195999838412,262.96484409994446,None,262.96484409994446,None,262.96484409994446,263.4661173999775,262.96484409994446,263.4661173999775,262.96484409994446,263.4661173999775,262.96484409994446,263.4661173999775,262.96484409994446,None,,,,,,,,,,,,,,,,,,,,,,,,,,,,,,,,,,,,,,,,,,11015,001,2024_Jan_04_1129,nback,2021.2.3,59.33013902267368,
2-back,instructions\back-2.png,conditions\2back-p.xlsx,instructions\2-BACK.png,"(25, 15)",practice,2,3,stim\gray.png,stim\gray.png,stim\yellow.png,stim\gray.png,up,0,0,0,0,0,2,2,2,0,16,16,16,,,,,,,,,,,,,,,,,,,,,,,,,,,264.4669324000133,265.47001809999347,264.4669324000133,265.47001809999347,264.4669324000133,265.47001809999347,264.4669324000133,265.47001809999347,left,0,0.9276574000250548,264.4669324000133,None,264.4669324000133,None,264.4669324000133,264.96826839994173,264.4669324000133,264.96826839994173,264.4669324000133,264.96826839994173,264.4669324000133,264.96826839994173,264.4669324000133,None,,,,,,,,,,,,,,,,,,,,,,,,,,,,,,,,,,,,,,,,,,11015,001,2024_Jan_04_1129,nback,2021.2.3,59.33013902267368,
2-back,instructions\back-2.png,conditions\2back-p.xlsx,instructions\2-BACK.png,"(25, 15)",practice,2,1,stim\yellow.png,stim\gray.png,stim\gray.png,stim\gray.png,left,0,0,0,0,0,2,2,2,0,17,17,17,,,,,,,,,,,,,,,,,,,,,,,,,,,265.9692568000173,266.9706651000306,265.9692568000173,266.9706651000306,265.9692568000173,266.9706651000306,265.9692568000173,266.9706651000306,right,0,1.3769190999446437,265.9692568000173,None,265.9692568000173,None,265.9692568000173,266.4700375000248,265.9692568000173,266.4700375000248,265.9692568000173,266.4700375000248,265.9692568000173,266.4700375000248,265.9692568000173,None,,,,,,,,,,,,,,,,,,,,,,,,,,,,,,,,,,,,,,,,,,11015,001,2024_Jan_04_1129,nback,2021.2.3,59.33013902267368,
2-back,instructions\back-2.png,conditions\2back-p.xlsx,instructions\2-BACK.png,"(25, 15)",practice,2,4,stim\gray.png,stim\gray.png,stim\gray.png,stim\yellow.png,right,0,0,0,0,0,2,2,2,0,18,18,18,,,,,,,,,,,,,,,,,,,,,,,,,,,267.471409699996,268.4739641000051,267.471409699996,268.4739641000051,267.471409699996,268.4739641000051,267.471409699996,268.4739641000051,None,0,,267.471409699996,None,267.471409699996,None,267.471409699996,267.9729954999639,267.471409699996,267.9729954999639,267.471409699996,267.9729954999639,267.471409699996,267.9729954999639,267.471409699996,None,,,,,,,,,,,,,,,,,,,,,,,,,,,,,,,,,,,,,,,,,,11015,001,2024_Jan_04_1129,nback,2021.2.3,59.33013902267368,
2-back,instructions\back-2.png,conditions\2back-p.xlsx,instructions\2-BACK.png,"(25, 15)",practice,2,2,stim\gray.png,stim\yellow.png,stim\gray.png,stim\gray.png,up,0,0,0,0,0,2,2,2,0,19,19,19,,,,,,,,,,,,,,,,,,,,,,,,,,,268.9736436000094,269.97592280001845,268.9736436000094,269.97592280001845,268.9736436000094,269.97592280001845,268.9736436000094,269.97592280001845,up,1,0.2132211000425741,268.9736436000094,None,268.9736436000094,None,268.9736436000094,269.47518880001735,268.9736436000094,269.47518880001735,268.9736436000094,269.47518880001735,268.9736436000094,269.47518880001735,268.9736436000094,None,,,,,,,,,,,,,,,,,,,,,,,,,,,,,,,,,,,,,,,,,,11015,001,2024_Jan_04_1129,nback,2021.2.3,59.33013902267368,
2-back,instructions\back-2.png,conditions\2back-p.xlsx,instructions\2-BACK.png,"(25, 15)",,,,,,,,,0,0,0,0,0,2,2,2,,,,,,,,,,,,,,,,,,,,,,,,,,,,,,,,,,,,,,,,,,,,,,,,,,,,,,,,,,,,,,,,,,,,,,,,,,,,,,,,,,,,,,,,,,,,,,,,,11015,001,2024_Jan_04_1129,nback,2021.2.3,59.33013902267368,
,,,,,,,,,,,,,0,0,0,0,,,,,,,,,,,,,,,,,,,,,,,,,,,,,,,,,,,,,,,,,,,,,,,,,,,,,,,,,,,,270.4779186999658,None,s,24.14034389995504,270.4779186999658,None,,,,,,,,,,,,,,,,,,,,,,,,,,,,,,,,,,,,11015,001,2024_Jan_04_1129,nback,2021.2.3,59.33013902267368,
0-back,instructions\back-0.png,conditions\0back-p.xlsx,instructions\0-BACK.png,"(15, 8)",practice,0,1,stim\yellow.png,stim\gray.png,stim\gray.png,stim\gray.png,up,1,0,1,0,0,0,0,0,0,0,0,0,,,,,,,,,,,,,,,,,294.7618121999549,None,space,2.912445900030434,294.7618121999549,None,297.8163868000265,302.32407760003116,302.29123309999704,None,302.72635849996004,303.72502370004077,302.72635849996004,303.72502370004077,302.72635849996004,303.72502370004077,302.72635849996004,303.72502370004077,up,1,0.5558922999771312,302.72635849996004,None,302.72635849996004,None,302.72635849996004,303.2412656999659,302.72635849996004,303.2412656999659,302.72635849996004,303.2412656999659,302.72635849996004,303.2412656999659,302.72635849996004,None,,,,,,,,,,,,,,,,,,,,,,,,,,,,,,,,,,,,,,,,,,11015,001,2024_Jan_04_1129,nback,2021.2.3,59.33013902267368,
0-back,instructions\back-0.png,conditions\0back-p.xlsx,instructions\0-BACK.png,"(15, 8)",practice,0,2,stim\gray.png,stim\yellow.png,stim\gray.png,stim\gray.png,left,1,0,1,0,0,0,0,0,0,1,1,1,,,,,,,,,,,,,,,,,,,,,,,,,,,304.20965410000645,305.21183799998835,304.20965410000645,305.21183799998835,304.20965410000645,305.21183799998835,304.20965410000645,305.21183799998835,left,1,0.29666790005285293,304.20965410000645,None,304.20965410000645,None,304.20965410000645,304.7106798000168,304.20965410000645,304.7106798000168,304.20965410000645,304.7106798000168,304.20965410000645,304.7106798000168,304.20965410000645,None,,,,,,,,,,,,,,,,,,,,,,,,,,,,,,,,,,,,,,,,,,11015,001,2024_Jan_04_1129,nback,2021.2.3,59.33013902267368,
0-back,instructions\back-0.png,conditions\0back-p.xlsx,instructions\0-BACK.png,"(15, 8)",practice,0,3,stim\gray.png,stim\gray.png,stim\yellow.png,stim\gray.png,right,1,0,1,0,0,0,0,0,0,2,2,2,,,,,,,,,,,,,,,,,,,,,,,,,,,305.7114258999936,306.71294739993755,305.7114258999936,306.71294739993755,305.7114258999936,306.71294739993755,305.7114258999936,306.71294739993755,right,1,0.3868211000226438,305.7114258999936,None,305.7114258999936,None,305.7114258999936,306.2122465999564,305.7114258999936,306.2122465999564,305.7114258999936,306.2122465999564,305.7114258999936,306.2122465999564,305.7114258999936,None,,,,,,,,,,,,,,,,,,,,,,,,,,,,,,,,,,,,,,,,,,11015,001,2024_Jan_04_1129,nback,2021.2.3,59.33013902267368,
0-back,instructions\back-0.png,conditions\0back-p.xlsx,instructions\0-BACK.png,"(15, 8)",practice,0,4,stim\gray.png,stim\gray.png,stim\gray.png,stim\yellow.png,down,1,0,1,0,0,0,0,0,0,3,3,3,,,,,,,,,,,,,,,,,,,,,,,,,,,307.213566099992,308.2160196999321,307.213566099992,308.2160196999321,307.213566099992,308.2160196999321,307.213566099992,308.2160196999321,down,1,0.2286278000101447,307.213566099992,None,307.213566099992,None,307.213566099992,307.71525729994755,307.213566099992,307.71525729994755,307.213566099992,307.71525729994755,307.213566099992,307.71525729994755,307.213566099992,None,,,,,,,,,,,,,,,,,,,,,,,,,,,,,,,,,,,,,,,,,,11015,001,2024_Jan_04_1129,nback,2021.2.3,59.33013902267368,
0-back,instructions\back-0.png,conditions\0back-p.xlsx,instructions\0-BACK.png,"(15, 8)",practice,0,2,stim\gray.png,stim\yellow.png,stim\gray.png,stim\gray.png,left,1,0,1,0,0,0,0,0,0,4,4,4,,,,,,,,,,,,,,,,,,,,,,,,,,,308.71597809996456,309.7180557999527,308.71597809996456,309.7180557999527,308.71597809996456,309.7180557999527,308.71597809996456,309.7180557999527,left,1,0.27052830008324236,308.71597809996456,None,308.71597809996456,None,308.71597809996456,309.21664540003985,308.71597809996456,309.21664540003985,308.71597809996456,309.21664540003985,308.71597809996456,309.21664540003985,308.71597809996456,None,,,,,,,,,,,,,,,,,,,,,,,,,,,,,,,,,,,,,,,,,,11015,001,2024_Jan_04_1129,nback,2021.2.3,59.33013902267368,
0-back,instructions\back-0.png,conditions\0back-p.xlsx,instructions\0-BACK.png,"(15, 8)",practice,0,1,stim\yellow.png,stim\gray.png,stim\gray.png,stim\gray.png,up,1,0,1,0,0,0,0,0,0,5,5,5,,,,,,,,,,,,,,,,,,,,,,,,,,,310.2183015999617,311.2209715000354,310.2183015999617,311.2209715000354,310.2183015999617,311.2209715000354,310.2183015999617,311.2209715000354,up,1,0.28025020007044077,310.2183015999617,None,310.2183015999617,None,310.2183015999617,310.7200512000127,310.2183015999617,310.7200512000127,310.2183015999617,310.7200512000127,310.2183015999617,310.7200512000127,310.2183015999617,None,,,,,,,,,,,,,,,,,,,,,,,,,,,,,,,,,,,,,,,,,,11015,001,2024_Jan_04_1129,nback,2021.2.3,59.33013902267368,
0-back,instructions\back-0.png,conditions\0back-p.xlsx,instructions\0-BACK.png,"(15, 8)",practice,0,4,stim\gray.png,stim\gray.png,stim\gray.png,stim\yellow.png,down,1,0,1,0,0,0,0,0,0,6,6,6,,,,,,,,,,,,,,,,,,,,,,,,,,,311.72036869998556,312.72263590001967,311.72036869998556,312.72263590001967,311.72036869998556,312.72263590001967,311.72036869998556,312.72263590001967,down,1,0.2660611999453977,311.72036869998556,None,311.72036869998556,None,311.72036869998556,312.2218311999459,311.72036869998556,312.2218311999459,311.72036869998556,312.2218311999459,311.72036869998556,312.2218311999459,311.72036869998556,None,,,,,,,,,,,,,,,,,,,,,,,,,,,,,,,,,,,,,,,,,,11015,001,2024_Jan_04_1129,nback,2021.2.3,59.33013902267368,
0-back,instructions\back-0.png,conditions\0back-p.xlsx,instructions\0-BACK.png,"(15, 8)",practice,0,3,stim\gray.png,stim\gray.png,stim\yellow.png,stim\gray.png,right,1,0,1,0,0,0,0,0,0,7,7,7,,,,,,,,,,,,,,,,,,,,,,,,,,,313.2057794999564,314.2073890999891,313.2057794999564,314.2073890999891,313.2057794999564,314.2073890999891,313.2057794999564,314.2073890999891,right,1,0.260791499982588,313.2057794999564,None,313.2057794999564,None,313.2057794999564,313.7067539000418,313.2057794999564,313.7067539000418,313.2057794999564,313.7067539000418,313.2057794999564,313.7067539000418,313.2057794999564,None,,,,,,,,,,,,,,,,,,,,,,,,,,,,,,,,,,,,,,,,,,11015,001,2024_Jan_04_1129,nback,2021.2.3,59.33013902267368,
0-back,instructions\back-0.png,conditions\0back-p.xlsx,instructions\0-BACK.png,"(15, 8)",practice,0,3,stim\gray.png,stim\gray.png,stim\yellow.png,stim\gray.png,right,1,0,1,0,0,0,0,0,0,8,8,8,,,,,,,,,,,,,,,,,,,,,,,,,,,314.7079776999308,315.70991410000715,314.7079776999308,315.70991410000715,314.7079776999308,315.70991410000715,314.7079776999308,315.70991410000715,right,1,0.342367299948819,314.7079776999308,None,314.7079776999308,None,314.7079776999308,315.2089587999508,314.7079776999308,315.2089587999508,314.7079776999308,315.2089587999508,314.7079776999308,315.2089587999508,314.7079776999308,None,,,,,,,,,,,,,,,,,,,,,,,,,,,,,,,,,,,,,,,,,,11015,001,2024_Jan_04_1129,nback,2021.2.3,59.33013902267368,
0-back,instructions\back-0.png,conditions\0back-p.xlsx,instructions\0-BACK.png,"(15, 8)",practice,0,4,stim\gray.png,stim\gray.png,stim\gray.png,stim\yellow.png,down,1,0,1,0,0,0,0,0,0,9,9,9,,,,,,,,,,,,,,,,,,,,,,,,,,,316.2101015000371,317.2122059999965,316.2101015000371,317.2122059999965,316.2101015000371,317.2122059999965,316.2101015000371,317.2122059999965,down,1,0.4083468000171706,316.2101015000371,None,316.2101015000371,None,316.2101015000371,316.7114383999724,316.2101015000371,316.7114383999724,316.2101015000371,316.7114383999724,316.2101015000371,316.7114383999724,316.2101015000371,None,,,,,,,,,,,,,,,,,,,,,,,,,,,,,,,,,,,,,,,,,,11015,001,2024_Jan_04_1129,nback,2021.2.3,59.33013902267368,
0-back,instructions\back-0.png,conditions\0back-p.xlsx,instructions\0-BACK.png,"(15, 8)",practice,0,1,stim\yellow.png,stim\gray.png,stim\gray.png,stim\gray.png,up,1,0,1,0,0,0,0,0,0,10,10,10,,,,,,,,,,,,,,,,,,,,,,,,,,,317.71266129997093,318.7142145000398,317.71266129997093,318.7142145000398,317.71266129997093,318.7142145000398,317.71266129997093,318.7142145000398,up,1,0.3700401000678539,317.71266129997093,None,317.71266129997093,None,317.71266129997093,318.2139545000391,317.71266129997093,318.2139545000391,317.71266129997093,318.2139545000391,317.71266129997093,318.2139545000391,317.71266129997093,None,,,,,,,,,,,,,,,,,,,,,,,,,,,,,,,,,,,,,,,,,,11015,001,2024_Jan_04_1129,nback,2021.2.3,59.33013902267368,
0-back,instructions\back-0.png,conditions\0back-p.xlsx,instructions\0-BACK.png,"(15, 8)",practice,0,2,stim\gray.png,stim\yellow.png,stim\gray.png,stim\gray.png,left,1,0,1,0,0,0,0,0,0,11,11,11,,,,,,,,,,,,,,,,,,,,,,,,,,,319.2150723999366,320.21631599997636,319.2150723999366,320.21631599997636,319.2150723999366,320.21631599997636,319.2150723999366,320.21631599997636,left,1,0.2915531999897212,319.2150723999366,None,319.2150723999366,None,319.2150723999366,319.71618490002584,319.2150723999366,319.71618490002584,319.2150723999366,319.71618490002584,319.2150723999366,319.71618490002584,319.2150723999366,None,,,,,,,,,,,,,,,,,,,,,,,,,,,,,,,,,,,,,,,,,,11015,001,2024_Jan_04_1129,nback,2021.2.3,59.33013902267368,
0-back,instructions\back-0.png,conditions\0back-p.xlsx,instructions\0-BACK.png,"(15, 8)",practice,0,4,stim\gray.png,stim\gray.png,stim\gray.png,stim\yellow.png,down,1,0,1,0,0,0,0,0,0,12,12,12,,,,,,,,,,,,,,,,,,,,,,,,,,,320.7171783000231,321.719335700036,320.7171783000231,321.719335700036,320.7171783000231,321.719335700036,320.7171783000231,321.719335700036,down,1,0.24622410000301898,320.7171783000231,None,320.7171783000231,None,320.7171783000231,321.2178738999646,320.7171783000231,321.2178738999646,320.7171783000231,321.2178738999646,320.7171783000231,321.2178738999646,320.7171783000231,None,,,,,,,,,,,,,,,,,,,,,,,,,,,,,,,,,,,,,,,,,,11015,001,2024_Jan_04_1129,nback,2021.2.3,59.33013902267368,
0-back,instructions\back-0.png,conditions\0back-p.xlsx,instructions\0-BACK.png,"(15, 8)",practice,0,3,stim\gray.png,stim\gray.png,stim\yellow.png,stim\gray.png,right,1,0,1,0,0,0,0,0,0,13,13,13,,,,,,,,,,,,,,,,,,,,,,,,,,,322.2206857999554,323.22074769996107,322.2206857999554,323.22074769996107,322.2206857999554,323.22074769996107,322.2206857999554,323.22074769996107,right,1,0.3183036999544129,322.2206857999554,None,322.2206857999554,None,322.2206857999554,322.7201443000231,322.2206857999554,322.7201443000231,322.2206857999554,322.7201443000231,322.2206857999554,322.7201443000231,322.2206857999554,None,,,,,,,,,,,,,,,,,,,,,,,,,,,,,,,,,,,,,,,,,,11015,001,2024_Jan_04_1129,nback,2021.2.3,59.33013902267368,
0-back,instructions\back-0.png,conditions\0back-p.xlsx,instructions\0-BACK.png,"(15, 8)",practice,0,1,stim\yellow.png,stim\gray.png,stim\gray.png,stim\gray.png,up,1,0,1,0,0,0,0,0,0,14,14,14,,,,,,,,,,,,,,,,,,,,,,,,,,,323.70516899996437,324.7068068999797,323.70516899996437,324.7068068999797,323.70516899996437,324.7068068999797,323.70516899996437,324.7068068999797,up,1,0.27347600006032735,323.70516899996437,None,323.70516899996437,None,323.70516899996437,324.20631109992974,323.70516899996437,324.20631109992974,323.70516899996437,324.20631109992974,323.70516899996437,324.20631109992974,323.70516899996437,None,,,,,,,,,,,,,,,,,,,,,,,,,,,,,,,,,,,,,,,,,,11015,001,2024_Jan_04_1129,nback,2021.2.3,59.33013902267368,
0-back,instructions\back-0.png,conditions\0back-p.xlsx,instructions\0-BACK.png,"(15, 8)",practice,0,2,stim\gray.png,stim\yellow.png,stim\gray.png,stim\gray.png,left,1,0,1,0,0,0,0,0,0,15,15,15,,,,,,,,,,,,,,,,,,,,,,,,,,,325.2068624999374,326.20933149999473,325.2068624999374,326.20933149999473,325.2068624999374,326.20933149999473,325.2068624999374,326.20933149999473,left,1,0.23561639990657568,325.2068624999374,None,325.2068624999374,None,325.2068624999374,325.7080791000044,325.2068624999374,325.7080791000044,325.2068624999374,325.7080791000044,325.2068624999374,325.7080791000044,325.2068624999374,None,,,,,,,,,,,,,,,,,,,,,,,,,,,,,,,,,,,,,,,,,,11015,001,2024_Jan_04_1129,nback,2021.2.3,59.33013902267368,
0-back,instructions\back-0.png,conditions\0back-p.xlsx,instructions\0-BACK.png,"(15, 8)",practice,0,3,stim\gray.png,stim\gray.png,stim\yellow.png,stim\gray.png,right,1,0,1,0,0,0,0,0,0,16,16,16,,,,,,,,,,,,,,,,,,,,,,,,,,,326.7098229000112,327.7108986999374,326.7098229000112,327.7108986999374,326.7098229000112,327.7108986999374,326.7098229000112,327.7108986999374,right,1,0.364999599987641,326.7098229000112,None,326.7098229000112,None,326.7098229000112,327.21112190000713,326.7098229000112,327.21112190000713,326.7098229000112,327.21112190000713,326.7098229000112,327.21112190000713,326.7098229000112,None,,,,,,,,,,,,,,,,,,,,,,,,,,,,,,,,,,,,,,,,,,11015,001,2024_Jan_04_1129,nback,2021.2.3,59.33013902267368,
0-back,instructions\back-0.png,conditions\0back-p.xlsx,instructions\0-BACK.png,"(15, 8)",practice,0,1,stim\yellow.png,stim\gray.png,stim\gray.png,stim\gray.png,up,1,0,1,0,0,0,0,0,0,17,17,17,,,,,,,,,,,,,,,,,,,,,,,,,,,328.2115017999895,329.21344990003854,328.2115017999895,329.21344990003854,328.2115017999895,329.21344990003854,328.2115017999895,329.21344990003854,up,1,0.3592920999508351,328.2115017999895,None,328.2115017999895,None,328.2115017999895,328.71229489997495,328.2115017999895,328.71229489997495,328.2115017999895,328.71229489997495,328.2115017999895,328.71229489997495,328.2115017999895,None,,,,,,,,,,,,,,,,,,,,,,,,,,,,,,,,,,,,,,,,,,11015,001,2024_Jan_04_1129,nback,2021.2.3,59.33013902267368,
0-back,instructions\back-0.png,conditions\0back-p.xlsx,instructions\0-BACK.png,"(15, 8)",practice,0,4,stim\gray.png,stim\gray.png,stim\gray.png,stim\yellow.png,down,1,0,1,0,0,0,0,0,0,18,18,18,,,,,,,,,,,,,,,,,,,,,,,,,,,329.7137464999687,330.7152478999924,329.7137464999687,330.7152478999924,329.7137464999687,330.7152478999924,329.7137464999687,330.7152478999924,down,1,0.24078460002783686,329.7137464999687,None,329.7137464999687,None,329.7137464999687,330.2143916999921,329.7137464999687,330.2143916999921,329.7137464999687,330.2143916999921,329.7137464999687,330.2143916999921,329.7137464999687,None,,,,,,,,,,,,,,,,,,,,,,,,,,,,,,,,,,,,,,,,,,11015,001,2024_Jan_04_1129,nback,2021.2.3,59.33013902267368,
0-back,instructions\back-0.png,conditions\0back-p.xlsx,instructions\0-BACK.png,"(15, 8)",practice,0,2,stim\gray.png,stim\yellow.png,stim\gray.png,stim\gray.png,left,1,0,1,0,0,0,0,0,0,19,19,19,,,,,,,,,,,,,,,,,,,,,,,,,,,331.2166081999894,332.2174320999766,331.2166081999894,332.2174320999766,331.2166081999894,332.2174320999766,331.2166081999894,332.2174320999766,left,1,0.2661834000609815,331.2166081999894,None,331.2166081999894,None,331.2166081999894,331.71723369997926,331.2166081999894,331.71723369997926,331.2166081999894,331.71723369997926,331.2166081999894,331.71723369997926,331.2166081999894,None,,,,,,,,,,,,,,,,,,,,,,,,,,,,,,,,,,,,,,,,,,11015,001,2024_Jan_04_1129,nback,2021.2.3,59.33013902267368,
0-back,instructions\back-0.png,conditions\0back-p.xlsx,instructions\0-BACK.png,"(15, 8)",,,,,,,,,1,0,1,0,0,0,0,0,,,,,,,,,,,,,,,,,,,,,,,,,,,,,,,,,,,,,,,,,,,,,,,,,,,,,,,,,,,,,,,,,,,,,,,,,,,,,,,,,,,,,,,,,,,,,,,,,11015,001,2024_Jan_04_1129,nback,2021.2.3,59.33013902267368,
1-back,instructions\back-1.png,conditions\1back-p.xlsx,instructions\1-BACK.png,"(25, 15)",practice,1,1,stim\yellow.png,stim\gray.png,stim\gray.png,stim\gray.png,None,1,0,1,0,0,1,1,1,0,0,0,0,,,,,,,,,,,,,,,,,332.83533819997683,None,space,3.062908000079915,332.83533819997683,None,336.0228485999396,340.52970870002173,340.51521270000376,None,340.9485727000283,341.94904610002413,340.9485727000283,341.94904610002413,340.9485727000283,341.94904610002413,340.9485727000283,341.94904610002413,None,1,,340.9485727000283,None,340.9485727000283,None,340.9485727000283,341.4484656000277,340.9485727000283,341.4484656000277,340.9485727000283,341.4484656000277,340.9485727000283,341.4484656000277,340.9485727000283,None,,,,,,,,,,,,,,,,,,,,,,,,,,,,,,,,,,,,,,,,,,11015,001,2024_Jan_04_1129,nback,2021.2.3,59.33013902267368,
1-back,instructions\back-1.png,conditions\1back-p.xlsx,instructions\1-BACK.png,"(25, 15)",practice,1,2,stim\gray.png,stim\yellow.png,stim\gray.png,stim\gray.png,up,1,0,1,0,0,1,1,1,0,1,1,1,,,,,,,,,,,,,,,,,,,,,,,,,,,342.43262959993444,343.4347205000231,342.43262959993444,343.4347205000231,342.43262959993444,343.4347205000231,342.43262959993444,343.4347205000231,up,1,0.4505651999497786,342.43262959993444,None,342.43262959993444,None,342.43262959993444,342.93343299999833,342.43262959993444,342.93343299999833,342.43262959993444,342.93343299999833,342.43262959993444,342.93343299999833,342.43262959993444,None,,,,,,,,,,,,,,,,,,,,,,,,,,,,,,,,,,,,,,,,,,11015,001,2024_Jan_04_1129,nback,2021.2.3,59.33013902267368,
1-back,instructions\back-1.png,conditions\1back-p.xlsx,instructions\1-BACK.png,"(25, 15)",practice,1,3,stim\gray.png,stim\gray.png,stim\yellow.png,stim\gray.png,left,1,0,1,0,0,1,1,1,0,2,2,2,,,,,,,,,,,,,,,,,,,,,,,,,,,343.93475300003774,344.9372675999766,343.93475300003774,344.9372675999766,343.93475300003774,344.9372675999766,343.93475300003774,344.9372675999766,left,1,0.29966729995794594,343.93475300003774,None,343.93475300003774,None,343.93475300003774,344.43536380003206,343.93475300003774,344.43536380003206,343.93475300003774,344.43536380003206,343.93475300003774,344.43536380003206,343.93475300003774,None,,,,,,,,,,,,,,,,,,,,,,,,,,,,,,,,,,,,,,,,,,11015,001,2024_Jan_04_1129,nback,2021.2.3,59.33013902267368,
1-back,instructions\back-1.png,conditions\1back-p.xlsx,instructions\1-BACK.png,"(25, 15)",practice,1,4,stim\gray.png,stim\gray.png,stim\gray.png,stim\yellow.png,right,1,0,1,0,0,1,1,1,0,3,3,3,,,,,,,,,,,,,,,,,,,,,,,,,,,345.43694389995653,346.43936560000293,345.43694389995653,346.43936560000293,345.43694389995653,346.43936560000293,345.43694389995653,346.43936560000293,right,1,0.22183739999309182,345.43694389995653,None,345.43694389995653,None,345.43694389995653,345.93776250001974,345.43694389995653,345.93776250001974,345.43694389995653,345.93776250001974,345.43694389995653,345.93776250001974,345.43694389995653,None,,,,,,,,,,,,,,,,,,,,,,,,,,,,,,,,,,,,,,,,,,11015,001,2024_Jan_04_1129,nback,2021.2.3,59.33013902267368,
1-back,instructions\back-1.png,conditions\1back-p.xlsx,instructions\1-BACK.png,"(25, 15)",practice,1,2,stim\gray.png,stim\yellow.png,stim\gray.png,stim\gray.png,down,1,0,1,0,0,1,1,1,0,4,4,4,,,,,,,,,,,,,,,,,,,,,,,,,,,346.939713699976,347.9406758999685,346.939713699976,347.9406758999685,346.939713699976,347.9406758999685,346.939713699976,347.9406758999685,down,1,0.19886320002842695,346.939713699976,None,346.939713699976,None,346.939713699976,347.4412335000234,346.939713699976,347.4412335000234,346.939713699976,347.4412335000234,346.939713699976,347.4412335000234,346.939713699976,None,,,,,,,,,,,,,,,,,,,,,,,,,,,,,,,,,,,,,,,,,,11015,001,2024_Jan_04_1129,nback,2021.2.3,59.33013902267368,
1-back,instructions\back-1.png,conditions\1back-p.xlsx,instructions\1-BACK.png,"(25, 15)",practice,1,1,stim\yellow.png,stim\gray.png,stim\gray.png,stim\gray.png,left,1,0,1,0,0,1,1,1,0,5,5,5,,,,,,,,,,,,,,,,,,,,,,,,,,,348.4421059000306,349.44364179996774,348.4421059000306,349.44364179996774,348.4421059000306,349.44364179996774,348.4421059000306,349.44364179996774,left,1,0.10422099998686463,348.4421059000306,None,348.4421059000306,None,348.4421059000306,348.9421230999287,348.4421059000306,348.9421230999287,348.4421059000306,348.9421230999287,348.4421059000306,348.9421230999287,348.4421059000306,None,,,,,,,,,,,,,,,,,,,,,,,,,,,,,,,,,,,,,,,,,,11015,001,2024_Jan_04_1129,nback,2021.2.3,59.33013902267368,
1-back,instructions\back-1.png,conditions\1back-p.xlsx,instructions\1-BACK.png,"(25, 15)",practice,1,4,stim\gray.png,stim\gray.png,stim\gray.png,stim\yellow.png,up,1,0,1,0,0,1,1,1,0,6,6,6,,,,,,,,,,,,,,,,,,,,,,,,,,,349.9275321000023,350.928378899931,349.9275321000023,350.928378899931,349.9275321000023,350.928378899931,349.9275321000023,350.928378899931,up,1,0.09895160002633929,349.9275321000023,None,349.9275321000023,None,349.9275321000023,350.4283415999962,349.9275321000023,350.4283415999962,349.9275321000023,350.4283415999962,349.9275321000023,350.4283415999962,349.9275321000023,None,,,,,,,,,,,,,,,,,,,,,,,,,,,,,,,,,,,,,,,,,,11015,001,2024_Jan_04_1129,nback,2021.2.3,59.33013902267368,
1-back,instructions\back-1.png,conditions\1back-p.xlsx,instructions\1-BACK.png,"(25, 15)",practice,1,3,stim\gray.png,stim\gray.png,stim\yellow.png,stim\gray.png,down,1,0,1,0,0,1,1,1,0,7,7,7,,,,,,,,,,,,,,,,,,,,,,,,,,,351.42919089994393,352.4311942999484,351.42919089994393,352.4311942999484,351.42919089994393,352.4311942999484,351.42919089994393,352.4311942999484,None,0,,351.42919089994393,None,351.42919089994393,None,351.42919089994393,351.930076599936,351.42919089994393,351.930076599936,351.42919089994393,351.930076599936,351.42919089994393,351.930076599936,351.42919089994393,None,,,,,,,,,,,,,,,,,,,,,,,,,,,,,,,,,,,,,,,,,,11015,001,2024_Jan_04_1129,nback,2021.2.3,59.33013902267368,
1-back,instructions\back-1.png,conditions\1back-p.xlsx,instructions\1-BACK.png,"(25, 15)",practice,1,3,stim\gray.png,stim\gray.png,stim\yellow.png,stim\gray.png,right,1,0,1,0,0,1,1,1,0,8,8,8,,,,,,,,,,,,,,,,,,,,,,,,,,,352.9315024999669,353.9334554999368,352.9315024999669,353.9334554999368,352.9315024999669,353.9334554999368,352.9315024999669,353.9334554999368,right,1,0.02287930005695671,352.9315024999669,None,352.9315024999669,None,352.9315024999669,353.4328627999639,352.9315024999669,353.4328627999639,352.9315024999669,353.4328627999639,352.9315024999669,353.4328627999639,352.9315024999669,None,,,,,,,,,,,,,,,,,,,,,,,,,,,,,,,,,,,,,,,,,,11015,001,2024_Jan_04_1129,nback,2021.2.3,59.33013902267368,
1-back,instructions\back-1.png,conditions\1back-p.xlsx,instructions\1-BACK.png,"(25, 15)",practice,1,4,stim\gray.png,stim\gray.png,stim\gray.png,stim\yellow.png,right,1,0,1,0,0,1,1,1,0,9,9,9,,,,,,,,,,,,,,,,,,,,,,,,,,,354.4335901000304,355.4357466000365,354.4335901000304,355.4357466000365,354.4335901000304,355.4357466000365,354.4335901000304,355.4357466000365,down,0,1.4248190999496728,354.4335901000304,None,354.4335901000304,None,354.4335901000304,354.9354454999557,354.4335901000304,354.9354454999557,354.4335901000304,354.9354454999557,354.4335901000304,354.9354454999557,354.4335901000304,None,,,,,,,,,,,,,,,,,,,,,,,,,,,,,,,,,,,,,,,,,,11015,001,2024_Jan_04_1129,nback,2021.2.3,59.33013902267368,
1-back,instructions\back-1.png,conditions\1back-p.xlsx,instructions\1-BACK.png,"(25, 15)",practice,1,1,stim\yellow.png,stim\gray.png,stim\gray.png,stim\gray.png,down,1,0,1,0,0,1,1,1,0,10,10,10,,,,,,,,,,,,,,,,,,,,,,,,,,,355.93623600003775,356.9374581000302,355.93623600003775,356.9374581000302,355.93623600003775,356.9374581000302,355.93623600003775,356.9374581000302,up,0,1.2260439000092447,355.93623600003775,None,355.93623600003775,None,355.93623600003775,356.43693429999985,355.93623600003775,356.43693429999985,355.93623600003775,356.43693429999985,355.93623600003775,356.43693429999985,355.93623600003775,None,,,,,,,,,,,,,,,,,,,,,,,,,,,,,,,,,,,,,,,,,,11015,001,2024_Jan_04_1129,nback,2021.2.3,59.33013902267368,
1-back,instructions\back-1.png,conditions\1back-p.xlsx,instructions\1-BACK.png,"(25, 15)",practice,1,2,stim\gray.png,stim\yellow.png,stim\gray.png,stim\gray.png,up,1,0,1,0,0,1,1,1,0,11,11,11,,,,,,,,,,,,,,,,,,,,,,,,,,,357.43811430002097,358.4397109999554,357.43811430002097,358.4397109999554,357.43811430002097,358.4397109999554,357.43811430002097,358.4397109999554,left,0,1.2441420999821275,357.43811430002097,None,357.43811430002097,None,357.43811430002097,357.9396293000318,357.43811430002097,357.9396293000318,357.43811430002097,357.9396293000318,357.43811430002097,357.9396293000318,357.43811430002097,None,,,,,,,,,,,,,,,,,,,,,,,,,,,,,,,,,,,,,,,,,,11015,001,2024_Jan_04_1129,nback,2021.2.3,59.33013902267368,
1-back,instructions\back-1.png,conditions\1back-p.xlsx,instructions\1-BACK.png,"(25, 15)",practice,1,4,stim\gray.png,stim\gray.png,stim\gray.png,stim\yellow.png,left,1,0,1,0,0,1,1,1,0,12,12,12,,,,,,,,,,,,,,,,,,,,,,,,,,,358.9408478999976,359.9423954000231,358.9408478999976,359.9423954000231,358.9408478999976,359.9423954000231,358.9408478999976,359.9423954000231,None,0,,358.9408478999976,None,358.9408478999976,None,358.9408478999976,359.4412798000267,358.9408478999976,359.4412798000267,358.9408478999976,359.4412798000267,358.9408478999976,359.4412798000267,358.9408478999976,None,,,,,,,,,,,,,,,,,,,,,,,,,,,,,,,,,,,,,,,,,,11015,001,2024_Jan_04_1129,nback,2021.2.3,59.33013902267368,
1-back,instructions\back-1.png,conditions\1back-p.xlsx,instructions\1-BACK.png,"(25, 15)",practice,1,3,stim\gray.png,stim\gray.png,stim\yellow.png,stim\gray.png,down,1,0,1,0,0,1,1,1,0,13,13,13,,,,,,,,,,,,,,,,,,,,,,,,,,,360.44249349995516,361.44473799993284,360.44249349995516,361.44473799993284,360.44249349995516,361.44473799993284,360.44249349995516,361.44473799993284,right,0,1.4480638999957591,360.44249349995516,None,360.44249349995516,None,360.44249349995516,360.9431728000054,360.44249349995516,360.9431728000054,360.44249349995516,360.9431728000054,360.44249349995516,360.9431728000054,360.44249349995516,None,,,,,,,,,,,,,,,,,,,,,,,,,,,,,,,,,,,,,,,,,,11015,001,2024_Jan_04_1129,nback,2021.2.3,59.33013902267368,
1-back,instructions\back-1.png,conditions\1back-p.xlsx,instructions\1-BACK.png,"(25, 15)",practice,1,1,stim\yellow.png,stim\gray.png,stim\gray.png,stim\gray.png,right,1,0,1,0,0,1,1,1,0,14,14,14,,,,,,,,,,,,,,,,,,,,,,,,,,,361.9281730999937,362.93032949999906,361.9281730999937,362.93032949999906,361.9281730999937,362.93032949999906,361.9281730999937,362.93032949999906,down,0,1.4189618000527844,361.9281730999937,None,361.9281730999937,None,361.9281730999937,362.42969799996354,361.9281730999937,362.42969799996354,361.9281730999937,362.42969799996354,361.9281730999937,362.42969799996354,361.9281730999937,None,,,,,,,,,,,,,,,,,,,,,,,,,,,,,,,,,,,,,,,,,,11015,001,2024_Jan_04_1129,nback,2021.2.3,59.33013902267368,
1-back,instructions\back-1.png,conditions\1back-p.xlsx,instructions\1-BACK.png,"(25, 15)",practice,1,2,stim\gray.png,stim\yellow.png,stim\gray.png,stim\gray.png,up,1,0,1,0,0,1,1,1,0,15,15,15,,,,,,,,,,,,,,,,,,,,,,,,,,,363.43072689999826,364.431674499996,363.43072689999826,364.431674499996,363.43072689999826,364.431674499996,363.43072689999826,364.431674499996,left,0,1.4683440999360755,363.43072689999826,None,363.43072689999826,None,363.43072689999826,363.93150720000267,363.43072689999826,363.93150720000267,363.43072689999826,363.93150720000267,363.43072689999826,363.93150720000267,363.43072689999826,None,,,,,,,,,,,,,,,,,,,,,,,,,,,,,,,,,,,,,,,,,,11015,001,2024_Jan_04_1129,nback,2021.2.3,59.33013902267368,
1-back,instructions\back-1.png,conditions\1back-p.xlsx,instructions\1-BACK.png,"(25, 15)",practice,1,3,stim\gray.png,stim\gray.png,stim\yellow.png,stim\gray.png,left,1,0,1,0,0,1,1,1,0,16,16,16,,,,,,,,,,,,,,,,,,,,,,,,,,,364.9326289999299,365.93445719999727,364.9326289999299,365.93445719999727,364.9326289999299,365.93445719999727,364.9326289999299,365.93445719999727,right,0,1.405659299925901,364.9326289999299,None,364.9326289999299,None,364.9326289999299,365.43373229994904,364.9326289999299,365.43373229994904,364.9326289999299,365.43373229994904,364.9326289999299,365.43373229994904,364.9326289999299,None,,,,,,,,,,,,,,,,,,,,,,,,,,,,,,,,,,,,,,,,,,11015,001,2024_Jan_04_1129,nback,2021.2.3,59.33013902267368,
1-back,instructions\back-1.png,conditions\1back-p.xlsx,instructions\1-BACK.png,"(25, 15)",practice,1,1,stim\yellow.png,stim\gray.png,stim\gray.png,stim\gray.png,right,1,0,1,0,0,1,1,1,0,17,17,17,,,,,,,,,,,,,,,,,,,,,,,,,,,366.434845999931,367.4364580999827,366.434845999931,367.4364580999827,366.434845999931,367.4364580999827,366.434845999931,367.4364580999827,up,0,1.4555972999660298,366.434845999931,None,366.434845999931,None,366.434845999931,366.9355711999815,366.434845999931,366.9355711999815,366.434845999931,366.9355711999815,366.434845999931,366.9355711999815,366.434845999931,None,,,,,,,,,,,,,,,,,,,,,,,,,,,,,,,,,,,,,,,,,,11015,001,2024_Jan_04_1129,nback,2021.2.3,59.33013902267368,
1-back,instructions\back-1.png,conditions\1back-p.xlsx,instructions\1-BACK.png,"(25, 15)",practice,1,4,stim\gray.png,stim\gray.png,stim\gray.png,stim\yellow.png,up,1,0,1,0,0,1,1,1,0,18,18,18,,,,,,,,,,,,,,,,,,,,,,,,,,,367.93716660002246,368.9392714999849,367.93716660002246,368.9392714999849,367.93716660002246,368.9392714999849,367.93716660002246,368.9392714999849,None,0,,367.93716660002246,None,367.93716660002246,None,367.93716660002246,368.4384177000029,367.93716660002246,368.4384177000029,367.93716660002246,368.4384177000029,367.93716660002246,368.4384177000029,367.93716660002246,None,,,,,,,,,,,,,,,,,,,,,,,,,,,,,,,,,,,,,,,,,,11015,001,2024_Jan_04_1129,nback,2021.2.3,59.33013902267368,
1-back,instructions\back-1.png,conditions\1back-p.xlsx,instructions\1-BACK.png,"(25, 15)",practice,1,2,stim\gray.png,stim\yellow.png,stim\gray.png,stim\gray.png,down,1,0,1,0,0,1,1,1,0,19,19,19,,,,,,,,,,,,,,,,,,,,,,,,,,,369.4391883999342,370.44117200002074,369.4391883999342,370.44117200002074,369.4391883999342,370.44117200002074,369.4391883999342,370.44117200002074,left,0,1.3634962999494746,369.4391883999342,None,369.4391883999342,None,369.4391883999342,369.93987270002253,369.4391883999342,369.93987270002253,369.4391883999342,369.93987270002253,369.4391883999342,369.93987270002253,369.4391883999342,None,,,,,,,,,,,,,,,,,,,,,,,,,,,,,,,,,,,,,,,,,,11015,001,2024_Jan_04_1129,nback,2021.2.3,59.33013902267368,
1-back,instructions\back-1.png,conditions\1back-p.xlsx,instructions\1-BACK.png,"(25, 15)",,,,,,,,,1,0,1,0,0,1,1,1,,,,,,,,,,,,,,,,,,,,,,,,,,,,,,,,,,,,,,,,,,,,,,,,,,,,,,,,,,,,,,,,,,,,,,,,,,,,,,,,,,,,,,,,,,,,,,,,,11015,001,2024_Jan_04_1129,nback,2021.2.3,59.33013902267368,
2-back,instructions\back-2.png,conditions\2back-p.xlsx,instructions\2-BACK.png,"(25, 15)",practice,2,1,stim\yellow.png,stim\gray.png,stim\gray.png,stim\gray.png,None,1,0,1,0,0,2,2,2,0,0,0,0,,,,,,,,,,,,,,,,,371.0582172999857,None,space,7.4723167000338435,371.0582172999857,None,378.66995360003784,383.17775469995104,383.1436539000133,None,383.5773521999363,384.5790483999299,383.5773521999363,384.5790483999299,383.5773521999363,384.5790483999299,383.5773521999363,384.5790483999299,None,1,,383.5773521999363,None,383.5773521999363,None,383.5773521999363,384.07836389995646,383.5773521999363,384.07836389995646,383.5773521999363,384.07836389995646,383.5773521999363,384.07836389995646,383.5773521999363,None,,,,,,,,,,,,,,,,,,,,,,,,,,,,,,,,,,,,,,,,,,11015,001,2024_Jan_04_1129,nback,2021.2.3,59.33013902267368,
2-back,instructions\back-2.png,conditions\2back-p.xlsx,instructions\2-BACK.png,"(25, 15)",practice,2,2,stim\gray.png,stim\yellow.png,stim\gray.png,stim\gray.png,None,1,0,1,0,0,2,2,2,0,1,1,1,,,,,,,,,,,,,,,,,,,,,,,,,,,385.06262480001897,386.06424420000985,385.06262480001897,386.06424420000985,385.06262480001897,386.06424420000985,385.06262480001897,386.06424420000985,None,1,,385.06262480001897,None,385.06262480001897,None,385.06262480001897,385.5631121000042,385.06262480001897,385.5631121000042,385.06262480001897,385.5631121000042,385.06262480001897,385.5631121000042,385.06262480001897,None,,,,,,,,,,,,,,,,,,,,,,,,,,,,,,,,,,,,,,,,,,11015,001,2024_Jan_04_1129,nback,2021.2.3,59.33013902267368,
2-back,instructions\back-2.png,conditions\2back-p.xlsx,instructions\2-BACK.png,"(25, 15)",practice,2,3,stim\gray.png,stim\gray.png,stim\yellow.png,stim\gray.png,up,1,0,1,0,0,2,2,2,0,2,2,2,,,,,,,,,,,,,,,,,,,,,,,,,,,386.5646020999411,387.5660698999418,386.5646020999411,387.5660698999418,386.5646020999411,387.5660698999418,386.5646020999411,387.5660698999418,up,1,0.25387419993057847,386.5646020999411,None,386.5646020999411,None,386.5646020999411,387.0655549999792,386.5646020999411,387.0655549999792,386.5646020999411,387.0655549999792,386.5646020999411,387.0655549999792,386.5646020999411,None,,,,,,,,,,,,,,,,,,,,,,,,,,,,,,,,,,,,,,,,,,11015,001,2024_Jan_04_1129,nback,2021.2.3,59.33013902267368,
2-back,instructions\back-2.png,conditions\2back-p.xlsx,instructions\2-BACK.png,"(25, 15)",practice,2,4,stim\gray.png,stim\gray.png,stim\gray.png,stim\yellow.png,left,1,0,1,0,0,2,2,2,0,3,3,3,,,,,,,,,,,,,,,,,,,,,,,,,,,388.0668735000072,389.0690097999759,388.0668735000072,389.0690097999759,388.0668735000072,389.0690097999759,388.0668735000072,389.0690097999759,left,1,0.23219769995193928,388.0668735000072,None,388.0668735000072,None,388.0668735000072,388.5676720000338,388.0668735000072,388.5676720000338,388.0668735000072,388.5676720000338,388.0668735000072,388.5676720000338,388.0668735000072,None,,,,,,,,,,,,,,,,,,,,,,,,,,,,,,,,,,,,,,,,,,11015,001,2024_Jan_04_1129,nback,2021.2.3,59.33013902267368,
2-back,instructions\back-2.png,conditions\2back-p.xlsx,instructions\2-BACK.png,"(25, 15)",practice,2,2,stim\gray.png,stim\yellow.png,stim\gray.png,stim\gray.png,right,1,0,1,0,0,2,2,2,0,4,4,4,,,,,,,,,,,,,,,,,,,,,,,,,,,389.56898119999096,390.5704932999797,389.56898119999096,390.5704932999797,389.56898119999096,390.5704932999797,389.56898119999096,390.5704932999797,down,0,1.2093388000503182,389.56898119999096,None,389.56898119999096,None,389.56898119999096,390.0705070999684,389.56898119999096,390.0705070999684,389.56898119999096,390.0705070999684,389.56898119999096,390.0705070999684,389.56898119999096,None,,,,,,,,,,,,,,,,,,,,,,,,,,,,,,,,,,,,,,,,,,11015,001,2024_Jan_04_1129,nback,2021.2.3,59.33013902267368,
2-back,instructions\back-2.png,conditions\2back-p.xlsx,instructions\2-BACK.png,"(25, 15)",practice,2,1,stim\yellow.png,stim\gray.png,stim\gray.png,stim\gray.png,down,1,0,1,0,0,2,2,2,0,5,5,5,,,,,,,,,,,,,,,,,,,,,,,,,,,391.0713801999809,392.0734254999552,391.0713801999809,392.0734254999552,391.0713801999809,392.0734254999552,391.0713801999809,392.0734254999552,left,0,1.0590870000887662,391.0713801999809,None,391.0713801999809,None,391.0713801999809,391.57194389996585,391.0713801999809,391.57194389996585,391.0713801999809,391.57194389996585,391.0713801999809,391.57194389996585,391.0713801999809,None,,,,,,,,,,,,,,,,,,,,,,,,,,,,,,,,,,,,,,,,,,11015,001,2024_Jan_04_1129,nback,2021.2.3,59.33013902267368,
2-back,instructions\back-2.png,conditions\2back-p.xlsx,instructions\2-BACK.png,"(25, 15)",practice,2,4,stim\gray.png,stim\gray.png,stim\gray.png,stim\yellow.png,left,1,0,1,0,0,2,2,2,0,6,6,6,,,,,,,,,,,,,,,,,,,,,,,,,,,392.5569071000209,393.5594658999471,392.5569071000209,393.5594658999471,392.5569071000209,393.5594658999471,392.5569071000209,393.5594658999471,up,0,1.1094977000029758,392.5569071000209,None,392.5569071000209,None,392.5569071000209,393.05776470003184,392.5569071000209,393.05776470003184,392.5569071000209,393.05776470003184,392.5569071000209,393.05776470003184,392.5569071000209,None,,,,,,,,,,,,,,,,,,,,,,,,,,,,,,,,,,,,,,,,,,11015,001,2024_Jan_04_1129,nback,2021.2.3,59.33013902267368,
2-back,instructions\back-2.png,conditions\2back-p.xlsx,instructions\2-BACK.png,"(25, 15)",practice,2,3,stim\gray.png,stim\gray.png,stim\yellow.png,stim\gray.png,up,1,0,1,0,0,2,2,2,0,7,7,7,,,,,,,,,,,,,,,,,,,,,,,,,,,394.05897140002344,395.06090449995827,394.05897140002344,395.06090449995827,394.05897140002344,395.06090449995827,394.05897140002344,395.06090449995827,down,0,1.0393975999904796,394.05897140002344,None,394.05897140002344,None,394.05897140002344,394.55998549994547,394.05897140002344,394.55998549994547,394.05897140002344,394.55998549994547,394.05897140002344,394.55998549994547,394.05897140002344,None,,,,,,,,,,,,,,,,,,,,,,,,,,,,,,,,,,,,,,,,,,11015,001,2024_Jan_04_1129,nback,2021.2.3,59.33013902267368,
2-back,instructions\back-2.png,conditions\2back-p.xlsx,instructions\2-BACK.png,"(25, 15)",practice,2,3,stim\gray.png,stim\gray.png,stim\yellow.png,stim\gray.png,down,1,0,1,0,0,2,2,2,0,8,8,8,,,,,,,,,,,,,,,,,,,,,,,,,,,395.5619317999808,396.5630724999355,395.5619317999808,396.5630724999355,395.5619317999808,396.5630724999355,395.5619317999808,396.5630724999355,right,0,1.2325184000656009,395.5619317999808,None,395.5619317999808,None,395.5619317999808,396.0619370000204,395.5619317999808,396.0619370000204,395.5619317999808,396.0619370000204,395.5619317999808,396.0619370000204,395.5619317999808,None,,,,,,,,,,,,,,,,,,,,,,,,,,,,,,,,,,,,,,,,,,11015,001,2024_Jan_04_1129,nback,2021.2.3,59.33013902267368,
2-back,instructions\back-2.png,conditions\2back-p.xlsx,instructions\2-BACK.png,"(25, 15)",practice,2,4,stim\gray.png,stim\gray.png,stim\gray.png,stim\yellow.png,right,1,0,1,0,0,2,2,2,0,9,9,9,,,,,,,,,,,,,,,,,,,,,,,,,,,397.0634709999431,398.065748999943,397.0634709999431,398.065748999943,397.0634709999431,398.065748999943,397.0634709999431,398.065748999943,right,1,1.3549161000410095,397.0634709999431,None,397.0634709999431,None,397.0634709999431,397.56466509995516,397.0634709999431,397.56466509995516,397.0634709999431,397.56466509995516,397.0634709999431,397.56466509995516,397.0634709999431,None,,,,,,,,,,,,,,,,,,,,,,,,,,,,,,,,,,,,,,,,,,11015,001,2024_Jan_04_1129,nback,2021.2.3,59.33013902267368,
2-back,instructions\back-2.png,conditions\2back-p.xlsx,instructions\2-BACK.png,"(25, 15)",practice,2,1,stim\yellow.png,stim\gray.png,stim\gray.png,stim\gray.png,right,1,0,1,0,0,2,2,2,0,10,10,10,,,,,,,,,,,,,,,,,,,,,,,,,,,398.56555780000053,399.56713189999573,398.56555780000053,399.56713189999573,398.56555780000053,399.56713189999573,398.56555780000053,399.56713189999573,down,0,1.260892100050114,398.56555780000053,None,398.56555780000053,None,398.56555780000053,399.06651369994506,398.56555780000053,399.06651369994506,398.56555780000053,399.06651369994506,398.56555780000053,399.06651369994506,398.56555780000053,None,,,,,,,,,,,,,,,,,,,,,,,,,,,,,,,,,,,,,,,,,,11015,001,2024_Jan_04_1129,nback,2021.2.3,59.33013902267368,
2-back,instructions\back-2.png,conditions\2back-p.xlsx,instructions\2-BACK.png,"(25, 15)",practice,2,2,stim\gray.png,stim\yellow.png,stim\gray.png,stim\gray.png,down,1,0,1,0,0,2,2,2,0,11,11,11,,,,,,,,,,,,,,,,,,,,,,,,,,,400.06798409996554,401.07021429995075,400.06798409996554,401.07021429995075,400.06798409996554,401.07021429995075,400.06798409996554,401.07021429995075,up,0,1.2391596999950707,400.06798409996554,None,400.06798409996554,None,400.06798409996554,400.57015499996487,400.06798409996554,400.57015499996487,400.06798409996554,400.57015499996487,400.06798409996554,400.57015499996487,400.06798409996554,None,,,,,,,,,,,,,,,,,,,,,,,,,,,,,,,,,,,,,,,,,,11015,001,2024_Jan_04_1129,nback,2021.2.3,59.33013902267368,
2-back,instructions\back-2.png,conditions\2back-p.xlsx,instructions\2-BACK.png,"(25, 15)",practice,2,4,stim\gray.png,stim\gray.png,stim\gray.png,stim\yellow.png,up,1,0,1,0,0,2,2,2,0,12,12,12,,,,,,,,,,,,,,,,,,,,,,,,,,,401.5701175000286,402.5717129999539,401.5701175000286,402.5717129999539,401.5701175000286,402.5717129999539,401.5701175000286,402.5717129999539,left,0,1.248409099993296,401.5701175000286,None,401.5701175000286,None,401.5701175000286,402.0720278000226,401.5701175000286,402.0720278000226,401.5701175000286,402.0720278000226,401.5701175000286,402.0720278000226,401.5701175000286,None,,,,,,,,,,,,,,,,,,,,,,,,,,,,,,,,,,,,,,,,,,11015,001,2024_Jan_04_1129,nback,2021.2.3,59.33013902267368,
2-back,instructions\back-2.png,conditions\2back-p.xlsx,instructions\2-BACK.png,"(25, 15)",practice,2,3,stim\gray.png,stim\gray.png,stim\yellow.png,stim\gray.png,left,1,0,1,0,0,2,2,2,0,13,13,13,,,,,,,,,,,,,,,,,,,,,,,,,,,403.0724031999707,404.07385169994086,403.0724031999707,404.07385169994086,403.0724031999707,404.07385169994086,403.0724031999707,404.07385169994086,down,0,1.1140257000224665,403.0724031999707,None,403.0724031999707,None,403.0724031999707,403.5749061999377,403.0724031999707,403.5749061999377,403.0724031999707,403.5749061999377,403.0724031999707,403.5749061999377,403.0724031999707,None,,,,,,,,,,,,,,,,,,,,,,,,,,,,,,,,,,,,,,,,,,11015,001,2024_Jan_04_1129,nback,2021.2.3,59.33013902267368,
2-back,instructions\back-2.png,conditions\2back-p.xlsx,instructions\2-BACK.png,"(25, 15)",practice,2,1,stim\yellow.png,stim\gray.png,stim\gray.png,stim\gray.png,down,1,0,1,0,0,2,2,2,0,14,14,14,,,,,,,,,,,,,,,,,,,,,,,,,,,404.5580775999697,405.5593331999844,404.5580775999697,405.5593331999844,404.5580775999697,405.5593331999844,404.5580775999697,405.5593331999844,right,0,1.196458199992776,404.5580775999697,None,404.5580775999697,None,404.5580775999697,405.0595397000434,404.5580775999697,405.0595397000434,404.5580775999697,405.0595397000434,404.5580775999697,405.0595397000434,404.5580775999697,None,,,,,,,,,,,,,,,,,,,,,,,,,,,,,,,,,,,,,,,,,,11015,001,2024_Jan_04_1129,nback,2021.2.3,59.33013902267368,
2-back,instructions\back-2.png,conditions\2back-p.xlsx,instructions\2-BACK.png,"(25, 15)",practice,2,2,stim\gray.png,stim\yellow.png,stim\gray.png,stim\gray.png,right,1,0,1,0,0,2,2,2,0,15,15,15,,,,,,,,,,,,,,,,,,,,,,,,,,,406.05990739993285,407.0613912999397,406.05990739993285,407.0613912999397,406.05990739993285,407.0613912999397,406.05990739993285,407.0613912999397,up,0,1.1746711999876425,406.05990739993285,None,406.05990739993285,None,406.05990739993285,406.5608956000069,406.05990739993285,406.5608956000069,406.05990739993285,406.5608956000069,406.05990739993285,406.5608956000069,406.05990739993285,None,,,,,,,,,,,,,,,,,,,,,,,,,,,,,,,,,,,,,,,,,,11015,001,2024_Jan_04_1129,nback,2021.2.3,59.33013902267368,
2-back,instructions\back-2.png,conditions\2back-p.xlsx,instructions\2-BACK.png,"(25, 15)",practice,2,3,stim\gray.png,stim\gray.png,stim\yellow.png,stim\gray.png,up,1,0,1,0,0,2,2,2,0,16,16,16,,,,,,,,,,,,,,,,,,,,,,,,,,,407.5624095000094,408.56447989994194,407.5624095000094,408.56447989994194,407.5624095000094,408.56447989994194,407.5624095000094,408.56447989994194,left,0,1.144079799996689,407.5624095000094,None,407.5624095000094,None,407.5624095000094,408.0638511000434,407.5624095000094,408.0638511000434,407.5624095000094,408.0638511000434,407.5624095000094,408.0638511000434,407.5624095000094,None,,,,,,,,,,,,,,,,,,,,,,,,,,,,,,,,,,,,,,,,,,11015,001,2024_Jan_04_1129,nback,2021.2.3,59.33013902267368,
2-back,instructions\back-2.png,conditions\2back-p.xlsx,instructions\2-BACK.png,"(25, 15)",practice,2,1,stim\yellow.png,stim\gray.png,stim\gray.png,stim\gray.png,left,1,0,1,0,0,2,2,2,0,17,17,17,,,,,,,,,,,,,,,,,,,,,,,,,,,409.06435490003787,410.0659391999943,409.06435490003787,410.0659391999943,409.06435490003787,410.0659391999943,409.06435490003787,410.0659391999943,right,0,1.1701160999946296,409.06435490003787,None,409.06435490003787,None,409.06435490003787,409.5651280999882,409.06435490003787,409.5651280999882,409.06435490003787,409.5651280999882,409.06435490003787,409.5651280999882,409.06435490003787,None,,,,,,,,,,,,,,,,,,,,,,,,,,,,,,,,,,,,,,,,,,11015,001,2024_Jan_04_1129,nback,2021.2.3,59.33013902267368,
2-back,instructions\back-2.png,conditions\2back-p.xlsx,instructions\2-BACK.png,"(25, 15)",practice,2,4,stim\gray.png,stim\gray.png,stim\gray.png,stim\yellow.png,right,1,0,1,0,0,2,2,2,0,18,18,18,,,,,,,,,,,,,,,,,,,,,,,,,,,410.5671251999447,411.569533700007,410.5671251999447,411.569533700007,410.5671251999447,411.569533700007,410.5671251999447,411.569533700007,up,0,1.2111810001078993,410.5671251999447,None,410.5671251999447,None,410.5671251999447,411.06866380001884,410.5671251999447,411.06866380001884,410.5671251999447,411.06866380001884,410.5671251999447,411.06866380001884,410.5671251999447,None,,,,,,,,,,,,,,,,,,,,,,,,,,,,,,,,,,,,,,,,,,11015,001,2024_Jan_04_1129,nback,2021.2.3,59.33013902267368,
2-back,instructions\back-2.png,conditions\2back-p.xlsx,instructions\2-BACK.png,"(25, 15)",practice,2,2,stim\gray.png,stim\yellow.png,stim\gray.png,stim\gray.png,up,1,0,1,0,0,2,2,2,0,19,19,19,,,,,,,,,,,,,,,,,,,,,,,,,,,412.0695734999608,413.07034909992944,412.0695734999608,413.07034909992944,412.0695734999608,413.07034909992944,412.0695734999608,413.07034909992944,down,0,1.0769052000250667,412.0695734999608,None,412.0695734999608,None,412.0695734999608,412.56985390000045,412.0695734999608,412.56985390000045,412.0695734999608,412.56985390000045,412.0695734999608,412.56985390000045,412.0695734999608,None,,,,,,,,,,,,,,,,,,,,,,,,,,,,,,,,,,,,,,,,,,11015,001,2024_Jan_04_1129,nback,2021.2.3,59.33013902267368,
2-back,instructions\back-2.png,conditions\2back-p.xlsx,instructions\2-BACK.png,"(25, 15)",,,,,,,,,1,0,1,0,0,2,2,2,,,,,,,,,,,,,,,,,,,,,,,,,,,,,,,,,,,,,,,,,,,,,,,,,,,,,,,,,,,,,,,,,,,,,,,,,,,,,,,,,,,,,,,,,,,,,,,,,11015,001,2024_Jan_04_1129,nback,2021.2.3,59.33013902267368,
,,,,,,,,,,,,,1,0,1,0,,,,,,,,,,,,,,,,,,,,,,,,,,,,,,,,,,,,,,,,,,,,,,,,,,,,,,,,,,,,413.5723961000331,None,space,1.7660892000421882,413.5723961000331,None,,,,,,,,,,,,,,,,,,,,,,,,,,,,,,,,,,,,11015,001,2024_Jan_04_1129,nback,2021.2.3,59.33013902267368,
,,,,,,,,,,,,,,,,,,,,,,,,,,,,,,,,,,,,,,,,,,,,,,,,,,,,,,,,,,,,,,,,,,,,,,,,,,,,,,,,,,415.3573103999952,None,space,3.7570199000183493,415.3573103999952,None,,,,,,,,,,,,,,,,,,,,,,,,,,,,,,11015,001,2024_Jan_04_1129,nback,2021.2.3,59.33013902267368,
1-back,instructions\back-1.png,conditions\11back-e.xlsx,,,experiment,1,3,stim\gray.png,stim\gray.png,stim\yellow.png,stim\gray.png,None,,,,,,,,,,,,,0,0,0,5,0,0,0,0,,,,,,,,,,,,,,,419.2629928999813,423.77004179998767,423.7208370999433,None,,,,,,,,,,,,,,,,,,,,,,,,,,,,,,,,,,,,,,None,1,424.15423799993005,None,424.15423799993005,None,424.15423799993005,425.15614069998264,424.15423799993005,425.15614069998264,424.15423799993005,425.15614069998264,424.15423799993005,425.15614069998264,424.15423799993005,424.65484269999433,424.15423799993005,424.65484269999433,424.15423799993005,424.65484269999433,424.15423799993005,424.65484269999433,424.15423799993005,None,,,,,,11015,001,2024_Jan_04_1129,nback,2021.2.3,59.33013902267368,
1-back,instructions\back-1.png,conditions\11back-e.xlsx,,,experiment,1,1,stim\yellow.png,stim\gray.png,stim\gray.png,stim\gray.png,right,,,,,,,,,,,,,0,0,0,5,0,1,1,1,,,,,,,,,,,,,,,,,,,,,,,,,,,,,,,,,,,,,,,,,,,,,,,,,,,,,,,,up,0,425.63963550003245,None,425.63963550003245,None,425.63963550003245,426.6408974999795,425.63963550003245,426.6408974999795,425.63963550003245,426.6408974999795,425.63963550003245,426.6408974999795,425.63963550003245,426.13985639996827,425.63963550003245,426.13985639996827,425.63963550003245,426.13985639996827,425.63963550003245,426.13985639996827,425.63963550003245,None,0.3789214000571519,,,,,11015,001,2024_Jan_04_1129,nback,2021.2.3,59.33013902267368,
1-back,instructions\back-1.png,conditions\11back-e.xlsx,,,experiment,1,4,stim\gray.png,stim\gray.png,stim\gray.png,stim\yellow.png,up,,,,,,,,,,,,,0,0,0,5,0,2,2,2,,,,,,,,,,,,,,,,,,,,,,,,,,,,,,,,,,,,,,,,,,,,,,,,,,,,,,,,up,1,427.1420959000243,None,427.1420959000243,None,427.1420959000243,428.1438049999997,427.1420959000243,428.1438049999997,427.1420959000243,428.1438049999997,427.1420959000243,428.1438049999997,427.1420959000243,427.6420548999449,427.1420959000243,427.6420548999449,427.1420959000243,427.6420548999449,427.1420959000243,427.6420548999449,427.1420959000243,None,0.33327060006558895,,,,,11015,001,2024_Jan_04_1129,nback,2021.2.3,59.33013902267368,
1-back,instructions\back-1.png,conditions\11back-e.xlsx,,,experiment,1,2,stim\gray.png,stim\yellow.png,stim\gray.png,stim\gray.png,down,,,,,,,,,,,,,0,0,0,5,0,3,3,3,,,,,,,,,,,,,,,,,,,,,,,,,,,,,,,,,,,,,,,,,,,,,,,,,,,,,,,,down,1,428.64358749997336,None,428.64358749997336,None,428.64358749997336,429.6454700999893,428.64358749997336,429.6454700999893,428.64358749997336,429.6454700999893,428.64358749997336,429.6454700999893,428.64358749997336,429.1444765999913,428.64358749997336,429.1444765999913,428.64358749997336,429.1444765999913,428.64358749997336,429.1444765999913,428.64358749997336,None,0.18303309998009354,,,,,11015,001,2024_Jan_04_1129,nback,2021.2.3,59.33013902267368,
1-back,instructions\back-1.png,conditions\11back-e.xlsx,,,experiment,1,1,stim\yellow.png,stim\gray.png,stim\gray.png,stim\gray.png,left,,,,,,,,,,,,,0,0,0,5,0,4,4,4,,,,,,,,,,,,,,,,,,,,,,,,,,,,,,,,,,,,,,,,,,,,,,,,,,,,,,,,up,0,430.1457978000399,None,430.1457978000399,None,430.1457978000399,431.1484188999748,430.1457978000399,431.1484188999748,430.1457978000399,431.1484188999748,430.1457978000399,431.1484188999748,430.1457978000399,430.64735670003574,430.1457978000399,430.64735670003574,430.1457978000399,430.64735670003574,430.1457978000399,430.64735670003574,430.1457978000399,None,1.4568439000286162,,,,,11015,001,2024_Jan_04_1129,nback,2021.2.3,59.33013902267368,
1-back,instructions\back-1.png,conditions\11back-e.xlsx,,,experiment,1,2,stim\gray.png,stim\yellow.png,stim\gray.png,stim\gray.png,up,,,,,,,,,,,,,0,0,0,5,0,5,5,5,,,,,,,,,,,,,,,,,,,,,,,,,,,,,,,,,,,,,,,,,,,,,,,,,,,,,,,,left,0,431.6481112999609,None,431.6481112999609,None,431.6481112999609,432.65018019999843,431.6481112999609,432.65018019999843,431.6481112999609,432.65018019999843,431.6481112999609,432.65018019999843,431.6481112999609,432.14979259995744,431.6481112999609,432.14979259995744,431.6481112999609,432.14979259995744,431.6481112999609,432.14979259995744,431.6481112999609,None,1.3383066999958828,,,,,11015,001,2024_Jan_04_1129,nback,2021.2.3,59.33013902267368,
1-back,instructions\back-1.png,conditions\11back-e.xlsx,,,experiment,1,3,stim\gray.png,stim\gray.png,stim\yellow.png,stim\gray.png,left,,,,,,,,,,,,,0,0,0,5,0,6,6,6,,,,,,,,,,,,,,,,,,,,,,,,,,,,,,,,,,,,,,,,,,,,,,,,,,,,,,,,right,0,433.1342584999511,None,433.1342584999511,None,433.1342584999511,434.13501019997057,433.1342584999511,434.13501019997057,433.1342584999511,434.13501019997057,433.1342584999511,434.13501019997057,433.1342584999511,433.6356414000038,433.1342584999511,433.6356414000038,433.1342584999511,433.6356414000038,433.1342584999511,433.6356414000038,433.1342584999511,None,1.35638100001961,,,,,11015,001,2024_Jan_04_1129,nback,2021.2.3,59.33013902267368,
1-back,instructions\back-1.png,conditions\11back-e.xlsx,,,experiment,1,4,stim\gray.png,stim\gray.png,stim\gray.png,stim\yellow.png,right,,,,,,,,,,,,,0,0,0,5,0,7,7,7,,,,,,,,,,,,,,,,,,,,,,,,,,,,,,,,,,,,,,,,,,,,,,,,,,,,,,,,None,0,434.6359556999523,None,434.6359556999523,None,434.6359556999523,435.6376387999626,434.6359556999523,435.6376387999626,434.6359556999523,435.6376387999626,434.6359556999523,435.6376387999626,434.6359556999523,435.1372550999513,434.6359556999523,435.1372550999513,434.6359556999523,435.1372550999513,434.6359556999523,435.1372550999513,434.6359556999523,None,,,,,,11015,001,2024_Jan_04_1129,nback,2021.2.3,59.33013902267368,
1-back,instructions\back-1.png,conditions\11back-e.xlsx,,,experiment,1,4,stim\gray.png,stim\gray.png,stim\gray.png,stim\yellow.png,down,,,,,,,,,,,,,0,0,0,5,0,8,8,8,,,,,,,,,,,,,,,,,,,,,,,,,,,,,,,,,,,,,,,,,,,,,,,,,,,,,,,,down,1,436.1384063999867,None,436.1384063999867,None,436.1384063999867,437.1396410999587,436.1384063999867,437.1396410999587,436.1384063999867,437.1396410999587,436.1384063999867,437.1396410999587,436.1384063999867,436.6388296999503,436.1384063999867,436.6388296999503,436.1384063999867,436.6388296999503,436.1384063999867,436.6388296999503,436.1384063999867,None,0.15996989991981536,,,,,11015,001,2024_Jan_04_1129,nback,2021.2.3,59.33013902267368,
1-back,instructions\back-1.png,conditions\11back-e.xlsx,,,experiment,1,3,stim\gray.png,stim\gray.png,stim\yellow.png,stim\gray.png,down,,,,,,,,,,,,,0,0,0,5,0,9,9,9,,,,,,,,,,,,,,,,,,,,,,,,,,,,,,,,,,,,,,,,,,,,,,,,,,,,,,,,right,0,437.6411072999472,None,437.6411072999472,None,437.6411072999472,438.6422620000085,437.6411072999472,438.6422620000085,437.6411072999472,438.6422620000085,437.6411072999472,438.6422620000085,437.6411072999472,438.14255799993407,437.6411072999472,438.14255799993407,437.6411072999472,438.14255799993407,437.6411072999472,438.14255799993407,437.6411072999472,None,1.369525899994187,,,,,11015,001,2024_Jan_04_1129,nback,2021.2.3,59.33013902267368,
1-back,instructions\back-1.png,conditions\11back-e.xlsx,,,experiment,1,1,stim\yellow.png,stim\gray.png,stim\gray.png,stim\gray.png,right,,,,,,,,,,,,,0,0,0,5,0,10,10,10,,,,,,,,,,,,,,,,,,,,,,,,,,,,,,,,,,,,,,,,,,,,,,,,,,,,,,,,up,0,439.1425165999681,None,439.1425165999681,None,439.1425165999681,440.14413519995287,439.1425165999681,440.14413519995287,439.1425165999681,440.14413519995287,439.1425165999681,440.14413519995287,439.1425165999681,439.6436183999758,439.1425165999681,439.6436183999758,439.1425165999681,439.6436183999758,439.1425165999681,439.6436183999758,439.1425165999681,None,1.4280638999771327,,,,,11015,001,2024_Jan_04_1129,nback,2021.2.3,59.33013902267368,
1-back,instructions\back-1.png,conditions\11back-e.xlsx,,,experiment,1,2,stim\gray.png,stim\yellow.png,stim\gray.png,stim\gray.png,up,,,,,,,,,,,,,0,0,0,5,0,11,11,11,,,,,,,,,,,,,,,,,,,,,,,,,,,,,,,,,,,,,,,,,,,,,,,,,,,,,,,,left,0,440.644815800013,None,440.644815800013,None,440.644815800013,441.64606790000107,440.644815800013,441.64606790000107,440.644815800013,441.64606790000107,440.644815800013,441.64606790000107,440.644815800013,441.1458599999314,440.644815800013,441.1458599999314,440.644815800013,441.1458599999314,440.644815800013,441.1458599999314,440.644815800013,None,1.373810000019148,,,,,11015,001,2024_Jan_04_1129,nback,2021.2.3,59.33013902267368,
1-back,instructions\back-1.png,conditions\11back-e.xlsx,,,experiment,1,3,stim\gray.png,stim\gray.png,stim\yellow.png,stim\gray.png,left,,,,,,,,,,,,,0,0,0,5,0,12,12,12,,,,,,,,,,,,,,,,,,,,,,,,,,,,,,,,,,,,,,,,,,,,,,,,,,,,,,,,right,0,442.14696229994297,None,442.14696229994297,None,442.14696229994297,443.1495833999943,442.14696229994297,443.1495833999943,442.14696229994297,443.1495833999943,442.14696229994297,443.1495833999943,442.14696229994297,442.64863660000265,442.14696229994297,442.64863660000265,442.14696229994297,442.64863660000265,442.14696229994297,442.64863660000265,442.14696229994297,None,1.3434857999673113,,,,,11015,001,2024_Jan_04_1129,nback,2021.2.3,59.33013902267368,
1-back,instructions\back-1.png,conditions\11back-e.xlsx,,,experiment,1,4,stim\gray.png,stim\gray.png,stim\gray.png,stim\yellow.png,right,,,,,,,,,,,,,0,0,0,5,0,13,13,13,,,,,,,,,,,,,,,,,,,,,,,,,,,,,,,,,,,,,,,,,,,,,,,,,,,,,,,,down,0,443.64916439994704,None,443.64916439994704,None,443.64916439994704,444.6510813999921,443.64916439994704,444.6510813999921,443.64916439994704,444.6510813999921,443.64916439994704,444.6510813999921,443.64916439994704,444.14997989998665,443.64916439994704,444.14997989998665,443.64916439994704,444.14997989998665,443.64916439994704,444.14997989998665,443.64916439994704,None,1.4093880999134853,,,,,11015,001,2024_Jan_04_1129,nback,2021.2.3,59.33013902267368,
