backseq,backinstr,backfile,instruction,size_in,Trialtype,back,number,P1,P2,P3,P4,corrAns,trials_practice.thisRepN,trials_practice.thisTrialN,trials_practice.thisN,trials_practice.thisIndex,trials.thisRepN,trials.thisTrialN,trials.thisN,trials.thisIndex,trials_3.thisRepN,trials_3.thisTrialN,trials_3.thisN,trials_3.thisIndex,trials_2.thisRepN,trials_2.thisTrialN,trials_2.thisN,trials_2.thisIndex,trials_4.thisRepN,trials_4.thisTrialN,trials_4.thisN,trials_4.thisIndex,image.started,image.stopped,image_2.started,image_2.stopped,key_resp.keys,key_resp.rt,key_resp.started,key_resp.stopped,image_3.started,image_3.stopped,key_resp_2.keys,key_resp_2.rt,key_resp_2.started,key_resp_2.stopped,image_4.started,image_4.stopped,text.started,text.stopped,H1.started,H1.stopped,H2.started,H2.stopped,H3.started,H3.stopped,H4.started,H4.stopped,key_resp_3.keys,key_resp_3.corr,key_resp_3.started,key_resp_3.stopped,text_4.started,text_4.stopped,F1.started,F1.stopped,F2.started,F2.stopped,F3.started,F3.stopped,F4.started,F4.stopped,image_7.started,image_7.stopped,key_resp_3.rt,text_5.started,text_5.stopped,key_resp_6.keys,key_resp_6.rt,key_resp_6.started,key_resp_6.stopped,image_5.started,image_5.stopped,key_resp_4.keys,key_resp_4.rt,key_resp_4.started,key_resp_4.stopped,key_resp_5.keys,key_resp_5.corr,key_resp_5.rt,key_resp_5.started,key_resp_5.stopped,text_3.started,text_3.stopped,H1_2.started,H1_2.stopped,H2_2.started,H2_2.stopped,H3_2.started,H3_2.stopped,H4_2.started,H4_2.stopped,F1_2.started,F1_2.stopped,F2_2.started,F2_2.stopped,F3_2.started,F3_2.stopped,F4_2.started,F4_2.stopped,image_8.started,image_8.stopped,text_2.started,text_2.stopped,image_6.started,image_6.stopped,participant,session,date,expName,psychopyVersion,frameRate,
,,,,,,,,,,,,,,,,,,,,,,,,,,,,,,,,,18.36064540001098,None,19.329069899977185,None,space,17.28482159995474,19.329069899977185,None,,,,,,,,,,,,,,,,,,,,,,,,,,,,,,,,,,,,,,,,,,,,,,,,,,,,,,,,,,,,,,,,,,,,,,,,,,,,,11016,001,2024_Jan_04_1358,nback,2021.2.3,59.76600413999689,
0-back,instructions\back-0.png,conditions\0back-p.xlsx,instructions\0-BACK.png,"(15, 8)",practice,0,1,stim\yellow.png,stim\gray.png,stim\gray.png,stim\gray.png,up,0,0,0,0,0,0,0,0,0,0,0,0,,,,,,,,,,,,,,,,,36.6883824999677,None,space,80.16644300008193,36.6883824999677,None,117.02351790003013,121.5305028000148,121.46362529997714,None,121.89761949994136,122.89994539995678,121.89761949994136,122.89994539995678,121.89761949994136,122.89994539995678,121.89761949994136,122.89994539995678,None,0,121.89761949994136,None,121.89761949994136,None,121.89761949994136,122.39890010003,121.89761949994136,122.39890010003,121.89761949994136,122.39890010003,121.89761949994136,122.39890010003,121.89761949994136,None,,,,,,,,,,,,,,,,,,,,,,,,,,,,,,,,,,,,,,,,,,,11016,001,2024_Jan_04_1358,nback,2021.2.3,59.76600413999689,
0-back,instructions\back-0.png,conditions\0back-p.xlsx,instructions\0-BACK.png,"(15, 8)",practice,0,2,stim\gray.png,stim\yellow.png,stim\gray.png,stim\gray.png,left,0,0,0,0,0,0,0,0,0,1,1,1,,,,,,,,,,,,,,,,,,,,,,,,,,,123.3832314000465,124.3853285999503,123.3832314000465,124.3853285999503,123.3832314000465,124.3853285999503,123.3832314000465,124.3853285999503,None,0,123.3832314000465,None,123.3832314000465,None,123.3832314000465,123.88397119997535,123.3832314000465,123.88397119997535,123.3832314000465,123.88397119997535,123.3832314000465,123.88397119997535,123.3832314000465,None,,,,,,,,,,,,,,,,,,,,,,,,,,,,,,,,,,,,,,,,,,,11016,001,2024_Jan_04_1358,nback,2021.2.3,59.76600413999689,
0-back,instructions\back-0.png,conditions\0back-p.xlsx,instructions\0-BACK.png,"(15, 8)",practice,0,3,stim\gray.png,stim\gray.png,stim\yellow.png,stim\gray.png,right,0,0,0,0,0,0,0,0,0,2,2,2,,,,,,,,,,,,,,,,,,,,,,,,,,,124.88543759996537,125.88687819999177,124.88543759996537,125.88687819999177,124.88543759996537,125.88687819999177,124.88543759996537,125.88687819999177,None,0,124.88543759996537,None,124.88543759996537,None,124.88543759996537,125.38687040004879,124.88543759996537,125.38687040004879,124.88543759996537,125.38687040004879,124.88543759996537,125.38687040004879,124.88543759996537,None,,,,,,,,,,,,,,,,,,,,,,,,,,,,,,,,,,,,,,,,,,,11016,001,2024_Jan_04_1358,nback,2021.2.3,59.76600413999689,
0-back,instructions\back-0.png,conditions\0back-p.xlsx,instructions\0-BACK.png,"(15, 8)",practice,0,4,stim\gray.png,stim\gray.png,stim\gray.png,stim\yellow.png,down,0,0,0,0,0,0,0,0,0,3,3,3,,,,,,,,,,,,,,,,,,,,,,,,,,,126.38799570000265,127.38953080005012,126.38799570000265,127.38953080005012,126.38799570000265,127.38953080005012,126.38799570000265,127.38953080005012,down,1,126.38799570000265,None,126.38799570000265,None,126.38799570000265,126.88827460003085,126.38799570000265,126.88827460003085,126.38799570000265,126.88827460003085,126.38799570000265,126.88827460003085,126.38799570000265,None,0.6182389999739826,,,,,,,,,,,,,,,,,,,,,,,,,,,,,,,,,,,,,,,,,,11016,001,2024_Jan_04_1358,nback,2021.2.3,59.76600413999689,
0-back,instructions\back-0.png,conditions\0back-p.xlsx,instructions\0-BACK.png,"(15, 8)",practice,0,2,stim\gray.png,stim\yellow.png,stim\gray.png,stim\gray.png,left,0,0,0,0,0,0,0,0,0,4,4,4,,,,,,,,,,,,,,,,,,,,,,,,,,,127.88982459995896,128.89137960004155,127.88982459995896,128.89137960004155,127.88982459995896,128.89137960004155,127.88982459995896,128.89137960004155,left,1,127.88982459995896,None,127.88982459995896,None,127.88982459995896,128.3903223000234,127.88982459995896,128.3903223000234,127.88982459995896,128.3903223000234,127.88982459995896,128.3903223000234,127.88982459995896,None,0.31624079996254295,,,,,,,,,,,,,,,,,,,,,,,,,,,,,,,,,,,,,,,,,,11016,001,2024_Jan_04_1358,nback,2021.2.3,59.76600413999689,
0-back,instructions\back-0.png,conditions\0back-p.xlsx,instructions\0-BACK.png,"(15, 8)",practice,0,1,stim\yellow.png,stim\gray.png,stim\gray.png,stim\gray.png,up,0,0,0,0,0,0,0,0,0,5,5,5,,,,,,,,,,,,,,,,,,,,,,,,,,,129.39252230001148,130.3943623000523,129.39252230001148,130.3943623000523,129.39252230001148,130.3943623000523,129.39252230001148,130.3943623000523,up,1,129.39252230001148,None,129.39252230001148,None,129.39252230001148,129.89353600004688,129.39252230001148,129.89353600004688,129.39252230001148,129.89353600004688,129.39252230001148,129.89353600004688,129.39252230001148,None,0.3252638999838382,,,,,,,,,,,,,,,,,,,,,,,,,,,,,,,,,,,,,,,,,,11016,001,2024_Jan_04_1358,nback,2021.2.3,59.76600413999689,
0-back,instructions\back-0.png,conditions\0back-p.xlsx,instructions\0-BACK.png,"(15, 8)",practice,0,4,stim\gray.png,stim\gray.png,stim\gray.png,stim\yellow.png,down,0,0,0,0,0,0,0,0,0,6,6,6,,,,,,,,,,,,,,,,,,,,,,,,,,,130.87761249998584,131.87959350005258,130.87761249998584,131.87959350005258,130.87761249998584,131.87959350005258,130.87761249998584,131.87959350005258,down,1,130.87761249998584,None,130.87761249998584,None,130.87761249998584,131.37819169997238,130.87761249998584,131.37819169997238,130.87761249998584,131.37819169997238,130.87761249998584,131.37819169997238,130.87761249998584,None,0.6404332000529394,,,,,,,,,,,,,,,,,,,,,,,,,,,,,,,,,,,,,,,,,,11016,001,2024_Jan_04_1358,nback,2021.2.3,59.76600413999689,
0-back,instructions\back-0.png,conditions\0back-p.xlsx,instructions\0-BACK.png,"(15, 8)",practice,0,3,stim\gray.png,stim\gray.png,stim\yellow.png,stim\gray.png,right,0,0,0,0,0,0,0,0,0,7,7,7,,,,,,,,,,,,,,,,,,,,,,,,,,,132.37977739993948,133.38182510004845,132.37977739993948,133.38182510004845,132.37977739993948,133.38182510004845,132.37977739993948,133.38182510004845,right,1,132.37977739993948,None,132.37977739993948,None,132.37977739993948,132.88066469994374,132.37977739993948,132.88066469994374,132.37977739993948,132.88066469994374,132.37977739993948,132.88066469994374,132.37977739993948,None,0.44233869994059205,,,,,,,,,,,,,,,,,,,,,,,,,,,,,,,,,,,,,,,,,,11016,001,2024_Jan_04_1358,nback,2021.2.3,59.76600413999689,
0-back,instructions\back-0.png,conditions\0back-p.xlsx,instructions\0-BACK.png,"(15, 8)",practice,0,3,stim\gray.png,stim\gray.png,stim\yellow.png,stim\gray.png,right,0,0,0,0,0,0,0,0,0,8,8,8,,,,,,,,,,,,,,,,,,,,,,,,,,,133.8827609999571,134.88416510005482,133.8827609999571,134.88416510005482,133.8827609999571,134.88416510005482,133.8827609999571,134.88416510005482,right,1,133.8827609999571,None,133.8827609999571,None,133.8827609999571,134.382810399984,133.8827609999571,134.382810399984,133.8827609999571,134.382810399984,133.8827609999571,134.382810399984,133.8827609999571,None,0.4190575999673456,,,,,,,,,,,,,,,,,,,,,,,,,,,,,,,,,,,,,,,,,,11016,001,2024_Jan_04_1358,nback,2021.2.3,59.76600413999689,
0-back,instructions\back-0.png,conditions\0back-p.xlsx,instructions\0-BACK.png,"(15, 8)",practice,0,4,stim\gray.png,stim\gray.png,stim\gray.png,stim\yellow.png,down,0,0,0,0,0,0,0,0,0,9,9,9,,,,,,,,,,,,,,,,,,,,,,,,,,,135.38502909999806,136.38634249998722,135.38502909999806,136.38634249998722,135.38502909999806,136.38634249998722,135.38502909999806,136.38634249998722,down,1,135.38502909999806,None,135.38502909999806,None,135.38502909999806,135.88480949995574,135.38502909999806,135.88480949995574,135.38502909999806,135.88480949995574,135.38502909999806,135.88480949995574,135.38502909999806,None,0.5248874999815598,,,,,,,,,,,,,,,,,,,,,,,,,,,,,,,,,,,,,,,,,,11016,001,2024_Jan_04_1358,nback,2021.2.3,59.76600413999689,
0-back,instructions\back-0.png,conditions\0back-p.xlsx,instructions\0-BACK.png,"(15, 8)",practice,0,1,stim\yellow.png,stim\gray.png,stim\gray.png,stim\gray.png,up,0,0,0,0,0,0,0,0,0,10,10,10,,,,,,,,,,,,,,,,,,,,,,,,,,,136.93608110002242,137.93879709998146,136.93608110002242,137.93879709998146,136.93608110002242,137.93879709998146,136.93608110002242,137.93879709998146,up,1,136.93608110002242,None,136.93608110002242,None,136.93608110002242,137.43730760004837,136.93608110002242,137.43730760004837,136.93608110002242,137.43730760004837,136.93608110002242,137.43730760004837,136.93608110002242,None,0.43808619992341846,,,,,,,,,,,,,,,,,,,,,,,,,,,,,,,,,,,,,,,,,,11016,001,2024_Jan_04_1358,nback,2021.2.3,59.76600413999689,
0-back,instructions\back-0.png,conditions\0back-p.xlsx,instructions\0-BACK.png,"(15, 8)",practice,0,2,stim\gray.png,stim\yellow.png,stim\gray.png,stim\gray.png,left,0,0,0,0,0,0,0,0,0,11,11,11,,,,,,,,,,,,,,,,,,,,,,,,,,,138.38862680003513,139.38997260003816,138.38862680003513,139.38997260003816,138.38862680003513,139.38997260003816,138.38862680003513,139.38997260003816,left,1,138.38862680003513,None,138.38862680003513,None,138.38862680003513,138.88937390001956,138.38862680003513,138.88937390001956,138.38862680003513,138.88937390001956,138.38862680003513,138.88937390001956,138.38862680003513,None,0.3774898999836296,,,,,,,,,,,,,,,,,,,,,,,,,,,,,,,,,,,,,,,,,,11016,001,2024_Jan_04_1358,nback,2021.2.3,59.76600413999689,
0-back,instructions\back-0.png,conditions\0back-p.xlsx,instructions\0-BACK.png,"(15, 8)",practice,0,4,stim\gray.png,stim\gray.png,stim\gray.png,stim\yellow.png,down,0,0,0,0,0,0,0,0,0,12,12,12,,,,,,,,,,,,,,,,,,,,,,,,,,,139.89097069995478,140.89304789993912,139.89097069995478,140.89304789993912,139.89097069995478,140.89304789993912,139.89097069995478,140.89304789993912,down,1,139.89097069995478,None,139.89097069995478,None,139.89097069995478,140.3916461999761,139.89097069995478,140.3916461999761,139.89097069995478,140.3916461999761,139.89097069995478,140.3916461999761,139.89097069995478,None,0.3948659999296069,,,,,,,,,,,,,,,,,,,,,,,,,,,,,,,,,,,,,,,,,,11016,001,2024_Jan_04_1358,nback,2021.2.3,59.76600413999689,
0-back,instructions\back-0.png,conditions\0back-p.xlsx,instructions\0-BACK.png,"(15, 8)",practice,0,3,stim\gray.png,stim\gray.png,stim\yellow.png,stim\gray.png,right,0,0,0,0,0,0,0,0,0,13,13,13,,,,,,,,,,,,,,,,,,,,,,,,,,,141.39309599995613,142.3946508000372,141.39309599995613,142.3946508000372,141.39309599995613,142.3946508000372,141.39309599995613,142.3946508000372,right,1,141.39309599995613,None,141.39309599995613,None,141.39309599995613,141.89390270004515,141.39309599995613,141.89390270004515,141.39309599995613,141.89390270004515,141.39309599995613,141.89390270004515,141.39309599995613,None,0.31703949999064207,,,,,,,,,,,,,,,,,,,,,,,,,,,,,,,,,,,,,,,,,,11016,001,2024_Jan_04_1358,nback,2021.2.3,59.76600413999689,
0-back,instructions\back-0.png,conditions\0back-p.xlsx,instructions\0-BACK.png,"(15, 8)",practice,0,1,stim\yellow.png,stim\gray.png,stim\gray.png,stim\gray.png,up,0,0,0,0,0,0,0,0,0,14,14,14,,,,,,,,,,,,,,,,,,,,,,,,,,,142.8785218000412,143.88008120004088,142.8785218000412,143.88008120004088,142.8785218000412,143.88008120004088,142.8785218000412,143.88008120004088,up,1,142.8785218000412,None,142.8785218000412,None,142.8785218000412,143.38019279995933,142.8785218000412,143.38019279995933,142.8785218000412,143.38019279995933,142.8785218000412,143.38019279995933,142.8785218000412,None,0.3682534999679774,,,,,,,,,,,,,,,,,,,,,,,,,,,,,,,,,,,,,,,,,,11016,001,2024_Jan_04_1358,nback,2021.2.3,59.76600413999689,
0-back,instructions\back-0.png,conditions\0back-p.xlsx,instructions\0-BACK.png,"(15, 8)",practice,0,2,stim\gray.png,stim\yellow.png,stim\gray.png,stim\gray.png,left,0,0,0,0,0,0,0,0,0,15,15,15,,,,,,,,,,,,,,,,,,,,,,,,,,,144.38083020003978,145.38437490002252,144.38083020003978,145.38437490002252,144.38083020003978,145.38437490002252,144.38083020003978,145.38437490002252,left,1,144.38083020003978,None,144.38083020003978,None,144.38083020003978,144.8818900999613,144.38083020003978,144.8818900999613,144.38083020003978,144.8818900999613,144.38083020003978,144.8818900999613,144.38083020003978,None,0.36902520002331585,,,,,,,,,,,,,,,,,,,,,,,,,,,,,,,,,,,,,,,,,,11016,001,2024_Jan_04_1358,nback,2021.2.3,59.76600413999689,
0-back,instructions\back-0.png,conditions\0back-p.xlsx,instructions\0-BACK.png,"(15, 8)",practice,0,3,stim\gray.png,stim\gray.png,stim\yellow.png,stim\gray.png,right,0,0,0,0,0,0,0,0,0,16,16,16,,,,,,,,,,,,,,,,,,,,,,,,,,,145.88319039996713,146.88482529995963,145.88319039996713,146.88482529995963,145.88319039996713,146.88482529995963,145.88319039996713,146.88482529995963,right,1,145.88319039996713,None,145.88319039996713,None,145.88319039996713,146.38459789997432,145.88319039996713,146.38459789997432,145.88319039996713,146.38459789997432,145.88319039996713,146.38459789997432,145.88319039996713,None,0.3866512000095099,,,,,,,,,,,,,,,,,,,,,,,,,,,,,,,,,,,,,,,,,,11016,001,2024_Jan_04_1358,nback,2021.2.3,59.76600413999689,
0-back,instructions\back-0.png,conditions\0back-p.xlsx,instructions\0-BACK.png,"(15, 8)",practice,0,1,stim\yellow.png,stim\gray.png,stim\gray.png,stim\gray.png,up,0,0,0,0,0,0,0,0,0,17,17,17,,,,,,,,,,,,,,,,,,,,,,,,,,,147.38611910003237,148.3881687000394,147.38611910003237,148.3881687000394,147.38611910003237,148.3881687000394,147.38611910003237,148.3881687000394,up,1,147.38611910003237,None,147.38611910003237,None,147.38611910003237,147.88655739999376,147.38611910003237,147.88655739999376,147.38611910003237,147.88655739999376,147.38611910003237,147.88655739999376,147.38611910003237,None,0.37973499996587634,,,,,,,,,,,,,,,,,,,,,,,,,,,,,,,,,,,,,,,,,,11016,001,2024_Jan_04_1358,nback,2021.2.3,59.76600413999689,
0-back,instructions\back-0.png,conditions\0back-p.xlsx,instructions\0-BACK.png,"(15, 8)",practice,0,4,stim\gray.png,stim\gray.png,stim\gray.png,stim\yellow.png,down,0,0,0,0,0,0,0,0,0,18,18,18,,,,,,,,,,,,,,,,,,,,,,,,,,,148.88853480003309,149.88995530002285,148.88853480003309,149.88995530002285,148.88853480003309,149.88995530002285,148.88853480003309,149.88995530002285,down,1,148.88853480003309,None,148.88853480003309,None,148.88853480003309,149.3890485999873,148.88853480003309,149.3890485999873,148.88853480003309,149.3890485999873,148.88853480003309,149.3890485999873,148.88853480003309,None,0.5578883999260142,,,,,,,,,,,,,,,,,,,,,,,,,,,,,,,,,,,,,,,,,,11016,001,2024_Jan_04_1358,nback,2021.2.3,59.76600413999689,
0-back,instructions\back-0.png,conditions\0back-p.xlsx,instructions\0-BACK.png,"(15, 8)",practice,0,2,stim\gray.png,stim\yellow.png,stim\gray.png,stim\gray.png,left,0,0,0,0,0,0,0,0,0,19,19,19,,,,,,,,,,,,,,,,,,,,,,,,,,,150.38978069997393,151.39200829993933,150.38978069997393,151.39200829993933,150.38978069997393,151.39200829993933,150.38978069997393,151.39200829993933,left,1,150.38978069997393,None,150.38978069997393,None,150.38978069997393,150.8905279999599,150.38978069997393,150.8905279999599,150.38978069997393,150.8905279999599,150.38978069997393,150.8905279999599,150.38978069997393,None,0.4005943000083789,,,,,,,,,,,,,,,,,,,,,,,,,,,,,,,,,,,,,,,,,,11016,001,2024_Jan_04_1358,nback,2021.2.3,59.76600413999689,
0-back,instructions\back-0.png,conditions\0back-p.xlsx,instructions\0-BACK.png,"(15, 8)",,,,,,,,,0,0,0,0,0,0,0,0,,,,,,,,,,,,,,,,,,,,,,,,,,,,,,,,,,,,,,,,,,,,,,,,,,,,,,,,,,,,,,,,,,,,,,,,,,,,,,,,,,,,,,,,,,,,,,,,,11016,001,2024_Jan_04_1358,nback,2021.2.3,59.76600413999689,
1-back,instructions\back-1.png,conditions\1back-p.xlsx,instructions\1-BACK.png,"(25, 15)",practice,1,1,stim\yellow.png,stim\gray.png,stim\gray.png,stim\gray.png,None,0,0,0,0,0,1,1,1,0,0,0,0,,,,,,,,,,,,,,,,,152.04198500001803,None,space,10.988242799998261,152.04198500001803,None,163.17558309994638,167.68331450002734,167.64857059996575,None,168.08301890001167,169.08408069994766,168.08301890001167,169.08408069994766,168.08301890001167,169.08408069994766,168.08301890001167,169.08408069994766,None,1,168.08301890001167,None,168.08301890001167,None,168.08301890001167,168.58429190004244,168.08301890001167,168.58429190004244,168.08301890001167,168.58429190004244,168.08301890001167,168.58429190004244,168.08301890001167,None,,,,,,,,,,,,,,,,,,,,,,,,,,,,,,,,,,,,,,,,,,,11016,001,2024_Jan_04_1358,nback,2021.2.3,59.76600413999689,
1-back,instructions\back-1.png,conditions\1back-p.xlsx,instructions\1-BACK.png,"(25, 15)",practice,1,2,stim\gray.png,stim\yellow.png,stim\gray.png,stim\gray.png,up,0,0,0,0,0,1,1,1,0,1,1,1,,,,,,,,,,,,,,,,,,,,,,,,,,,169.56819090002682,170.5696269000182,169.56819090002682,170.5696269000182,169.56819090002682,170.5696269000182,169.56819090002682,170.5696269000182,up,1,169.56819090002682,None,169.56819090002682,None,169.56819090002682,170.070206400007,169.56819090002682,170.070206400007,169.56819090002682,170.070206400007,169.56819090002682,170.070206400007,169.56819090002682,None,0.45404189999680966,,,,,,,,,,,,,,,,,,,,,,,,,,,,,,,,,,,,,,,,,,11016,001,2024_Jan_04_1358,nback,2021.2.3,59.76600413999689,
1-back,instructions\back-1.png,conditions\1back-p.xlsx,instructions\1-BACK.png,"(25, 15)",practice,1,3,stim\gray.png,stim\gray.png,stim\yellow.png,stim\gray.png,left,0,0,0,0,0,1,1,1,0,2,2,2,,,,,,,,,,,,,,,,,,,,,,,,,,,171.07054440001957,172.07240389997605,171.07054440001957,172.07240389997605,171.07054440001957,172.07240389997605,171.07054440001957,172.07240389997605,left,1,171.07054440001957,None,171.07054440001957,None,171.07054440001957,171.571887099999,171.07054440001957,171.571887099999,171.07054440001957,171.571887099999,171.07054440001957,171.571887099999,171.07054440001957,None,0.5362531000282615,,,,,,,,,,,,,,,,,,,,,,,,,,,,,,,,,,,,,,,,,,11016,001,2024_Jan_04_1358,nback,2021.2.3,59.76600413999689,
1-back,instructions\back-1.png,conditions\1back-p.xlsx,instructions\1-BACK.png,"(25, 15)",practice,1,4,stim\gray.png,stim\gray.png,stim\gray.png,stim\yellow.png,right,0,0,0,0,0,1,1,1,0,3,3,3,,,,,,,,,,,,,,,,,,,,,,,,,,,172.57275729998946,173.5747418999672,172.57275729998946,173.5747418999672,172.57275729998946,173.5747418999672,172.57275729998946,173.5747418999672,right,1,172.57275729998946,None,172.57275729998946,None,172.57275729998946,173.07338600000367,172.57275729998946,173.07338600000367,172.57275729998946,173.07338600000367,172.57275729998946,173.07338600000367,172.57275729998946,None,0.2659523000475019,,,,,,,,,,,,,,,,,,,,,,,,,,,,,,,,,,,,,,,,,,11016,001,2024_Jan_04_1358,nback,2021.2.3,59.76600413999689,
1-back,instructions\back-1.png,conditions\1back-p.xlsx,instructions\1-BACK.png,"(25, 15)",practice,1,2,stim\gray.png,stim\yellow.png,stim\gray.png,stim\gray.png,down,0,0,0,0,0,1,1,1,0,4,4,4,,,,,,,,,,,,,,,,,,,,,,,,,,,174.07507699995767,175.07654869998805,174.07507699995767,175.07654869998805,174.07507699995767,175.07654869998805,174.07507699995767,175.07654869998805,down,1,174.07507699995767,None,174.07507699995767,None,174.07507699995767,174.57720229995903,174.07507699995767,174.57720229995903,174.07507699995767,174.57720229995903,174.07507699995767,174.57720229995903,174.07507699995767,None,0.23483139998279512,,,,,,,,,,,,,,,,,,,,,,,,,,,,,,,,,,,,,,,,,,11016,001,2024_Jan_04_1358,nback,2021.2.3,59.76600413999689,
1-back,instructions\back-1.png,conditions\1back-p.xlsx,instructions\1-BACK.png,"(25, 15)",practice,1,1,stim\yellow.png,stim\gray.png,stim\gray.png,stim\gray.png,left,0,0,0,0,0,1,1,1,0,5,5,5,,,,,,,,,,,,,,,,,,,,,,,,,,,175.57745460001752,176.57924820005428,175.57745460001752,176.57924820005428,175.57745460001752,176.57924820005428,175.57745460001752,176.57924820005428,left,1,175.57745460001752,None,175.57745460001752,None,175.57745460001752,176.07780740002636,175.57745460001752,176.07780740002636,175.57745460001752,176.07780740002636,175.57745460001752,176.07780740002636,175.57745460001752,None,1.012436299934052,,,,,,,,,,,,,,,,,,,,,,,,,,,,,,,,,,,,,,,,,,11016,001,2024_Jan_04_1358,nback,2021.2.3,59.76600413999689,
1-back,instructions\back-1.png,conditions\1back-p.xlsx,instructions\1-BACK.png,"(25, 15)",practice,1,4,stim\gray.png,stim\gray.png,stim\gray.png,stim\yellow.png,up,0,0,0,0,0,1,1,1,0,6,6,6,,,,,,,,,,,,,,,,,,,,,,,,,,,177.0627524999436,178.06483899999876,177.0627524999436,178.06483899999876,177.0627524999436,178.06483899999876,177.0627524999436,178.06483899999876,up,1,177.0627524999436,None,177.0627524999436,None,177.0627524999436,177.5642609000206,177.0627524999436,177.5642609000206,177.0627524999436,177.5642609000206,177.0627524999436,177.5642609000206,177.0627524999436,None,0.32713109999895096,,,,,,,,,,,,,,,,,,,,,,,,,,,,,,,,,,,,,,,,,,11016,001,2024_Jan_04_1358,nback,2021.2.3,59.76600413999689,
1-back,instructions\back-1.png,conditions\1back-p.xlsx,instructions\1-BACK.png,"(25, 15)",practice,1,3,stim\gray.png,stim\gray.png,stim\yellow.png,stim\gray.png,down,0,0,0,0,0,1,1,1,0,7,7,7,,,,,,,,,,,,,,,,,,,,,,,,,,,178.56535910000093,179.56691519997548,178.56535910000093,179.56691519997548,178.56535910000093,179.56691519997548,178.56535910000093,179.56691519997548,down,1,178.56535910000093,None,178.56535910000093,None,178.56535910000093,179.06565590004902,178.56535910000093,179.06565590004902,178.56535910000093,179.06565590004902,178.56535910000093,179.06565590004902,178.56535910000093,None,0.35250519996043295,,,,,,,,,,,,,,,,,,,,,,,,,,,,,,,,,,,,,,,,,,11016,001,2024_Jan_04_1358,nback,2021.2.3,59.76600413999689,
1-back,instructions\back-1.png,conditions\1back-p.xlsx,instructions\1-BACK.png,"(25, 15)",practice,1,3,stim\gray.png,stim\gray.png,stim\yellow.png,stim\gray.png,right,0,0,0,0,0,1,1,1,0,8,8,8,,,,,,,,,,,,,,,,,,,,,,,,,,,180.06718929996714,181.0695900999708,180.06718929996714,181.0695900999708,180.06718929996714,181.0695900999708,180.06718929996714,181.0695900999708,right,1,180.06718929996714,None,180.06718929996714,None,180.06718929996714,180.56843139999546,180.06718929996714,180.56843139999546,180.06718929996714,180.56843139999546,180.06718929996714,180.56843139999546,180.06718929996714,None,0.28337819990701973,,,,,,,,,,,,,,,,,,,,,,,,,,,,,,,,,,,,,,,,,,11016,001,2024_Jan_04_1358,nback,2021.2.3,59.76600413999689,
1-back,instructions\back-1.png,conditions\1back-p.xlsx,instructions\1-BACK.png,"(25, 15)",practice,1,4,stim\gray.png,stim\gray.png,stim\gray.png,stim\yellow.png,right,0,0,0,0,0,1,1,1,0,9,9,9,,,,,,,,,,,,,,,,,,,,,,,,,,,181.57003269996494,182.57168829999864,181.57003269996494,182.57168829999864,181.57003269996494,182.57168829999864,181.57003269996494,182.57168829999864,right,1,181.57003269996494,None,181.57003269996494,None,181.57003269996494,182.07021539995912,181.57003269996494,182.07021539995912,181.57003269996494,182.07021539995912,181.57003269996494,182.07021539995912,181.57003269996494,None,0.3005061000585556,,,,,,,,,,,,,,,,,,,,,,,,,,,,,,,,,,,,,,,,,,11016,001,2024_Jan_04_1358,nback,2021.2.3,59.76600413999689,
1-back,instructions\back-1.png,conditions\1back-p.xlsx,instructions\1-BACK.png,"(25, 15)",practice,1,1,stim\yellow.png,stim\gray.png,stim\gray.png,stim\gray.png,down,0,0,0,0,0,1,1,1,0,10,10,10,,,,,,,,,,,,,,,,,,,,,,,,,,,183.07153129996732,184.07362399995327,183.07153129996732,184.07362399995327,183.07153129996732,184.07362399995327,183.07153129996732,184.07362399995327,down,1,183.07153129996732,None,183.07153129996732,None,183.07153129996732,183.57238909997977,183.07153129996732,183.57238909997977,183.07153129996732,183.57238909997977,183.07153129996732,183.57238909997977,183.07153129996732,None,0.34251030010636896,,,,,,,,,,,,,,,,,,,,,,,,,,,,,,,,,,,,,,,,,,11016,001,2024_Jan_04_1358,nback,2021.2.3,59.76600413999689,
1-back,instructions\back-1.png,conditions\1back-p.xlsx,instructions\1-BACK.png,"(25, 15)",practice,1,2,stim\gray.png,stim\yellow.png,stim\gray.png,stim\gray.png,up,0,0,0,0,0,1,1,1,0,11,11,11,,,,,,,,,,,,,,,,,,,,,,,,,,,184.57430690003093,185.5758445999818,184.57430690003093,185.5758445999818,184.57430690003093,185.5758445999818,184.57430690003093,185.5758445999818,up,1,184.57430690003093,None,184.57430690003093,None,184.57430690003093,185.0757106000092,184.57430690003093,185.0757106000092,184.57430690003093,185.0757106000092,184.57430690003093,185.0757106000092,184.57430690003093,None,0.26448619994334877,,,,,,,,,,,,,,,,,,,,,,,,,,,,,,,,,,,,,,,,,,11016,001,2024_Jan_04_1358,nback,2021.2.3,59.76600413999689,
1-back,instructions\back-1.png,conditions\1back-p.xlsx,instructions\1-BACK.png,"(25, 15)",practice,1,4,stim\gray.png,stim\gray.png,stim\gray.png,stim\yellow.png,left,0,0,0,0,0,1,1,1,0,12,12,12,,,,,,,,,,,,,,,,,,,,,,,,,,,186.07596829999238,187.07727440004237,186.07596829999238,187.07727440004237,186.07596829999238,187.07727440004237,186.07596829999238,187.07727440004237,left,1,186.07596829999238,None,186.07596829999238,None,186.07596829999238,186.57727220002562,186.07596829999238,186.57727220002562,186.07596829999238,186.57727220002562,186.07596829999238,186.57727220002562,186.07596829999238,None,0.30627170007210225,,,,,,,,,,,,,,,,,,,,,,,,,,,,,,,,,,,,,,,,,,11016,001,2024_Jan_04_1358,nback,2021.2.3,59.76600413999689,
1-back,instructions\back-1.png,conditions\1back-p.xlsx,instructions\1-BACK.png,"(25, 15)",practice,1,3,stim\gray.png,stim\gray.png,stim\yellow.png,stim\gray.png,down,0,0,0,0,0,1,1,1,0,13,13,13,,,,,,,,,,,,,,,,,,,,,,,,,,,187.57830259995535,188.58034470002167,187.57830259995535,188.58034470002167,187.57830259995535,188.58034470002167,187.57830259995535,188.58034470002167,down,1,187.57830259995535,None,187.57830259995535,None,187.57830259995535,188.07955899997614,187.57830259995535,188.07955899997614,187.57830259995535,188.07955899997614,187.57830259995535,188.07955899997614,187.57830259995535,None,0.30770829995162785,,,,,,,,,,,,,,,,,,,,,,,,,,,,,,,,,,,,,,,,,,11016,001,2024_Jan_04_1358,nback,2021.2.3,59.76600413999689,
1-back,instructions\back-1.png,conditions\1back-p.xlsx,instructions\1-BACK.png,"(25, 15)",practice,1,1,stim\yellow.png,stim\gray.png,stim\gray.png,stim\gray.png,right,0,0,0,0,0,1,1,1,0,14,14,14,,,,,,,,,,,,,,,,,,,,,,,,,,,189.06369360000826,190.0653905000072,189.06369360000826,190.0653905000072,189.06369360000826,190.0653905000072,189.06369360000826,190.0653905000072,right,1,189.06369360000826,None,189.06369360000826,None,189.06369360000826,189.5651521999389,189.06369360000826,189.5651521999389,189.06369360000826,189.5651521999389,189.06369360000826,189.5651521999389,189.06369360000826,None,0.30223830009344965,,,,,,,,,,,,,,,,,,,,,,,,,,,,,,,,,,,,,,,,,,11016,001,2024_Jan_04_1358,nback,2021.2.3,59.76600413999689,
1-back,instructions\back-1.png,conditions\1back-p.xlsx,instructions\1-BACK.png,"(25, 15)",practice,1,2,stim\gray.png,stim\yellow.png,stim\gray.png,stim\gray.png,up,0,0,0,0,0,1,1,1,0,15,15,15,,,,,,,,,,,,,,,,,,,,,,,,,,,190.56670079997275,191.5677920000162,190.56670079997275,191.5677920000162,190.56670079997275,191.5677920000162,190.56670079997275,191.5677920000162,up,1,190.56670079997275,None,190.56670079997275,None,190.56670079997275,191.06789509998634,190.56670079997275,191.06789509998634,190.56670079997275,191.06789509998634,190.56670079997275,191.06789509998634,190.56670079997275,None,0.30337930005043745,,,,,,,,,,,,,,,,,,,,,,,,,,,,,,,,,,,,,,,,,,11016,001,2024_Jan_04_1358,nback,2021.2.3,59.76600413999689,
1-back,instructions\back-1.png,conditions\1back-p.xlsx,instructions\1-BACK.png,"(25, 15)",practice,1,3,stim\gray.png,stim\gray.png,stim\yellow.png,stim\gray.png,left,0,0,0,0,0,1,1,1,0,16,16,16,,,,,,,,,,,,,,,,,,,,,,,,,,,192.068181599956,193.06984300003387,192.068181599956,193.06984300003387,192.068181599956,193.06984300003387,192.068181599956,193.06984300003387,left,1,192.068181599956,None,192.068181599956,None,192.068181599956,192.57046660000924,192.068181599956,192.57046660000924,192.068181599956,192.57046660000924,192.068181599956,192.57046660000924,192.068181599956,None,0.39373220002744347,,,,,,,,,,,,,,,,,,,,,,,,,,,,,,,,,,,,,,,,,,11016,001,2024_Jan_04_1358,nback,2021.2.3,59.76600413999689,
1-back,instructions\back-1.png,conditions\1back-p.xlsx,instructions\1-BACK.png,"(25, 15)",practice,1,1,stim\yellow.png,stim\gray.png,stim\gray.png,stim\gray.png,right,0,0,0,0,0,1,1,1,0,17,17,17,,,,,,,,,,,,,,,,,,,,,,,,,,,193.57105130003765,194.57352269999683,193.57105130003765,194.57352269999683,193.57105130003765,194.57352269999683,193.57105130003765,194.57352269999683,right,1,193.57105130003765,None,193.57105130003765,None,193.57105130003765,194.0721355000278,193.57105130003765,194.0721355000278,193.57105130003765,194.0721355000278,193.57105130003765,194.0721355000278,193.57105130003765,None,0.3470677000004798,,,,,,,,,,,,,,,,,,,,,,,,,,,,,,,,,,,,,,,,,,11016,001,2024_Jan_04_1358,nback,2021.2.3,59.76600413999689,
1-back,instructions\back-1.png,conditions\1back-p.xlsx,instructions\1-BACK.png,"(25, 15)",practice,1,4,stim\gray.png,stim\gray.png,stim\gray.png,stim\yellow.png,up,0,0,0,0,0,1,1,1,0,18,18,18,,,,,,,,,,,,,,,,,,,,,,,,,,,195.07313379994594,196.0746008999413,195.07313379994594,196.0746008999413,195.07313379994594,196.0746008999413,195.07313379994594,196.0746008999413,up,1,195.07313379994594,None,195.07313379994594,None,195.07313379994594,195.57424770004582,195.07313379994594,195.57424770004582,195.07313379994594,195.57424770004582,195.07313379994594,195.57424770004582,195.07313379994594,None,0.3812470999546349,,,,,,,,,,,,,,,,,,,,,,,,,,,,,,,,,,,,,,,,,,11016,001,2024_Jan_04_1358,nback,2021.2.3,59.76600413999689,
1-back,instructions\back-1.png,conditions\1back-p.xlsx,instructions\1-BACK.png,"(25, 15)",practice,1,2,stim\gray.png,stim\yellow.png,stim\gray.png,stim\gray.png,down,0,0,0,0,0,1,1,1,0,19,19,19,,,,,,,,,,,,,,,,,,,,,,,,,,,196.57536919997074,197.57666260004044,196.57536919997074,197.57666260004044,196.57536919997074,197.57666260004044,196.57536919997074,197.57666260004044,down,1,196.57536919997074,None,196.57536919997074,None,196.57536919997074,197.07567449996714,196.57536919997074,197.07567449996714,196.57536919997074,197.07567449996714,196.57536919997074,197.07567449996714,196.57536919997074,None,0.4390772000188008,,,,,,,,,,,,,,,,,,,,,,,,,,,,,,,,,,,,,,,,,,11016,001,2024_Jan_04_1358,nback,2021.2.3,59.76600413999689,
1-back,instructions\back-1.png,conditions\1back-p.xlsx,instructions\1-BACK.png,"(25, 15)",,,,,,,,,0,0,0,0,0,1,1,1,,,,,,,,,,,,,,,,,,,,,,,,,,,,,,,,,,,,,,,,,,,,,,,,,,,,,,,,,,,,,,,,,,,,,,,,,,,,,,,,,,,,,,,,,,,,,,,,,11016,001,2024_Jan_04_1358,nback,2021.2.3,59.76600413999689,
2-back,instructions\back-2.png,conditions\2back-p.xlsx,instructions\2-BACK.png,"(25, 15)",practice,2,1,stim\yellow.png,stim\gray.png,stim\gray.png,stim\gray.png,None,0,0,0,0,0,2,2,2,0,0,0,0,,,,,,,,,,,,,,,,,198.19316499994602,None,space,8.300792799913324,198.19316499994602,None,206.67319959995802,211.18211169994902,211.13116280001123,None,211.54861980001442,212.54857470002025,211.54861980001442,212.54857470002025,211.54861980001442,212.54857470002025,211.54861980001442,212.54857470002025,None,1,211.54861980001442,None,211.54861980001442,None,211.54861980001442,212.04810549994,211.54861980001442,212.04810549994,211.54861980001442,212.04810549994,211.54861980001442,212.04810549994,211.54861980001442,None,,,,,,,,,,,,,,,,,,,,,,,,,,,,,,,,,,,,,,,,,,,11016,001,2024_Jan_04_1358,nback,2021.2.3,59.76600413999689,
2-back,instructions\back-2.png,conditions\2back-p.xlsx,instructions\2-BACK.png,"(25, 15)",practice,2,2,stim\gray.png,stim\yellow.png,stim\gray.png,stim\gray.png,None,0,0,0,0,0,2,2,2,0,1,1,1,,,,,,,,,,,,,,,,,,,,,,,,,,,213.03264049999416,214.03449580003507,213.03264049999416,214.03449580003507,213.03264049999416,214.03449580003507,213.03264049999416,214.03449580003507,None,1,213.03264049999416,None,213.03264049999416,None,213.03264049999416,213.53380720003042,213.03264049999416,213.53380720003042,213.03264049999416,213.53380720003042,213.03264049999416,213.53380720003042,213.03264049999416,None,,,,,,,,,,,,,,,,,,,,,,,,,,,,,,,,,,,,,,,,,,,11016,001,2024_Jan_04_1358,nback,2021.2.3,59.76600413999689,
2-back,instructions\back-2.png,conditions\2back-p.xlsx,instructions\2-BACK.png,"(25, 15)",practice,2,3,stim\gray.png,stim\gray.png,stim\yellow.png,stim\gray.png,up,0,0,0,0,0,2,2,2,0,2,2,2,,,,,,,,,,,,,,,,,,,,,,,,,,,214.5349036999978,215.53730460000224,214.5349036999978,215.53730460000224,214.5349036999978,215.53730460000224,214.5349036999978,215.53730460000224,up,1,214.5349036999978,None,214.5349036999978,None,214.5349036999978,215.0362838000292,214.5349036999978,215.0362838000292,214.5349036999978,215.0362838000292,214.5349036999978,215.0362838000292,214.5349036999978,None,0.4000334000447765,,,,,,,,,,,,,,,,,,,,,,,,,,,,,,,,,,,,,,,,,,11016,001,2024_Jan_04_1358,nback,2021.2.3,59.76600413999689,
2-back,instructions\back-2.png,conditions\2back-p.xlsx,instructions\2-BACK.png,"(25, 15)",practice,2,4,stim\gray.png,stim\gray.png,stim\gray.png,stim\yellow.png,left,0,0,0,0,0,2,2,2,0,3,3,3,,,,,,,,,,,,,,,,,,,,,,,,,,,216.0371654999908,217.03874700004235,216.0371654999908,217.03874700004235,216.0371654999908,217.03874700004235,216.0371654999908,217.03874700004235,left,1,216.0371654999908,None,216.0371654999908,None,216.0371654999908,216.537898199982,216.0371654999908,216.537898199982,216.0371654999908,216.537898199982,216.0371654999908,216.537898199982,216.0371654999908,None,0.32894899998791516,,,,,,,,,,,,,,,,,,,,,,,,,,,,,,,,,,,,,,,,,,11016,001,2024_Jan_04_1358,nback,2021.2.3,59.76600413999689,
2-back,instructions\back-2.png,conditions\2back-p.xlsx,instructions\2-BACK.png,"(25, 15)",practice,2,2,stim\gray.png,stim\yellow.png,stim\gray.png,stim\gray.png,right,0,0,0,0,0,2,2,2,0,4,4,4,,,,,,,,,,,,,,,,,,,,,,,,,,,217.5392228999408,218.54089359997306,217.5392228999408,218.54089359997306,217.5392228999408,218.54089359997306,217.5392228999408,218.54089359997306,right,1,217.5392228999408,None,217.5392228999408,None,217.5392228999408,218.04062580002937,217.5392228999408,218.04062580002937,217.5392228999408,218.04062580002937,217.5392228999408,218.04062580002937,217.5392228999408,None,0.3388555001001805,,,,,,,,,,,,,,,,,,,,,,,,,,,,,,,,,,,,,,,,,,11016,001,2024_Jan_04_1358,nback,2021.2.3,59.76600413999689,
2-back,instructions\back-2.png,conditions\2back-p.xlsx,instructions\2-BACK.png,"(25, 15)",practice,2,1,stim\yellow.png,stim\gray.png,stim\gray.png,stim\gray.png,down,0,0,0,0,0,2,2,2,0,5,5,5,,,,,,,,,,,,,,,,,,,,,,,,,,,219.04156040004455,220.04392430000007,219.04156040004455,220.04392430000007,219.04156040004455,220.04392430000007,219.04156040004455,220.04392430000007,down,1,219.04156040004455,None,219.04156040004455,None,219.04156040004455,219.5431149000069,219.04156040004455,219.5431149000069,219.04156040004455,219.5431149000069,219.04156040004455,219.5431149000069,219.04156040004455,None,0.29235309991054237,,,,,,,,,,,,,,,,,,,,,,,,,,,,,,,,,,,,,,,,,,11016,001,2024_Jan_04_1358,nback,2021.2.3,59.76600413999689,
2-back,instructions\back-2.png,conditions\2back-p.xlsx,instructions\2-BACK.png,"(25, 15)",practice,2,4,stim\gray.png,stim\gray.png,stim\gray.png,stim\yellow.png,left,0,0,0,0,0,2,2,2,0,6,6,6,,,,,,,,,,,,,,,,,,,,,,,,,,,220.54400370002259,221.5459175000433,220.54400370002259,221.5459175000433,220.54400370002259,221.5459175000433,220.54400370002259,221.5459175000433,left,1,220.54400370002259,None,220.54400370002259,None,220.54400370002259,221.04540639999323,220.54400370002259,221.04540639999323,220.54400370002259,221.04540639999323,220.54400370002259,221.04540639999323,220.54400370002259,None,0.4379418999888003,,,,,,,,,,,,,,,,,,,,,,,,,,,,,,,,,,,,,,,,,,11016,001,2024_Jan_04_1358,nback,2021.2.3,59.76600413999689,
2-back,instructions\back-2.png,conditions\2back-p.xlsx,instructions\2-BACK.png,"(25, 15)",practice,2,3,stim\gray.png,stim\gray.png,stim\yellow.png,stim\gray.png,up,0,0,0,0,0,2,2,2,0,7,7,7,,,,,,,,,,,,,,,,,,,,,,,,,,,222.02933339995798,223.03067260002717,222.02933339995798,223.03067260002717,222.02933339995798,223.03067260002717,222.02933339995798,223.03067260002717,up,1,222.02933339995798,None,222.02933339995798,None,222.02933339995798,222.52999139996246,222.02933339995798,222.52999139996246,222.02933339995798,222.52999139996246,222.02933339995798,222.52999139996246,222.02933339995798,None,0.37666049995459616,,,,,,,,,,,,,,,,,,,,,,,,,,,,,,,,,,,,,,,,,,11016,001,2024_Jan_04_1358,nback,2021.2.3,59.76600413999689,
2-back,instructions\back-2.png,conditions\2back-p.xlsx,instructions\2-BACK.png,"(25, 15)",practice,2,3,stim\gray.png,stim\gray.png,stim\yellow.png,stim\gray.png,down,0,0,0,0,0,2,2,2,0,8,8,8,,,,,,,,,,,,,,,,,,,,,,,,,,,223.53158129996154,224.5329514000332,223.53158129996154,224.5329514000332,223.53158129996154,224.5329514000332,223.53158129996154,224.5329514000332,down,1,223.53158129996154,None,223.53158129996154,None,223.53158129996154,224.03228199994192,223.53158129996154,224.03228199994192,223.53158129996154,224.03228199994192,223.53158129996154,224.03228199994192,223.53158129996154,None,0.5467724000336602,,,,,,,,,,,,,,,,,,,,,,,,,,,,,,,,,,,,,,,,,,11016,001,2024_Jan_04_1358,nback,2021.2.3,59.76600413999689,
2-back,instructions\back-2.png,conditions\2back-p.xlsx,instructions\2-BACK.png,"(25, 15)",practice,2,4,stim\gray.png,stim\gray.png,stim\gray.png,stim\yellow.png,right,0,0,0,0,0,2,2,2,0,9,9,9,,,,,,,,,,,,,,,,,,,,,,,,,,,225.03377510001883,226.03530079999473,225.03377510001883,226.03530079999473,225.03377510001883,226.03530079999473,225.03377510001883,226.03530079999473,right,1,225.03377510001883,None,225.03377510001883,None,225.03377510001883,225.53462469996884,225.03377510001883,225.53462469996884,225.03377510001883,225.53462469996884,225.03377510001883,225.53462469996884,225.03377510001883,None,0.46816669998224825,,,,,,,,,,,,,,,,,,,,,,,,,,,,,,,,,,,,,,,,,,11016,001,2024_Jan_04_1358,nback,2021.2.3,59.76600413999689,
2-back,instructions\back-2.png,conditions\2back-p.xlsx,instructions\2-BACK.png,"(25, 15)",practice,2,1,stim\yellow.png,stim\gray.png,stim\gray.png,stim\gray.png,right,0,0,0,0,0,2,2,2,0,10,10,10,,,,,,,,,,,,,,,,,,,,,,,,,,,226.53676249994896,227.53824629995506,226.53676249994896,227.53824629995506,226.53676249994896,227.53824629995506,226.53676249994896,227.53824629995506,right,1,226.53676249994896,None,226.53676249994896,None,226.53676249994896,227.03691080003045,226.53676249994896,227.03691080003045,226.53676249994896,227.03691080003045,226.53676249994896,227.03691080003045,226.53676249994896,None,0.3733685000333935,,,,,,,,,,,,,,,,,,,,,,,,,,,,,,,,,,,,,,,,,,11016,001,2024_Jan_04_1358,nback,2021.2.3,59.76600413999689,
2-back,instructions\back-2.png,conditions\2back-p.xlsx,instructions\2-BACK.png,"(25, 15)",practice,2,2,stim\gray.png,stim\yellow.png,stim\gray.png,stim\gray.png,down,0,0,0,0,0,2,2,2,0,11,11,11,,,,,,,,,,,,,,,,,,,,,,,,,,,228.03819889994338,229.03980200004298,228.03819889994338,229.03980200004298,228.03819889994338,229.03980200004298,228.03819889994338,229.03980200004298,down,1,228.03819889994338,None,228.03819889994338,None,228.03819889994338,228.53879709995817,228.03819889994338,228.53879709995817,228.03819889994338,228.53879709995817,228.03819889994338,228.53879709995817,228.03819889994338,None,0.4078021999448538,,,,,,,,,,,,,,,,,,,,,,,,,,,,,,,,,,,,,,,,,,11016,001,2024_Jan_04_1358,nback,2021.2.3,59.76600413999689,
2-back,instructions\back-2.png,conditions\2back-p.xlsx,instructions\2-BACK.png,"(25, 15)",practice,2,4,stim\gray.png,stim\gray.png,stim\gray.png,stim\yellow.png,up,0,0,0,0,0,2,2,2,0,12,12,12,,,,,,,,,,,,,,,,,,,,,,,,,,,229.54070200002752,230.54179109993856,229.54070200002752,230.54179109993856,229.54070200002752,230.54179109993856,229.54070200002752,230.54179109993856,up,1,229.54070200002752,None,229.54070200002752,None,229.54070200002752,230.04183819994796,229.54070200002752,230.04183819994796,229.54070200002752,230.04183819994796,229.54070200002752,230.04183819994796,229.54070200002752,None,0.26632089994382113,,,,,,,,,,,,,,,,,,,,,,,,,,,,,,,,,,,,,,,,,,11016,001,2024_Jan_04_1358,nback,2021.2.3,59.76600413999689,
2-back,instructions\back-2.png,conditions\2back-p.xlsx,instructions\2-BACK.png,"(25, 15)",practice,2,3,stim\gray.png,stim\gray.png,stim\yellow.png,stim\gray.png,left,0,0,0,0,0,2,2,2,0,13,13,13,,,,,,,,,,,,,,,,,,,,,,,,,,,231.0426443000324,232.04404860001523,231.0426443000324,232.04404860001523,231.0426443000324,232.04404860001523,231.0426443000324,232.04404860001523,left,1,231.0426443000324,None,231.0426443000324,None,231.0426443000324,231.5439632999478,231.0426443000324,231.5439632999478,231.0426443000324,231.5439632999478,231.0426443000324,231.5439632999478,231.0426443000324,None,0.20332039997447282,,,,,,,,,,,,,,,,,,,,,,,,,,,,,,,,,,,,,,,,,,11016,001,2024_Jan_04_1358,nback,2021.2.3,59.76600413999689,
2-back,instructions\back-2.png,conditions\2back-p.xlsx,instructions\2-BACK.png,"(25, 15)",practice,2,1,stim\yellow.png,stim\gray.png,stim\gray.png,stim\gray.png,down,0,0,0,0,0,2,2,2,0,14,14,14,,,,,,,,,,,,,,,,,,,,,,,,,,,232.54496470000595,233.5463260000106,232.54496470000595,233.5463260000106,232.54496470000595,233.5463260000106,232.54496470000595,233.5463260000106,down,1,232.54496470000595,None,232.54496470000595,None,232.54496470000595,233.04565089999232,232.54496470000595,233.04565089999232,232.54496470000595,233.04565089999232,232.54496470000595,233.04565089999232,232.54496470000595,None,0.17317079997155815,,,,,,,,,,,,,,,,,,,,,,,,,,,,,,,,,,,,,,,,,,11016,001,2024_Jan_04_1358,nback,2021.2.3,59.76600413999689,
2-back,instructions\back-2.png,conditions\2back-p.xlsx,instructions\2-BACK.png,"(25, 15)",practice,2,2,stim\gray.png,stim\yellow.png,stim\gray.png,stim\gray.png,right,0,0,0,0,0,2,2,2,0,15,15,15,,,,,,,,,,,,,,,,,,,,,,,,,,,234.03025640000124,235.03249210002832,234.03025640000124,235.03249210002832,234.03025640000124,235.03249210002832,234.03025640000124,235.03249210002832,right,1,234.03025640000124,None,234.03025640000124,None,234.03025640000124,234.53129850002006,234.03025640000124,234.53129850002006,234.03025640000124,234.53129850002006,234.03025640000124,234.53129850002006,234.03025640000124,None,0.14371029997710139,,,,,,,,,,,,,,,,,,,,,,,,,,,,,,,,,,,,,,,,,,11016,001,2024_Jan_04_1358,nback,2021.2.3,59.76600413999689,
2-back,instructions\back-2.png,conditions\2back-p.xlsx,instructions\2-BACK.png,"(25, 15)",practice,2,3,stim\gray.png,stim\gray.png,stim\yellow.png,stim\gray.png,up,0,0,0,0,0,2,2,2,0,16,16,16,,,,,,,,,,,,,,,,,,,,,,,,,,,235.5326875000028,236.53416629997082,235.5326875000028,236.53416629997082,235.5326875000028,236.53416629997082,235.5326875000028,236.53416629997082,up,1,235.5326875000028,None,235.5326875000028,None,235.5326875000028,236.0334872000385,235.5326875000028,236.0334872000385,235.5326875000028,236.0334872000385,235.5326875000028,236.0334872000385,235.5326875000028,None,0.23353329999372363,,,,,,,,,,,,,,,,,,,,,,,,,,,,,,,,,,,,,,,,,,11016,001,2024_Jan_04_1358,nback,2021.2.3,59.76600413999689,
2-back,instructions\back-2.png,conditions\2back-p.xlsx,instructions\2-BACK.png,"(25, 15)",practice,2,1,stim\yellow.png,stim\gray.png,stim\gray.png,stim\gray.png,left,0,0,0,0,0,2,2,2,0,17,17,17,,,,,,,,,,,,,,,,,,,,,,,,,,,237.03486450004857,238.03644299996085,237.03486450004857,238.03644299996085,237.03486450004857,238.03644299996085,237.03486450004857,238.03644299996085,right,0,237.03486450004857,None,237.03486450004857,None,237.03486450004857,237.53653529996518,237.03486450004857,237.53653529996518,237.03486450004857,237.53653529996518,237.03486450004857,237.53653529996518,237.03486450004857,None,1.4515677000163123,,,,,,,,,,,,,,,,,,,,,,,,,,,,,,,,,,,,,,,,,,11016,001,2024_Jan_04_1358,nback,2021.2.3,59.76600413999689,
2-back,instructions\back-2.png,conditions\2back-p.xlsx,instructions\2-BACK.png,"(25, 15)",practice,2,4,stim\gray.png,stim\gray.png,stim\gray.png,stim\yellow.png,right,0,0,0,0,0,2,2,2,0,18,18,18,,,,,,,,,,,,,,,,,,,,,,,,,,,238.5371178999776,239.53955059999134,238.5371178999776,239.53955059999134,238.5371178999776,239.53955059999134,238.5371178999776,239.53955059999134,None,0,238.5371178999776,None,238.5371178999776,None,238.5371178999776,239.03768930002116,238.5371178999776,239.03768930002116,238.5371178999776,239.03768930002116,238.5371178999776,239.03768930002116,238.5371178999776,None,,,,,,,,,,,,,,,,,,,,,,,,,,,,,,,,,,,,,,,,,,,11016,001,2024_Jan_04_1358,nback,2021.2.3,59.76600413999689,
2-back,instructions\back-2.png,conditions\2back-p.xlsx,instructions\2-BACK.png,"(25, 15)",practice,2,2,stim\gray.png,stim\yellow.png,stim\gray.png,stim\gray.png,up,0,0,0,0,0,2,2,2,0,19,19,19,,,,,,,,,,,,,,,,,,,,,,,,,,,240.03992130002007,241.0416826000437,240.03992130002007,241.0416826000437,240.03992130002007,241.0416826000437,240.03992130002007,241.0416826000437,up,1,240.03992130002007,None,240.03992130002007,None,240.03992130002007,240.5401860999409,240.03992130002007,240.5401860999409,240.03992130002007,240.5401860999409,240.03992130002007,240.5401860999409,240.03992130002007,None,0.030594300013035536,,,,,,,,,,,,,,,,,,,,,,,,,,,,,,,,,,,,,,,,,,11016,001,2024_Jan_04_1358,nback,2021.2.3,59.76600413999689,
2-back,instructions\back-2.png,conditions\2back-p.xlsx,instructions\2-BACK.png,"(25, 15)",,,,,,,,,0,0,0,0,0,2,2,2,,,,,,,,,,,,,,,,,,,,,,,,,,,,,,,,,,,,,,,,,,,,,,,,,,,,,,,,,,,,,,,,,,,,,,,,,,,,,,,,,,,,,,,,,,,,,,,,,11016,001,2024_Jan_04_1358,nback,2021.2.3,59.76600413999689,
,,,,,,,,,,,,,0,0,0,0,,,,,,,,,,,,,,,,,,,,,,,,,,,,,,,,,,,,,,,,,,,,,,,,,,,,,,,,,,,,241.5419230000116,None,s,44.1925501000369,241.5419230000116,None,,,,,,,,,,,,,,,,,,,,,,,,,,,,,,,,,,,,11016,001,2024_Jan_04_1358,nback,2021.2.3,59.76600413999689,
0-back,instructions\back-0.png,conditions\0back-p.xlsx,instructions\0-BACK.png,"(15, 8)",practice,0,1,stim\yellow.png,stim\gray.png,stim\gray.png,stim\gray.png,up,1,0,1,0,0,0,0,0,0,0,0,0,,,,,,,,,,,,,,,,,285.8740325999679,None,space,5.756098999991082,285.8740325999679,None,291.8158929999918,296.32370509998873,296.2732059999835,None,296.67327559995465,297.6749184000073,296.67327559995465,297.6749184000073,296.67327559995465,297.6749184000073,296.67327559995465,297.6749184000073,up,1,296.67327559995465,None,296.67327559995465,None,296.67327559995465,297.1739260000177,296.67327559995465,297.1739260000177,296.67327559995465,297.1739260000177,296.67327559995465,297.1739260000177,296.67327559995465,None,0.4768042000941932,,,,,,,,,,,,,,,,,,,,,,,,,,,,,,,,,,,,,,,,,,11016,001,2024_Jan_04_1358,nback,2021.2.3,59.76600413999689,
0-back,instructions\back-0.png,conditions\0back-p.xlsx,instructions\0-BACK.png,"(15, 8)",practice,0,2,stim\gray.png,stim\yellow.png,stim\gray.png,stim\gray.png,left,1,0,1,0,0,0,0,0,0,1,1,1,,,,,,,,,,,,,,,,,,,,,,,,,,,298.1588085000403,299.160151100019,298.1588085000403,299.160151100019,298.1588085000403,299.160151100019,298.1588085000403,299.160151100019,left,1,298.1588085000403,None,298.1588085000403,None,298.1588085000403,298.6595889000455,298.1588085000403,298.6595889000455,298.1588085000403,298.6595889000455,298.1588085000403,298.6595889000455,298.1588085000403,None,0.46376559999771416,,,,,,,,,,,,,,,,,,,,,,,,,,,,,,,,,,,,,,,,,,11016,001,2024_Jan_04_1358,nback,2021.2.3,59.76600413999689,
0-back,instructions\back-0.png,conditions\0back-p.xlsx,instructions\0-BACK.png,"(15, 8)",practice,0,3,stim\gray.png,stim\gray.png,stim\yellow.png,stim\gray.png,right,1,0,1,0,0,0,0,0,0,2,2,2,,,,,,,,,,,,,,,,,,,,,,,,,,,299.66120680002496,300.6624357999535,299.66120680002496,300.6624357999535,299.66120680002496,300.6624357999535,299.66120680002496,300.6624357999535,right,1,299.66120680002496,None,299.66120680002496,None,299.66120680002496,300.1621771999635,299.66120680002496,300.1621771999635,299.66120680002496,300.1621771999635,299.66120680002496,300.1621771999635,299.66120680002496,None,0.3695624000392854,,,,,,,,,,,,,,,,,,,,,,,,,,,,,,,,,,,,,,,,,,11016,001,2024_Jan_04_1358,nback,2021.2.3,59.76600413999689,
0-back,instructions\back-0.png,conditions\0back-p.xlsx,instructions\0-BACK.png,"(15, 8)",practice,0,4,stim\gray.png,stim\gray.png,stim\gray.png,stim\yellow.png,down,1,0,1,0,0,0,0,0,0,3,3,3,,,,,,,,,,,,,,,,,,,,,,,,,,,301.16302770003676,302.16513300000224,301.16302770003676,302.16513300000224,301.16302770003676,302.16513300000224,301.16302770003676,302.16513300000224,down,1,301.16302770003676,None,301.16302770003676,None,301.16302770003676,301.6647442999529,301.16302770003676,301.6647442999529,301.16302770003676,301.6647442999529,301.16302770003676,301.6647442999529,301.16302770003676,None,0.38704719999805093,,,,,,,,,,,,,,,,,,,,,,,,,,,,,,,,,,,,,,,,,,11016,001,2024_Jan_04_1358,nback,2021.2.3,59.76600413999689,
0-back,instructions\back-0.png,conditions\0back-p.xlsx,instructions\0-BACK.png,"(15, 8)",practice,0,2,stim\gray.png,stim\yellow.png,stim\gray.png,stim\gray.png,left,1,0,1,0,0,0,0,0,0,4,4,4,,,,,,,,,,,,,,,,,,,,,,,,,,,302.66538340004627,303.66733500000555,302.66538340004627,303.66733500000555,302.66538340004627,303.66733500000555,302.66538340004627,303.66733500000555,left,1,302.66538340004627,None,302.66538340004627,None,302.66538340004627,303.16650579997804,302.66538340004627,303.16650579997804,302.66538340004627,303.16650579997804,302.66538340004627,303.16650579997804,302.66538340004627,None,0.30872629990335554,,,,,,,,,,,,,,,,,,,,,,,,,,,,,,,,,,,,,,,,,,11016,001,2024_Jan_04_1358,nback,2021.2.3,59.76600413999689,
0-back,instructions\back-0.png,conditions\0back-p.xlsx,instructions\0-BACK.png,"(15, 8)",practice,0,1,stim\yellow.png,stim\gray.png,stim\gray.png,stim\gray.png,up,1,0,1,0,0,0,0,0,0,5,5,5,,,,,,,,,,,,,,,,,,,,,,,,,,,304.1683494000463,305.16913649998605,304.1683494000463,305.16913649998605,304.1683494000463,305.16913649998605,304.1683494000463,305.16913649998605,up,1,304.1683494000463,None,304.1683494000463,None,304.1683494000463,304.66976730001625,304.1683494000463,304.66976730001625,304.1683494000463,304.66976730001625,304.1683494000463,304.66976730001625,304.1683494000463,None,0.2939213999779895,,,,,,,,,,,,,,,,,,,,,,,,,,,,,,,,,,,,,,,,,,11016,001,2024_Jan_04_1358,nback,2021.2.3,59.76600413999689,
0-back,instructions\back-0.png,conditions\0back-p.xlsx,instructions\0-BACK.png,"(15, 8)",practice,0,4,stim\gray.png,stim\gray.png,stim\gray.png,stim\yellow.png,down,1,0,1,0,0,0,0,0,0,6,6,6,,,,,,,,,,,,,,,,,,,,,,,,,,,305.6536358000012,306.6554049999686,305.6536358000012,306.6554049999686,305.6536358000012,306.6554049999686,305.6536358000012,306.6554049999686,down,1,305.6536358000012,None,305.6536358000012,None,305.6536358000012,306.15427599998657,305.6536358000012,306.15427599998657,305.6536358000012,306.15427599998657,305.6536358000012,306.15427599998657,305.6536358000012,None,0.5767054000170901,,,,,,,,,,,,,,,,,,,,,,,,,,,,,,,,,,,,,,,,,,11016,001,2024_Jan_04_1358,nback,2021.2.3,59.76600413999689,
0-back,instructions\back-0.png,conditions\0back-p.xlsx,instructions\0-BACK.png,"(15, 8)",practice,0,3,stim\gray.png,stim\gray.png,stim\yellow.png,stim\gray.png,right,1,0,1,0,0,0,0,0,0,7,7,7,,,,,,,,,,,,,,,,,,,,,,,,,,,307.15540329995565,308.1575661000097,307.15540329995565,308.1575661000097,307.15540329995565,308.1575661000097,307.15540329995565,308.1575661000097,right,1,307.15540329995565,None,307.15540329995565,None,307.15540329995565,307.65626880002674,307.15540329995565,307.65626880002674,307.15540329995565,307.65626880002674,307.15540329995565,307.65626880002674,307.15540329995565,None,0.3387867999263108,,,,,,,,,,,,,,,,,,,,,,,,,,,,,,,,,,,,,,,,,,11016,001,2024_Jan_04_1358,nback,2021.2.3,59.76600413999689,
0-back,instructions\back-0.png,conditions\0back-p.xlsx,instructions\0-BACK.png,"(15, 8)",practice,0,3,stim\gray.png,stim\gray.png,stim\yellow.png,stim\gray.png,right,1,0,1,0,0,0,0,0,0,8,8,8,,,,,,,,,,,,,,,,,,,,,,,,,,,308.65793959994335,309.65955540002324,308.65793959994335,309.65955540002324,308.65793959994335,309.65955540002324,308.65793959994335,309.65955540002324,right,1,308.65793959994335,None,308.65793959994335,None,308.65793959994335,309.1583710999694,308.65793959994335,309.1583710999694,308.65793959994335,309.1583710999694,308.65793959994335,309.1583710999694,308.65793959994335,None,0.39628210000228137,,,,,,,,,,,,,,,,,,,,,,,,,,,,,,,,,,,,,,,,,,11016,001,2024_Jan_04_1358,nback,2021.2.3,59.76600413999689,
0-back,instructions\back-0.png,conditions\0back-p.xlsx,instructions\0-BACK.png,"(15, 8)",practice,0,4,stim\gray.png,stim\gray.png,stim\gray.png,stim\yellow.png,down,1,0,1,0,0,0,0,0,0,9,9,9,,,,,,,,,,,,,,,,,,,,,,,,,,,310.15982729999814,311.16203110001516,310.15982729999814,311.16203110001516,310.15982729999814,311.16203110001516,310.15982729999814,311.16203110001516,down,1,310.15982729999814,None,310.15982729999814,None,310.15982729999814,310.66174859995954,310.15982729999814,310.66174859995954,310.15982729999814,310.66174859995954,310.15982729999814,310.66174859995954,310.15982729999814,None,0.5262872000457719,,,,,,,,,,,,,,,,,,,,,,,,,,,,,,,,,,,,,,,,,,11016,001,2024_Jan_04_1358,nback,2021.2.3,59.76600413999689,
0-back,instructions\back-0.png,conditions\0back-p.xlsx,instructions\0-BACK.png,"(15, 8)",practice,0,1,stim\yellow.png,stim\gray.png,stim\gray.png,stim\gray.png,up,1,0,1,0,0,0,0,0,0,10,10,10,,,,,,,,,,,,,,,,,,,,,,,,,,,311.6621826000046,312.66418970003724,311.6621826000046,312.66418970003724,311.6621826000046,312.66418970003724,311.6621826000046,312.66418970003724,up,1,311.6621826000046,None,311.6621826000046,None,311.6621826000046,312.16380159999244,311.6621826000046,312.16380159999244,311.6621826000046,312.16380159999244,311.6621826000046,312.16380159999244,311.6621826000046,None,0.3038664000341669,,,,,,,,,,,,,,,,,,,,,,,,,,,,,,,,,,,,,,,,,,11016,001,2024_Jan_04_1358,nback,2021.2.3,59.76600413999689,
0-back,instructions\back-0.png,conditions\0back-p.xlsx,instructions\0-BACK.png,"(15, 8)",practice,0,2,stim\gray.png,stim\yellow.png,stim\gray.png,stim\gray.png,left,1,0,1,0,0,0,0,0,0,11,11,11,,,,,,,,,,,,,,,,,,,,,,,,,,,313.165024499991,314.16759970004205,313.165024499991,314.16759970004205,313.165024499991,314.16759970004205,313.165024499991,314.16759970004205,left,1,313.165024499991,None,313.165024499991,None,313.165024499991,313.6651421999559,313.165024499991,313.6651421999559,313.165024499991,313.6651421999559,313.165024499991,313.6651421999559,313.165024499991,None,0.30559160001575947,,,,,,,,,,,,,,,,,,,,,,,,,,,,,,,,,,,,,,,,,,11016,001,2024_Jan_04_1358,nback,2021.2.3,59.76600413999689,
0-back,instructions\back-0.png,conditions\0back-p.xlsx,instructions\0-BACK.png,"(15, 8)",practice,0,4,stim\gray.png,stim\gray.png,stim\gray.png,stim\yellow.png,down,1,0,1,0,0,0,0,0,0,12,12,12,,,,,,,,,,,,,,,,,,,,,,,,,,,314.666572600021,315.66879599995445,314.666572600021,315.66879599995445,314.666572600021,315.66879599995445,314.666572600021,315.66879599995445,down,1,314.666572600021,None,314.666572600021,None,314.666572600021,315.1679654000327,314.666572600021,315.1679654000327,314.666572600021,315.1679654000327,314.666572600021,315.1679654000327,314.666572600021,None,0.3075589999789372,,,,,,,,,,,,,,,,,,,,,,,,,,,,,,,,,,,,,,,,,,11016,001,2024_Jan_04_1358,nback,2021.2.3,59.76600413999689,
0-back,instructions\back-0.png,conditions\0back-p.xlsx,instructions\0-BACK.png,"(15, 8)",practice,0,3,stim\gray.png,stim\gray.png,stim\yellow.png,stim\gray.png,right,1,0,1,0,0,0,0,0,0,13,13,13,,,,,,,,,,,,,,,,,,,,,,,,,,,316.1688539000461,317.17044360004365,316.1688539000461,317.17044360004365,316.1688539000461,317.17044360004365,316.1688539000461,317.17044360004365,right,1,316.1688539000461,None,316.1688539000461,None,316.1688539000461,316.66955440002494,316.1688539000461,316.66955440002494,316.1688539000461,316.66955440002494,316.1688539000461,316.66955440002494,316.1688539000461,None,0.3093146999599412,,,,,,,,,,,,,,,,,,,,,,,,,,,,,,,,,,,,,,,,,,11016,001,2024_Jan_04_1358,nback,2021.2.3,59.76600413999689,
0-back,instructions\back-0.png,conditions\0back-p.xlsx,instructions\0-BACK.png,"(15, 8)",practice,0,1,stim\yellow.png,stim\gray.png,stim\gray.png,stim\gray.png,up,1,0,1,0,0,0,0,0,0,14,14,14,,,,,,,,,,,,,,,,,,,,,,,,,,,317.65466620004736,318.65579500002787,317.65466620004736,318.65579500002787,317.65466620004736,318.65579500002787,317.65466620004736,318.65579500002787,up,1,317.65466620004736,None,317.65466620004736,None,317.65466620004736,318.1551954000024,317.65466620004736,318.1551954000024,317.65466620004736,318.1551954000024,317.65466620004736,318.1551954000024,317.65466620004736,None,0.29544500005431473,,,,,,,,,,,,,,,,,,,,,,,,,,,,,,,,,,,,,,,,,,11016,001,2024_Jan_04_1358,nback,2021.2.3,59.76600413999689,
0-back,instructions\back-0.png,conditions\0back-p.xlsx,instructions\0-BACK.png,"(15, 8)",practice,0,2,stim\gray.png,stim\yellow.png,stim\gray.png,stim\gray.png,left,1,0,1,0,0,0,0,0,0,15,15,15,,,,,,,,,,,,,,,,,,,,,,,,,,,319.1565487999469,320.158151700045,319.1565487999469,320.158151700045,319.1565487999469,320.158151700045,319.1565487999469,320.158151700045,left,1,319.1565487999469,None,319.1565487999469,None,319.1565487999469,319.6576148000313,319.1565487999469,319.6576148000313,319.1565487999469,319.6576148000313,319.1565487999469,319.6576148000313,319.1565487999469,None,0.377592199947685,,,,,,,,,,,,,,,,,,,,,,,,,,,,,,,,,,,,,,,,,,11016,001,2024_Jan_04_1358,nback,2021.2.3,59.76600413999689,
0-back,instructions\back-0.png,conditions\0back-p.xlsx,instructions\0-BACK.png,"(15, 8)",practice,0,3,stim\gray.png,stim\gray.png,stim\yellow.png,stim\gray.png,right,1,0,1,0,0,0,0,0,0,16,16,16,,,,,,,,,,,,,,,,,,,,,,,,,,,320.6596989999525,321.66058040002827,320.6596989999525,321.66058040002827,320.6596989999525,321.66058040002827,320.6596989999525,321.66058040002827,right,1,320.6596989999525,None,320.6596989999525,None,320.6596989999525,321.1603292999789,320.6596989999525,321.1603292999789,320.6596989999525,321.1603292999789,320.6596989999525,321.1603292999789,320.6596989999525,None,0.3947640999685973,,,,,,,,,,,,,,,,,,,,,,,,,,,,,,,,,,,,,,,,,,11016,001,2024_Jan_04_1358,nback,2021.2.3,59.76600413999689,
0-back,instructions\back-0.png,conditions\0back-p.xlsx,instructions\0-BACK.png,"(15, 8)",practice,0,1,stim\yellow.png,stim\gray.png,stim\gray.png,stim\gray.png,up,1,0,1,0,0,0,0,0,0,17,17,17,,,,,,,,,,,,,,,,,,,,,,,,,,,322.16095299995504,323.1631595999934,322.16095299995504,323.1631595999934,322.16095299995504,323.1631595999934,322.16095299995504,323.1631595999934,up,1,322.16095299995504,None,322.16095299995504,None,322.16095299995504,322.6625564999413,322.16095299995504,322.6625564999413,322.16095299995504,322.6625564999413,322.16095299995504,322.6625564999413,322.16095299995504,None,0.28573379991576076,,,,,,,,,,,,,,,,,,,,,,,,,,,,,,,,,,,,,,,,,,11016,001,2024_Jan_04_1358,nback,2021.2.3,59.76600413999689,
0-back,instructions\back-0.png,conditions\0back-p.xlsx,instructions\0-BACK.png,"(15, 8)",practice,0,4,stim\gray.png,stim\gray.png,stim\gray.png,stim\yellow.png,down,1,0,1,0,0,0,0,0,0,18,18,18,,,,,,,,,,,,,,,,,,,,,,,,,,,323.6636591999559,324.66469320002943,323.6636591999559,324.66469320002943,323.6636591999559,324.66469320002943,323.6636591999559,324.66469320002943,down,1,323.6636591999559,None,323.6636591999559,None,323.6636591999559,324.16472210001666,323.6636591999559,324.16472210001666,323.6636591999559,324.16472210001666,323.6636591999559,324.16472210001666,323.6636591999559,None,0.4704861000645906,,,,,,,,,,,,,,,,,,,,,,,,,,,,,,,,,,,,,,,,,,11016,001,2024_Jan_04_1358,nback,2021.2.3,59.76600413999689,
0-back,instructions\back-0.png,conditions\0back-p.xlsx,instructions\0-BACK.png,"(15, 8)",practice,0,2,stim\gray.png,stim\yellow.png,stim\gray.png,stim\gray.png,left,1,0,1,0,0,0,0,0,0,19,19,19,,,,,,,,,,,,,,,,,,,,,,,,,,,325.1653857999481,326.16829229996074,325.1653857999481,326.16829229996074,325.1653857999481,326.16829229996074,325.1653857999481,326.16829229996074,left,1,325.1653857999481,None,325.1653857999481,None,325.1653857999481,325.66625969996676,325.1653857999481,325.66625969996676,325.1653857999481,325.66625969996676,325.1653857999481,325.66625969996676,325.1653857999481,None,0.3855160999810323,,,,,,,,,,,,,,,,,,,,,,,,,,,,,,,,,,,,,,,,,,11016,001,2024_Jan_04_1358,nback,2021.2.3,59.76600413999689,
0-back,instructions\back-0.png,conditions\0back-p.xlsx,instructions\0-BACK.png,"(15, 8)",,,,,,,,,1,0,1,0,0,0,0,0,,,,,,,,,,,,,,,,,,,,,,,,,,,,,,,,,,,,,,,,,,,,,,,,,,,,,,,,,,,,,,,,,,,,,,,,,,,,,,,,,,,,,,,,,,,,,,,,,11016,001,2024_Jan_04_1358,nback,2021.2.3,59.76600413999689,
1-back,instructions\back-1.png,conditions\1back-p.xlsx,instructions\1-BACK.png,"(25, 15)",practice,1,1,stim\yellow.png,stim\gray.png,stim\gray.png,stim\gray.png,None,1,0,1,0,0,1,1,1,0,0,0,0,,,,,,,,,,,,,,,,,326.83461090002675,None,space,1.643557400093414,326.83461090002675,None,328.6210204999661,333.1287205000408,333.0954358000308,None,333.5296688999515,334.53014100005385,333.5296688999515,334.53014100005385,333.5296688999515,334.53014100005385,333.5296688999515,334.53014100005385,None,1,333.5296688999515,None,333.5296688999515,None,333.5296688999515,334.0293930999469,333.5296688999515,334.0293930999469,333.5296688999515,334.0293930999469,333.5296688999515,334.0293930999469,333.5296688999515,None,,,,,,,,,,,,,,,,,,,,,,,,,,,,,,,,,,,,,,,,,,,11016,001,2024_Jan_04_1358,nback,2021.2.3,59.76600413999689,
1-back,instructions\back-1.png,conditions\1back-p.xlsx,instructions\1-BACK.png,"(25, 15)",practice,1,2,stim\gray.png,stim\yellow.png,stim\gray.png,stim\gray.png,up,1,0,1,0,0,1,1,1,0,1,1,1,,,,,,,,,,,,,,,,,,,,,,,,,,,335.01338889996987,336.0159555999562,335.01338889996987,336.0159555999562,335.01338889996987,336.0159555999562,335.01338889996987,336.0159555999562,up,1,335.01338889996987,None,335.01338889996987,None,335.01338889996987,335.5142828000244,335.01338889996987,335.5142828000244,335.01338889996987,335.5142828000244,335.01338889996987,335.5142828000244,335.01338889996987,None,0.3766994000179693,,,,,,,,,,,,,,,,,,,,,,,,,,,,,,,,,,,,,,,,,,11016,001,2024_Jan_04_1358,nback,2021.2.3,59.76600413999689,
1-back,instructions\back-1.png,conditions\1back-p.xlsx,instructions\1-BACK.png,"(25, 15)",practice,1,3,stim\gray.png,stim\gray.png,stim\yellow.png,stim\gray.png,left,1,0,1,0,0,1,1,1,0,2,2,2,,,,,,,,,,,,,,,,,,,,,,,,,,,336.515760099981,337.5174893999938,336.515760099981,337.5174893999938,336.515760099981,337.5174893999938,336.515760099981,337.5174893999938,left,1,336.515760099981,None,336.515760099981,None,336.515760099981,337.0171221999917,336.515760099981,337.0171221999917,336.515760099981,337.0171221999917,336.515760099981,337.0171221999917,336.515760099981,None,0.291077500092797,,,,,,,,,,,,,,,,,,,,,,,,,,,,,,,,,,,,,,,,,,11016,001,2024_Jan_04_1358,nback,2021.2.3,59.76600413999689,
1-back,instructions\back-1.png,conditions\1back-p.xlsx,instructions\1-BACK.png,"(25, 15)",practice,1,4,stim\gray.png,stim\gray.png,stim\gray.png,stim\yellow.png,right,1,0,1,0,0,1,1,1,0,3,3,3,,,,,,,,,,,,,,,,,,,,,,,,,,,338.01824240002315,339.0194937000051,338.01824240002315,339.0194937000051,338.01824240002315,339.0194937000051,338.01824240002315,339.0194937000051,right,1,338.01824240002315,None,338.01824240002315,None,338.01824240002315,338.51935489999596,338.01824240002315,338.51935489999596,338.01824240002315,338.51935489999596,338.01824240002315,338.51935489999596,338.01824240002315,None,0.28473469999153167,,,,,,,,,,,,,,,,,,,,,,,,,,,,,,,,,,,,,,,,,,11016,001,2024_Jan_04_1358,nback,2021.2.3,59.76600413999689,
1-back,instructions\back-1.png,conditions\1back-p.xlsx,instructions\1-BACK.png,"(25, 15)",practice,1,2,stim\gray.png,stim\yellow.png,stim\gray.png,stim\gray.png,down,1,0,1,0,0,1,1,1,0,4,4,4,,,,,,,,,,,,,,,,,,,,,,,,,,,339.52080379996914,340.5222415999742,339.52080379996914,340.5222415999742,339.52080379996914,340.5222415999742,339.52080379996914,340.5222415999742,left,0,339.52080379996914,None,339.52080379996914,None,339.52080379996914,340.02090080000926,339.52080379996914,340.02090080000926,339.52080379996914,340.02090080000926,339.52080379996914,340.02090080000926,339.52080379996914,None,1.4216672000475228,,,,,,,,,,,,,,,,,,,,,,,,,,,,,,,,,,,,,,,,,,11016,001,2024_Jan_04_1358,nback,2021.2.3,59.76600413999689,
1-back,instructions\back-1.png,conditions\1back-p.xlsx,instructions\1-BACK.png,"(25, 15)",practice,1,1,stim\yellow.png,stim\gray.png,stim\gray.png,stim\gray.png,left,1,0,1,0,0,1,1,1,0,5,5,5,,,,,,,,,,,,,,,,,,,,,,,,,,,341.02249250002205,342.0242492000107,341.02249250002205,342.0242492000107,341.02249250002205,342.0242492000107,341.02249250002205,342.0242492000107,up,0,341.02249250002205,None,341.02249250002205,None,341.02249250002205,341.5238680000184,341.02249250002205,341.5238680000184,341.02249250002205,341.5238680000184,341.02249250002205,341.5238680000184,341.02249250002205,None,1.4322415000060573,,,,,,,,,,,,,,,,,,,,,,,,,,,,,,,,,,,,,,,,,,11016,001,2024_Jan_04_1358,nback,2021.2.3,59.76600413999689,
1-back,instructions\back-1.png,conditions\1back-p.xlsx,instructions\1-BACK.png,"(25, 15)",practice,1,4,stim\gray.png,stim\gray.png,stim\gray.png,stim\yellow.png,up,1,0,1,0,0,1,1,1,0,6,6,6,,,,,,,,,,,,,,,,,,,,,,,,,,,342.50786849996075,343.5103132999502,342.50786849996075,343.5103132999502,342.50786849996075,343.5103132999502,342.50786849996075,343.5103132999502,None,0,342.50786849996075,None,342.50786849996075,None,342.50786849996075,343.00852359994315,342.50786849996075,343.00852359994315,342.50786849996075,343.00852359994315,342.50786849996075,343.00852359994315,342.50786849996075,None,,,,,,,,,,,,,,,,,,,,,,,,,,,,,,,,,,,,,,,,,,,11016,001,2024_Jan_04_1358,nback,2021.2.3,59.76600413999689,
1-back,instructions\back-1.png,conditions\1back-p.xlsx,instructions\1-BACK.png,"(25, 15)",practice,1,3,stim\gray.png,stim\gray.png,stim\yellow.png,stim\gray.png,down,1,0,1,0,0,1,1,1,0,7,7,7,,,,,,,,,,,,,,,,,,,,,,,,,,,344.0101576000452,345.0124797000317,344.0101576000452,345.0124797000317,344.0101576000452,345.0124797000317,344.0101576000452,345.0124797000317,down,1,344.0101576000452,None,344.0101576000452,None,344.0101576000452,344.5112214999972,344.0101576000452,344.5112214999972,344.0101576000452,344.5112214999972,344.0101576000452,344.5112214999972,344.0101576000452,None,0.004014899954199791,,,,,,,,,,,,,,,,,,,,,,,,,,,,,,,,,,,,,,,,,,11016,001,2024_Jan_04_1358,nback,2021.2.3,59.76600413999689,
1-back,instructions\back-1.png,conditions\1back-p.xlsx,instructions\1-BACK.png,"(25, 15)",practice,1,3,stim\gray.png,stim\gray.png,stim\yellow.png,stim\gray.png,right,1,0,1,0,0,1,1,1,0,8,8,8,,,,,,,,,,,,,,,,,,,,,,,,,,,345.51246040000115,346.5160990000004,345.51246040000115,346.5160990000004,345.51246040000115,346.5160990000004,345.51246040000115,346.5160990000004,right,1,345.51246040000115,None,345.51246040000115,None,345.51246040000115,346.0136819999898,345.51246040000115,346.0136819999898,345.51246040000115,346.0136819999898,345.51246040000115,346.0136819999898,345.51246040000115,None,0.2217166000045836,,,,,,,,,,,,,,,,,,,,,,,,,,,,,,,,,,,,,,,,,,11016,001,2024_Jan_04_1358,nback,2021.2.3,59.76600413999689,
1-back,instructions\back-1.png,conditions\1back-p.xlsx,instructions\1-BACK.png,"(25, 15)",practice,1,4,stim\gray.png,stim\gray.png,stim\gray.png,stim\yellow.png,right,1,0,1,0,0,1,1,1,0,9,9,9,,,,,,,,,,,,,,,,,,,,,,,,,,,347.0143891000189,348.0170633000089,347.0143891000189,348.0170633000089,347.0143891000189,348.0170633000089,347.0143891000189,348.0170633000089,right,1,347.0143891000189,None,347.0143891000189,None,347.0143891000189,347.5153426999459,347.0143891000189,347.5153426999459,347.0143891000189,347.5153426999459,347.0143891000189,347.5153426999459,347.0143891000189,None,0.2399622000521049,,,,,,,,,,,,,,,,,,,,,,,,,,,,,,,,,,,,,,,,,,11016,001,2024_Jan_04_1358,nback,2021.2.3,59.76600413999689,
1-back,instructions\back-1.png,conditions\1back-p.xlsx,instructions\1-BACK.png,"(25, 15)",practice,1,1,stim\yellow.png,stim\gray.png,stim\gray.png,stim\gray.png,down,1,0,1,0,0,1,1,1,0,10,10,10,,,,,,,,,,,,,,,,,,,,,,,,,,,348.51683340000454,349.5183166000061,348.51683340000454,349.5183166000061,348.51683340000454,349.5183166000061,348.51683340000454,349.5183166000061,down,1,348.51683340000454,None,348.51683340000454,None,348.51683340000454,349.0182606000453,348.51683340000454,349.0182606000453,348.51683340000454,349.0182606000453,348.51683340000454,349.0182606000453,348.51683340000454,None,0.2735228000674397,,,,,,,,,,,,,,,,,,,,,,,,,,,,,,,,,,,,,,,,,,11016,001,2024_Jan_04_1358,nback,2021.2.3,59.76600413999689,
1-back,instructions\back-1.png,conditions\1back-p.xlsx,instructions\1-BACK.png,"(25, 15)",practice,1,2,stim\gray.png,stim\yellow.png,stim\gray.png,stim\gray.png,up,1,0,1,0,0,1,1,1,0,11,11,11,,,,,,,,,,,,,,,,,,,,,,,,,,,350.01900229998864,351.021775900037,350.01900229998864,351.021775900037,350.01900229998864,351.021775900037,350.01900229998864,351.021775900037,up,1,350.01900229998864,None,350.01900229998864,None,350.01900229998864,350.51994659996126,350.01900229998864,350.51994659996126,350.01900229998864,350.51994659996126,350.01900229998864,350.51994659996126,350.01900229998864,None,0.39536289998795837,,,,,,,,,,,,,,,,,,,,,,,,,,,,,,,,,,,,,,,,,,11016,001,2024_Jan_04_1358,nback,2021.2.3,59.76600413999689,
1-back,instructions\back-1.png,conditions\1back-p.xlsx,instructions\1-BACK.png,"(25, 15)",practice,1,4,stim\gray.png,stim\gray.png,stim\gray.png,stim\yellow.png,left,1,0,1,0,0,1,1,1,0,12,12,12,,,,,,,,,,,,,,,,,,,,,,,,,,,351.52119240001775,352.52357840002514,351.52119240001775,352.52357840002514,351.52119240001775,352.52357840002514,351.52119240001775,352.52357840002514,left,1,351.52119240001775,None,351.52119240001775,None,351.52119240001775,352.0225476999767,351.52119240001775,352.0225476999767,351.52119240001775,352.0225476999767,351.52119240001775,352.0225476999767,351.52119240001775,None,0.3654709999682382,,,,,,,,,,,,,,,,,,,,,,,,,,,,,,,,,,,,,,,,,,11016,001,2024_Jan_04_1358,nback,2021.2.3,59.76600413999689,
1-back,instructions\back-1.png,conditions\1back-p.xlsx,instructions\1-BACK.png,"(25, 15)",practice,1,3,stim\gray.png,stim\gray.png,stim\yellow.png,stim\gray.png,down,1,0,1,0,0,1,1,1,0,13,13,13,,,,,,,,,,,,,,,,,,,,,,,,,,,353.0234729000367,354.0251516000135,353.0234729000367,354.0251516000135,353.0234729000367,354.0251516000135,353.0234729000367,354.0251516000135,down,1,353.0234729000367,None,353.0234729000367,None,353.0234729000367,353.52454010001384,353.0234729000367,353.52454010001384,353.0234729000367,353.52454010001384,353.0234729000367,353.52454010001384,353.0234729000367,None,0.3193176999920979,,,,,,,,,,,,,,,,,,,,,,,,,,,,,,,,,,,,,,,,,,11016,001,2024_Jan_04_1358,nback,2021.2.3,59.76600413999689,
1-back,instructions\back-1.png,conditions\1back-p.xlsx,instructions\1-BACK.png,"(25, 15)",practice,1,1,stim\yellow.png,stim\gray.png,stim\gray.png,stim\gray.png,right,1,0,1,0,0,1,1,1,0,14,14,14,,,,,,,,,,,,,,,,,,,,,,,,,,,354.50902710005175,355.5116623999784,354.50902710005175,355.5116623999784,354.50902710005175,355.5116623999784,354.50902710005175,355.5116623999784,right,1,354.50902710005175,None,354.50902710005175,None,354.50902710005175,355.0096403999487,354.50902710005175,355.0096403999487,354.50902710005175,355.0096403999487,354.50902710005175,355.0096403999487,354.50902710005175,None,0.3611914999783039,,,,,,,,,,,,,,,,,,,,,,,,,,,,,,,,,,,,,,,,,,11016,001,2024_Jan_04_1358,nback,2021.2.3,59.76600413999689,
1-back,instructions\back-1.png,conditions\1back-p.xlsx,instructions\1-BACK.png,"(25, 15)",practice,1,2,stim\gray.png,stim\yellow.png,stim\gray.png,stim\gray.png,up,1,0,1,0,0,1,1,1,0,15,15,15,,,,,,,,,,,,,,,,,,,,,,,,,,,356.0118544000434,357.0127616999671,356.0118544000434,357.0127616999671,356.0118544000434,357.0127616999671,356.0118544000434,357.0127616999671,up,1,356.0118544000434,None,356.0118544000434,None,356.0118544000434,356.5125283000525,356.0118544000434,356.5125283000525,356.0118544000434,356.5125283000525,356.0118544000434,356.5125283000525,356.0118544000434,None,0.33849379990715533,,,,,,,,,,,,,,,,,,,,,,,,,,,,,,,,,,,,,,,,,,11016,001,2024_Jan_04_1358,nback,2021.2.3,59.76600413999689,
1-back,instructions\back-1.png,conditions\1back-p.xlsx,instructions\1-BACK.png,"(25, 15)",practice,1,3,stim\gray.png,stim\gray.png,stim\yellow.png,stim\gray.png,left,1,0,1,0,0,1,1,1,0,16,16,16,,,,,,,,,,,,,,,,,,,,,,,,,,,357.5134488999611,358.5155473999912,357.5134488999611,358.5155473999912,357.5134488999611,358.5155473999912,357.5134488999611,358.5155473999912,left,1,357.5134488999611,None,357.5134488999611,None,357.5134488999611,358.0149265000364,357.5134488999611,358.0149265000364,357.5134488999611,358.0149265000364,357.5134488999611,358.0149265000364,357.5134488999611,None,0.332978600054048,,,,,,,,,,,,,,,,,,,,,,,,,,,,,,,,,,,,,,,,,,11016,001,2024_Jan_04_1358,nback,2021.2.3,59.76600413999689,
1-back,instructions\back-1.png,conditions\1back-p.xlsx,instructions\1-BACK.png,"(25, 15)",practice,1,1,stim\yellow.png,stim\gray.png,stim\gray.png,stim\gray.png,right,1,0,1,0,0,1,1,1,0,17,17,17,,,,,,,,,,,,,,,,,,,,,,,,,,,359.0157679000404,360.01737360004336,359.0157679000404,360.01737360004336,359.0157679000404,360.01737360004336,359.0157679000404,360.01737360004336,right,1,359.0157679000404,None,359.0157679000404,None,359.0157679000404,359.51644170004874,359.0157679000404,359.51644170004874,359.0157679000404,359.51644170004874,359.0157679000404,359.51644170004874,359.0157679000404,None,0.30253610003273934,,,,,,,,,,,,,,,,,,,,,,,,,,,,,,,,,,,,,,,,,,11016,001,2024_Jan_04_1358,nback,2021.2.3,59.76600413999689,
1-back,instructions\back-1.png,conditions\1back-p.xlsx,instructions\1-BACK.png,"(25, 15)",practice,1,4,stim\gray.png,stim\gray.png,stim\gray.png,stim\yellow.png,up,1,0,1,0,0,1,1,1,0,18,18,18,,,,,,,,,,,,,,,,,,,,,,,,,,,360.5178504999494,361.5216541000409,360.5178504999494,361.5216541000409,360.5178504999494,361.5216541000409,360.5178504999494,361.5216541000409,up,1,360.5178504999494,None,360.5178504999494,None,360.5178504999494,361.0187862999737,360.5178504999494,361.0187862999737,360.5178504999494,361.0187862999737,360.5178504999494,361.0187862999737,360.5178504999494,None,0.4724210000131279,,,,,,,,,,,,,,,,,,,,,,,,,,,,,,,,,,,,,,,,,,11016,001,2024_Jan_04_1358,nback,2021.2.3,59.76600413999689,
1-back,instructions\back-1.png,conditions\1back-p.xlsx,instructions\1-BACK.png,"(25, 15)",practice,1,2,stim\gray.png,stim\yellow.png,stim\gray.png,stim\gray.png,down,1,0,1,0,0,1,1,1,0,19,19,19,,,,,,,,,,,,,,,,,,,,,,,,,,,362.02018390002195,363.0228808999527,362.02018390002195,363.0228808999527,362.02018390002195,363.0228808999527,362.02018390002195,363.0228808999527,down,1,362.02018390002195,None,362.02018390002195,None,362.02018390002195,362.5213365999516,362.02018390002195,362.5213365999516,362.02018390002195,362.5213365999516,362.02018390002195,362.5213365999516,362.02018390002195,None,0.49876129999756813,,,,,,,,,,,,,,,,,,,,,,,,,,,,,,,,,,,,,,,,,,11016,001,2024_Jan_04_1358,nback,2021.2.3,59.76600413999689,
1-back,instructions\back-1.png,conditions\1back-p.xlsx,instructions\1-BACK.png,"(25, 15)",,,,,,,,,1,0,1,0,0,1,1,1,,,,,,,,,,,,,,,,,,,,,,,,,,,,,,,,,,,,,,,,,,,,,,,,,,,,,,,,,,,,,,,,,,,,,,,,,,,,,,,,,,,,,,,,,,,,,,,,,11016,001,2024_Jan_04_1358,nback,2021.2.3,59.76600413999689,
2-back,instructions\back-2.png,conditions\2back-p.xlsx,instructions\2-BACK.png,"(25, 15)",practice,2,1,stim\yellow.png,stim\gray.png,stim\gray.png,stim\gray.png,None,1,0,1,0,0,2,2,2,0,0,0,0,,,,,,,,,,,,,,,,,363.672593700001,None,space,1.7504488000413403,363.672593700001,None,365.5751341000432,370.08314180001616,370.0325156999752,None,370.46665680001024,371.46749239997007,370.46665680001024,371.46749239997007,370.46665680001024,371.46749239997007,370.46665680001024,371.46749239997007,None,1,370.46665680001024,None,370.46665680001024,None,370.46665680001024,370.9667116999626,370.46665680001024,370.9667116999626,370.46665680001024,370.9667116999626,370.46665680001024,370.9667116999626,370.46665680001024,None,,,,,,,,,,,,,,,,,,,,,,,,,,,,,,,,,,,,,,,,,,,11016,001,2024_Jan_04_1358,nback,2021.2.3,59.76600413999689,
2-back,instructions\back-2.png,conditions\2back-p.xlsx,instructions\2-BACK.png,"(25, 15)",practice,2,2,stim\gray.png,stim\yellow.png,stim\gray.png,stim\gray.png,None,1,0,1,0,0,2,2,2,0,1,1,1,,,,,,,,,,,,,,,,,,,,,,,,,,,371.9513498999877,372.95358129998203,371.9513498999877,372.95358129998203,371.9513498999877,372.95358129998203,371.9513498999877,372.95358129998203,None,1,371.9513498999877,None,371.9513498999877,None,371.9513498999877,372.45271139999386,371.9513498999877,372.45271139999386,371.9513498999877,372.45271139999386,371.9513498999877,372.45271139999386,371.9513498999877,None,,,,,,,,,,,,,,,,,,,,,,,,,,,,,,,,,,,,,,,,,,,11016,001,2024_Jan_04_1358,nback,2021.2.3,59.76600413999689,
2-back,instructions\back-2.png,conditions\2back-p.xlsx,instructions\2-BACK.png,"(25, 15)",practice,2,3,stim\gray.png,stim\gray.png,stim\yellow.png,stim\gray.png,up,1,0,1,0,0,2,2,2,0,2,2,2,,,,,,,,,,,,,,,,,,,,,,,,,,,373.4535861000186,374.455249599996,373.4535861000186,374.455249599996,373.4535861000186,374.455249599996,373.4535861000186,374.455249599996,up,1,373.4535861000186,None,373.4535861000186,None,373.4535861000186,373.95549740002025,373.4535861000186,373.95549740002025,373.4535861000186,373.95549740002025,373.4535861000186,373.95549740002025,373.4535861000186,None,0.4166408999590203,,,,,,,,,,,,,,,,,,,,,,,,,,,,,,,,,,,,,,,,,,11016,001,2024_Jan_04_1358,nback,2021.2.3,59.76600413999689,
2-back,instructions\back-2.png,conditions\2back-p.xlsx,instructions\2-BACK.png,"(25, 15)",practice,2,4,stim\gray.png,stim\gray.png,stim\gray.png,stim\yellow.png,left,1,0,1,0,0,2,2,2,0,3,3,3,,,,,,,,,,,,,,,,,,,,,,,,,,,374.95604229997844,375.9582191000227,374.95604229997844,375.9582191000227,374.95604229997844,375.9582191000227,374.95604229997844,375.9582191000227,left,1,374.95604229997844,None,374.95604229997844,None,374.95604229997844,375.45654889999423,374.95604229997844,375.45654889999423,374.95604229997844,375.45654889999423,374.95604229997844,375.45654889999423,374.95604229997844,None,0.3541961999144405,,,,,,,,,,,,,,,,,,,,,,,,,,,,,,,,,,,,,,,,,,11016,001,2024_Jan_04_1358,nback,2021.2.3,59.76600413999689,
2-back,instructions\back-2.png,conditions\2back-p.xlsx,instructions\2-BACK.png,"(25, 15)",practice,2,2,stim\gray.png,stim\yellow.png,stim\gray.png,stim\gray.png,right,1,0,1,0,0,2,2,2,0,4,4,4,,,,,,,,,,,,,,,,,,,,,,,,,,,376.45858760003466,377.45970200002193,376.45858760003466,377.45970200002193,376.45858760003466,377.45970200002193,376.45858760003466,377.45970200002193,right,1,376.45858760003466,None,376.45858760003466,None,376.45858760003466,376.95992499997374,376.45858760003466,376.95992499997374,376.45858760003466,376.95992499997374,376.45858760003466,376.95992499997374,376.45858760003466,None,0.33199259999673814,,,,,,,,,,,,,,,,,,,,,,,,,,,,,,,,,,,,,,,,,,11016,001,2024_Jan_04_1358,nback,2021.2.3,59.76600413999689,
2-back,instructions\back-2.png,conditions\2back-p.xlsx,instructions\2-BACK.png,"(25, 15)",practice,2,1,stim\yellow.png,stim\gray.png,stim\gray.png,stim\gray.png,down,1,0,1,0,0,2,2,2,0,5,5,5,,,,,,,,,,,,,,,,,,,,,,,,,,,377.96050709998235,378.96434890001547,377.96050709998235,378.96434890001547,377.96050709998235,378.96434890001547,377.96050709998235,378.96434890001547,down,1,377.96050709998235,None,377.96050709998235,None,377.96050709998235,378.4610259999754,377.96050709998235,378.4610259999754,377.96050709998235,378.4610259999754,377.96050709998235,378.4610259999754,377.96050709998235,None,0.29383229999803007,,,,,,,,,,,,,,,,,,,,,,,,,,,,,,,,,,,,,,,,,,11016,001,2024_Jan_04_1358,nback,2021.2.3,59.76600413999689,
2-back,instructions\back-2.png,conditions\2back-p.xlsx,instructions\2-BACK.png,"(25, 15)",practice,2,4,stim\gray.png,stim\gray.png,stim\gray.png,stim\yellow.png,left,1,0,1,0,0,2,2,2,0,6,6,6,,,,,,,,,,,,,,,,,,,,,,,,,,,379.44606139999814,380.44863310002256,379.44606139999814,380.44863310002256,379.44606139999814,380.44863310002256,379.44606139999814,380.44863310002256,left,1,379.44606139999814,None,379.44606139999814,None,379.44606139999814,379.946662100032,379.44606139999814,379.946662100032,379.44606139999814,379.946662100032,379.44606139999814,379.946662100032,379.44606139999814,None,0.2884018999757245,,,,,,,,,,,,,,,,,,,,,,,,,,,,,,,,,,,,,,,,,,11016,001,2024_Jan_04_1358,nback,2021.2.3,59.76600413999689,
2-back,instructions\back-2.png,conditions\2back-p.xlsx,instructions\2-BACK.png,"(25, 15)",practice,2,3,stim\gray.png,stim\gray.png,stim\yellow.png,stim\gray.png,up,1,0,1,0,0,2,2,2,0,7,7,7,,,,,,,,,,,,,,,,,,,,,,,,,,,380.9480860000476,381.95274300000165,380.9480860000476,381.95274300000165,380.9480860000476,381.95274300000165,380.9480860000476,381.95274300000165,up,1,380.9480860000476,None,380.9480860000476,None,380.9480860000476,381.4492223999696,380.9480860000476,381.4492223999696,380.9480860000476,381.4492223999696,380.9480860000476,381.4492223999696,380.9480860000476,None,0.29893249995075166,,,,,,,,,,,,,,,,,,,,,,,,,,,,,,,,,,,,,,,,,,11016,001,2024_Jan_04_1358,nback,2021.2.3,59.76600413999689,
2-back,instructions\back-2.png,conditions\2back-p.xlsx,instructions\2-BACK.png,"(25, 15)",practice,2,3,stim\gray.png,stim\gray.png,stim\yellow.png,stim\gray.png,down,1,0,1,0,0,2,2,2,0,8,8,8,,,,,,,,,,,,,,,,,,,,,,,,,,,382.45043149997946,383.45304179994855,382.45043149997946,383.45304179994855,382.45043149997946,383.45304179994855,382.45043149997946,383.45304179994855,down,1,382.45043149997946,None,382.45043149997946,None,382.45043149997946,382.9512179000303,382.45043149997946,382.9512179000303,382.45043149997946,382.9512179000303,382.45043149997946,382.9512179000303,382.45043149997946,None,0.2598698000656441,,,,,,,,,,,,,,,,,,,,,,,,,,,,,,,,,,,,,,,,,,11016,001,2024_Jan_04_1358,nback,2021.2.3,59.76600413999689,
2-back,instructions\back-2.png,conditions\2back-p.xlsx,instructions\2-BACK.png,"(25, 15)",practice,2,4,stim\gray.png,stim\gray.png,stim\gray.png,stim\yellow.png,right,1,0,1,0,0,2,2,2,0,9,9,9,,,,,,,,,,,,,,,,,,,,,,,,,,,383.9527022000402,384.9545188000193,383.9527022000402,384.9545188000193,383.9527022000402,384.9545188000193,383.9527022000402,384.9545188000193,right,1,383.9527022000402,None,383.9527022000402,None,383.9527022000402,384.45332900003996,383.9527022000402,384.45332900003996,383.9527022000402,384.45332900003996,383.9527022000402,384.45332900003996,383.9527022000402,None,0.262051000026986,,,,,,,,,,,,,,,,,,,,,,,,,,,,,,,,,,,,,,,,,,11016,001,2024_Jan_04_1358,nback,2021.2.3,59.76600413999689,
2-back,instructions\back-2.png,conditions\2back-p.xlsx,instructions\2-BACK.png,"(25, 15)",practice,2,1,stim\yellow.png,stim\gray.png,stim\gray.png,stim\gray.png,right,1,0,1,0,0,2,2,2,0,10,10,10,,,,,,,,,,,,,,,,,,,,,,,,,,,385.45545580005273,386.45726319996174,385.45545580005273,386.45726319996174,385.45545580005273,386.45726319996174,385.45545580005273,386.45726319996174,right,1,385.45545580005273,None,385.45545580005273,None,385.45545580005273,385.95554470003117,385.45545580005273,385.95554470003117,385.45545580005273,385.95554470003117,385.45545580005273,385.95554470003117,385.45545580005273,None,0.3588299999246374,,,,,,,,,,,,,,,,,,,,,,,,,,,,,,,,,,,,,,,,,,11016,001,2024_Jan_04_1358,nback,2021.2.3,59.76600413999689,
2-back,instructions\back-2.png,conditions\2back-p.xlsx,instructions\2-BACK.png,"(25, 15)",practice,2,2,stim\gray.png,stim\yellow.png,stim\gray.png,stim\gray.png,down,1,0,1,0,0,2,2,2,0,11,11,11,,,,,,,,,,,,,,,,,,,,,,,,,,,386.95715319993906,387.9597147000022,386.95715319993906,387.9597147000022,386.95715319993906,387.9597147000022,386.95715319993906,387.9597147000022,down,1,386.95715319993906,None,386.95715319993906,None,386.95715319993906,387.4585600999417,386.95715319993906,387.4585600999417,386.95715319993906,387.4585600999417,386.95715319993906,387.4585600999417,386.95715319993906,None,0.2816103999502957,,,,,,,,,,,,,,,,,,,,,,,,,,,,,,,,,,,,,,,,,,11016,001,2024_Jan_04_1358,nback,2021.2.3,59.76600413999689,
2-back,instructions\back-2.png,conditions\2back-p.xlsx,instructions\2-BACK.png,"(25, 15)",practice,2,4,stim\gray.png,stim\gray.png,stim\gray.png,stim\yellow.png,up,1,0,1,0,0,2,2,2,0,12,12,12,,,,,,,,,,,,,,,,,,,,,,,,,,,388.4593403999461,389.4611291999463,388.4593403999461,389.4611291999463,388.4593403999461,389.4611291999463,388.4593403999461,389.4611291999463,up,1,388.4593403999461,None,388.4593403999461,None,388.4593403999461,388.9607906000456,388.4593403999461,388.9607906000456,388.4593403999461,388.9607906000456,388.4593403999461,388.9607906000456,388.4593403999461,None,0.2674464000156149,,,,,,,,,,,,,,,,,,,,,,,,,,,,,,,,,,,,,,,,,,11016,001,2024_Jan_04_1358,nback,2021.2.3,59.76600413999689,
2-back,instructions\back-2.png,conditions\2back-p.xlsx,instructions\2-BACK.png,"(25, 15)",practice,2,3,stim\gray.png,stim\gray.png,stim\yellow.png,stim\gray.png,left,1,0,1,0,0,2,2,2,0,13,13,13,,,,,,,,,,,,,,,,,,,,,,,,,,,389.96133059996646,390.9630310999928,389.96133059996646,390.9630310999928,389.96133059996646,390.9630310999928,389.96133059996646,390.9630310999928,left,1,389.96133059996646,None,389.96133059996646,None,389.96133059996646,390.4628208000213,389.96133059996646,390.4628208000213,389.96133059996646,390.4628208000213,389.96133059996646,390.4628208000213,389.96133059996646,None,0.3331294000381604,,,,,,,,,,,,,,,,,,,,,,,,,,,,,,,,,,,,,,,,,,11016,001,2024_Jan_04_1358,nback,2021.2.3,59.76600413999689,
2-back,instructions\back-2.png,conditions\2back-p.xlsx,instructions\2-BACK.png,"(25, 15)",practice,2,1,stim\yellow.png,stim\gray.png,stim\gray.png,stim\gray.png,down,1,0,1,0,0,2,2,2,0,14,14,14,,,,,,,,,,,,,,,,,,,,,,,,,,,391.4475256999722,392.4494430000195,391.4475256999722,392.4494430000195,391.4475256999722,392.4494430000195,391.4475256999722,392.4494430000195,down,1,391.4475256999722,None,391.4475256999722,None,391.4475256999722,391.94864610000513,391.4475256999722,391.94864610000513,391.4475256999722,391.94864610000513,391.4475256999722,391.94864610000513,391.4475256999722,None,0.24662690004333854,,,,,,,,,,,,,,,,,,,,,,,,,,,,,,,,,,,,,,,,,,11016,001,2024_Jan_04_1358,nback,2021.2.3,59.76600413999689,
2-back,instructions\back-2.png,conditions\2back-p.xlsx,instructions\2-BACK.png,"(25, 15)",practice,2,2,stim\gray.png,stim\yellow.png,stim\gray.png,stim\gray.png,right,1,0,1,0,0,2,2,2,0,15,15,15,,,,,,,,,,,,,,,,,,,,,,,,,,,392.9493841000367,393.95150970004033,392.9493841000367,393.95150970004033,392.9493841000367,393.95150970004033,392.9493841000367,393.95150970004033,right,1,392.9493841000367,None,392.9493841000367,None,392.9493841000367,393.45050010003615,392.9493841000367,393.45050010003615,392.9493841000367,393.45050010003615,392.9493841000367,393.45050010003615,392.9493841000367,None,0.2571957999607548,,,,,,,,,,,,,,,,,,,,,,,,,,,,,,,,,,,,,,,,,,11016,001,2024_Jan_04_1358,nback,2021.2.3,59.76600413999689,
2-back,instructions\back-2.png,conditions\2back-p.xlsx,instructions\2-BACK.png,"(25, 15)",practice,2,3,stim\gray.png,stim\gray.png,stim\yellow.png,stim\gray.png,up,1,0,1,0,0,2,2,2,0,16,16,16,,,,,,,,,,,,,,,,,,,,,,,,,,,394.4520072999876,395.4540451000212,394.4520072999876,395.4540451000212,394.4520072999876,395.4540451000212,394.4520072999876,395.4540451000212,up,1,394.4520072999876,None,394.4520072999876,None,394.4520072999876,394.95235669997055,394.4520072999876,394.95235669997055,394.4520072999876,394.95235669997055,394.4520072999876,394.95235669997055,394.4520072999876,None,0.2582366999704391,,,,,,,,,,,,,,,,,,,,,,,,,,,,,,,,,,,,,,,,,,11016,001,2024_Jan_04_1358,nback,2021.2.3,59.76600413999689,
2-back,instructions\back-2.png,conditions\2back-p.xlsx,instructions\2-BACK.png,"(25, 15)",practice,2,1,stim\yellow.png,stim\gray.png,stim\gray.png,stim\gray.png,left,1,0,1,0,0,2,2,2,0,17,17,17,,,,,,,,,,,,,,,,,,,,,,,,,,,395.9538653000491,396.95531530003063,395.9538653000491,396.95531530003063,395.9538653000491,396.95531530003063,395.9538653000491,396.95531530003063,left,1,395.9538653000491,None,395.9538653000491,None,395.9538653000491,396.4552551000379,395.9538653000491,396.4552551000379,395.9538653000491,396.4552551000379,395.9538653000491,396.4552551000379,395.9538653000491,None,0.28443769994191825,,,,,,,,,,,,,,,,,,,,,,,,,,,,,,,,,,,,,,,,,,11016,001,2024_Jan_04_1358,nback,2021.2.3,59.76600413999689,
2-back,instructions\back-2.png,conditions\2back-p.xlsx,instructions\2-BACK.png,"(25, 15)",practice,2,4,stim\gray.png,stim\gray.png,stim\gray.png,stim\yellow.png,right,1,0,1,0,0,2,2,2,0,18,18,18,,,,,,,,,,,,,,,,,,,,,,,,,,,397.4560423999792,398.4579080999829,397.4560423999792,398.4579080999829,397.4560423999792,398.4579080999829,397.4560423999792,398.4579080999829,right,1,397.4560423999792,None,397.4560423999792,None,397.4560423999792,397.9568320000544,397.4560423999792,397.9568320000544,397.4560423999792,397.9568320000544,397.4560423999792,397.9568320000544,397.4560423999792,None,0.35828819999005646,,,,,,,,,,,,,,,,,,,,,,,,,,,,,,,,,,,,,,,,,,11016,001,2024_Jan_04_1358,nback,2021.2.3,59.76600413999689,
2-back,instructions\back-2.png,conditions\2back-p.xlsx,instructions\2-BACK.png,"(25, 15)",practice,2,2,stim\gray.png,stim\yellow.png,stim\gray.png,stim\gray.png,up,1,0,1,0,0,2,2,2,0,19,19,19,,,,,,,,,,,,,,,,,,,,,,,,,,,398.958535999991,399.96044399996754,398.958535999991,399.96044399996754,398.958535999991,399.96044399996754,398.958535999991,399.96044399996754,up,1,398.958535999991,None,398.958535999991,None,398.958535999991,399.45959590002894,398.958535999991,399.45959590002894,398.958535999991,399.45959590002894,398.958535999991,399.45959590002894,398.958535999991,None,0.42394889995921403,,,,,,,,,,,,,,,,,,,,,,,,,,,,,,,,,,,,,,,,,,11016,001,2024_Jan_04_1358,nback,2021.2.3,59.76600413999689,
2-back,instructions\back-2.png,conditions\2back-p.xlsx,instructions\2-BACK.png,"(25, 15)",,,,,,,,,1,0,1,0,0,2,2,2,,,,,,,,,,,,,,,,,,,,,,,,,,,,,,,,,,,,,,,,,,,,,,,,,,,,,,,,,,,,,,,,,,,,,,,,,,,,,,,,,,,,,,,,,,,,,,,,,11016,001,2024_Jan_04_1358,nback,2021.2.3,59.76600413999689,
,,,,,,,,,,,,,1,0,1,0,,,,,,,,,,,,,,,,,,,,,,,,,,,,,,,,,,,,,,,,,,,,,,,,,,,,,,,,,,,,400.4617115999572,None,space,3.9284944999963045,400.4617115999572,None,,,,,,,,,,,,,,,,,,,,,,,,,,,,,,,,,,,,11016,001,2024_Jan_04_1358,nback,2021.2.3,59.76600413999689,
,,,,,,,,,,,,,,,,,,,,,,,,,,,,,,,,,,,,,,,,,,,,,,,,,,,,,,,,,,,,,,,,,,,,,,,,,,,,,,,,,,404.41619679995347,None,space,20.478003999916837,404.41619679995347,None,,,,,,,,,,,,,,,,,,,,,,,,,,,,,,11016,001,2024_Jan_04_1358,nback,2021.2.3,59.76600413999689,
0-back,instructions\back-0.png,conditions\02back-e.xlsx,,,experiment,0,4,stim\gray.png,stim\gray.png,stim\gray.png,stim\yellow.png,down,,,,,,,,,,,,,0,0,0,7,0,0,0,0,,,,,,,,,,,,,,,425.08021949999966,429.5875195999397,429.53743649995886,None,,,,,,,,,,,,,,,,,,,,,,,,,,,,,,,,,,,,,,down,1,0.5644756000256166,429.9382574999472,None,429.9382574999472,None,429.9382574999472,430.93945189996157,429.9382574999472,430.93945189996157,429.9382574999472,430.93945189996157,429.9382574999472,430.93945189996157,429.9382574999472,430.4385463000508,429.9382574999472,430.4385463000508,429.9382574999472,430.4385463000508,429.9382574999472,430.4385463000508,429.9382574999472,None,,,,,11016,001,2024_Jan_04_1358,nback,2021.2.3,59.76600413999689,
0-back,instructions\back-0.png,conditions\02back-e.xlsx,,,experiment,0,2,stim\gray.png,stim\yellow.png,stim\gray.png,stim\gray.png,left,,,,,,,,,,,,,0,0,0,7,0,1,1,1,,,,,,,,,,,,,,,,,,,,,,,,,,,,,,,,,,,,,,,,,,,,,,,,,,,,,,,,left,1,0.3914486999856308,431.42284849996213,None,431.42284849996213,None,431.42284849996213,432.42451959999744,431.42284849996213,432.42451959999744,431.42284849996213,432.42451959999744,431.42284849996213,432.42451959999744,431.42284849996213,431.92443549993914,431.42284849996213,431.92443549993914,431.42284849996213,431.92443549993914,431.42284849996213,431.92443549993914,431.42284849996213,None,,,,,11016,001,2024_Jan_04_1358,nback,2021.2.3,59.76600413999689,
0-back,instructions\back-0.png,conditions\02back-e.xlsx,,,experiment,0,1,stim\yellow.png,stim\gray.png,stim\gray.png,stim\gray.png,up,,,,,,,,,,,,,0,0,0,7,0,2,2,2,,,,,,,,,,,,,,,,,,,,,,,,,,,,,,,,,,,,,,,,,,,,,,,,,,,,,,,,up,1,0.28127509995829314,432.9252149000531,None,432.9252149000531,None,432.9252149000531,433.92752210004255,432.9252149000531,433.92752210004255,432.9252149000531,433.92752210004255,432.9252149000531,433.92752210004255,432.9252149000531,433.4257924000267,432.9252149000531,433.4257924000267,432.9252149000531,433.4257924000267,432.9252149000531,433.4257924000267,432.9252149000531,None,,,,,11016,001,2024_Jan_04_1358,nback,2021.2.3,59.76600413999689,
0-back,instructions\back-0.png,conditions\02back-e.xlsx,,,experiment,0,2,stim\gray.png,stim\yellow.png,stim\gray.png,stim\gray.png,left,,,,,,,,,,,,,0,0,0,7,0,3,3,3,,,,,,,,,,,,,,,,,,,,,,,,,,,,,,,,,,,,,,,,,,,,,,,,,,,,,,,,left,1,0.4104752999264747,434.4277918000007,None,434.4277918000007,None,434.4277918000007,435.4299983000383,434.4277918000007,435.4299983000383,434.4277918000007,435.4299983000383,434.4277918000007,435.4299983000383,434.4277918000007,434.9282094000373,434.4277918000007,434.9282094000373,434.4277918000007,434.9282094000373,434.4277918000007,434.9282094000373,434.4277918000007,None,,,,,11016,001,2024_Jan_04_1358,nback,2021.2.3,59.76600413999689,
0-back,instructions\back-0.png,conditions\02back-e.xlsx,,,experiment,0,3,stim\gray.png,stim\gray.png,stim\yellow.png,stim\gray.png,right,,,,,,,,,,,,,0,0,0,7,0,4,4,4,,,,,,,,,,,,,,,,,,,,,,,,,,,,,,,,,,,,,,,,,,,,,,,,,,,,,,,,right,1,0.3004598000552505,435.930287300027,None,435.930287300027,None,435.930287300027,436.9317125000525,435.930287300027,436.9317125000525,435.930287300027,436.9317125000525,435.930287300027,436.9317125000525,435.930287300027,436.43114120000973,435.930287300027,436.43114120000973,435.930287300027,436.43114120000973,435.930287300027,436.43114120000973,435.930287300027,None,,,,,11016,001,2024_Jan_04_1358,nback,2021.2.3,59.76600413999689,
0-back,instructions\back-0.png,conditions\02back-e.xlsx,,,experiment,0,1,stim\yellow.png,stim\gray.png,stim\gray.png,stim\gray.png,up,,,,,,,,,,,,,0,0,0,7,0,5,5,5,,,,,,,,,,,,,,,,,,,,,,,,,,,,,,,,,,,,,,,,,,,,,,,,,,,,,,,,up,1,0.33392479992471635,437.43252919998486,None,437.43252919998486,None,437.43252919998486,438.4332643999951,437.43252919998486,438.4332643999951,437.43252919998486,438.4332643999951,437.43252919998486,438.4332643999951,437.43252919998486,437.9330040999921,437.43252919998486,437.9330040999921,437.43252919998486,437.9330040999921,437.43252919998486,437.9330040999921,437.43252919998486,None,,,,,11016,001,2024_Jan_04_1358,nback,2021.2.3,59.76600413999689,
0-back,instructions\back-0.png,conditions\02back-e.xlsx,,,experiment,0,2,stim\gray.png,stim\yellow.png,stim\gray.png,stim\gray.png,left,,,,,,,,,,,,,0,0,0,7,0,6,6,6,,,,,,,,,,,,,,,,,,,,,,,,,,,,,,,,,,,,,,,,,,,,,,,,,,,,,,,,left,1,0.32825459993910044,438.91806930000894,None,438.91806930000894,None,438.91806930000894,439.9194566999795,438.91806930000894,439.9194566999795,438.91806930000894,439.9194566999795,438.91806930000894,439.9194566999795,438.91806930000894,439.4188933999976,438.91806930000894,439.4188933999976,438.91806930000894,439.4188933999976,438.91806930000894,439.4188933999976,438.91806930000894,None,,,,,11016,001,2024_Jan_04_1358,nback,2021.2.3,59.76600413999689,
0-back,instructions\back-0.png,conditions\02back-e.xlsx,,,experiment,0,3,stim\gray.png,stim\gray.png,stim\yellow.png,stim\gray.png,right,,,,,,,,,,,,,0,0,0,7,0,7,7,7,,,,,,,,,,,,,,,,,,,,,,,,,,,,,,,,,,,,,,,,,,,,,,,,,,,,,,,,right,1,0.39357019995804876,440.4206843000138,None,440.4206843000138,None,440.4206843000138,441.4220084999688,440.4206843000138,441.4220084999688,440.4206843000138,441.4220084999688,440.4206843000138,441.4220084999688,440.4206843000138,440.92053769994527,440.4206843000138,440.92053769994527,440.4206843000138,440.92053769994527,440.4206843000138,440.92053769994527,440.4206843000138,None,,,,,11016,001,2024_Jan_04_1358,nback,2021.2.3,59.76600413999689,
0-back,instructions\back-0.png,conditions\02back-e.xlsx,,,experiment,0,4,stim\gray.png,stim\gray.png,stim\gray.png,stim\yellow.png,down,,,,,,,,,,,,,0,0,0,7,0,8,8,8,,,,,,,,,,,,,,,,,,,,,,,,,,,,,,,,,,,,,,,,,,,,,,,,,,,,,,,,down,1,0.39667929999995977,441.9219303999562,None,441.9219303999562,None,441.9219303999562,442.92419639998116,441.9219303999562,442.92419639998116,441.9219303999562,442.92419639998116,441.9219303999562,442.92419639998116,441.9219303999562,442.422509899945,441.9219303999562,442.422509899945,441.9219303999562,442.422509899945,441.9219303999562,442.422509899945,441.9219303999562,None,,,,,11016,001,2024_Jan_04_1358,nback,2021.2.3,59.76600413999689,
0-back,instructions\back-0.png,conditions\02back-e.xlsx,,,experiment,0,3,stim\gray.png,stim\gray.png,stim\yellow.png,stim\gray.png,right,,,,,,,,,,,,,0,0,0,7,0,9,9,9,,,,,,,,,,,,,,,,,,,,,,,,,,,,,,,,,,,,,,,,,,,,,,,,,,,,,,,,right,1,0.366723999963142,443.42409959994256,None,443.42409959994256,None,443.42409959994256,444.4261166000506,443.42409959994256,444.4261166000506,443.42409959994256,444.4261166000506,443.42409959994256,444.4261166000506,443.42409959994256,443.92501320003066,443.42409959994256,443.92501320003066,443.42409959994256,443.92501320003066,443.42409959994256,443.92501320003066,443.42409959994256,None,,,,,11016,001,2024_Jan_04_1358,nback,2021.2.3,59.76600413999689,
0-back,instructions\back-0.png,conditions\02back-e.xlsx,,,experiment,0,1,stim\yellow.png,stim\gray.png,stim\gray.png,stim\gray.png,up,,,,,,,,,,,,,0,0,0,7,0,10,10,10,,,,,,,,,,,,,,,,,,,,,,,,,,,,,,,,,,,,,,,,,,,,,,,,,,,,,,,,up,1,0.33606460003647953,444.92660050000995,None,444.92660050000995,None,444.92660050000995,445.9284202000126,444.92660050000995,445.9284202000126,444.92660050000995,445.9284202000126,444.92660050000995,445.9284202000126,444.92660050000995,445.4270932000363,444.92660050000995,445.4270932000363,444.92660050000995,445.4270932000363,444.92660050000995,445.4270932000363,444.92660050000995,None,,,,,11016,001,2024_Jan_04_1358,nback,2021.2.3,59.76600413999689,
0-back,instructions\back-0.png,conditions\02back-e.xlsx,,,experiment,0,4,stim\gray.png,stim\gray.png,stim\gray.png,stim\yellow.png,down,,,,,,,,,,,,,0,0,0,7,0,11,11,11,,,,,,,,,,,,,,,,,,,,,,,,,,,,,,,,,,,,,,,,,,,,,,,,,,,,,,,,down,1,0.48111559997778386,446.42928479996044,None,446.42928479996044,None,446.42928479996044,447.43031119997613,446.42928479996044,447.43031119997613,446.42928479996044,447.43031119997613,446.42928479996044,447.43031119997613,446.42928479996044,446.9302885000361,446.42928479996044,446.9302885000361,446.42928479996044,446.9302885000361,446.42928479996044,446.9302885000361,446.42928479996044,None,,,,,11016,001,2024_Jan_04_1358,nback,2021.2.3,59.76600413999689,
0-back,instructions\back-0.png,conditions\02back-e.xlsx,,,experiment,0,3,stim\gray.png,stim\gray.png,stim\yellow.png,stim\gray.png,right,,,,,,,,,,,,,0,0,0,7,0,12,12,12,,,,,,,,,,,,,,,,,,,,,,,,,,,,,,,,,,,,,,,,,,,,,,,,,,,,,,,,right,1,0.3475337999407202,447.9307249999838,None,447.9307249999838,None,447.9307249999838,448.9329114999855,447.9307249999838,448.9329114999855,447.9307249999838,448.9329114999855,447.9307249999838,448.9329114999855,447.9307249999838,448.43160320003517,447.9307249999838,448.43160320003517,447.9307249999838,448.43160320003517,447.9307249999838,448.43160320003517,447.9307249999838,None,,,,,11016,001,2024_Jan_04_1358,nback,2021.2.3,59.76600413999689,
0-back,instructions\back-0.png,conditions\02back-e.xlsx,,,experiment,0,1,stim\yellow.png,stim\gray.png,stim\gray.png,stim\gray.png,up,,,,,,,,,,,,,0,0,0,7,0,13,13,13,,,,,,,,,,,,,,,,,,,,,,,,,,,,,,,,,,,,,,,,,,,,,,,,,,,,,,,,up,1,0.3575361999683082,449.4329703999683,None,449.4329703999683,None,449.4329703999683,450.435271400027,449.4329703999683,450.435271400027,449.4329703999683,450.435271400027,449.4329703999683,450.435271400027,449.4329703999683,449.9347572999541,449.4329703999683,449.9347572999541,449.4329703999683,449.9347572999541,449.4329703999683,449.9347572999541,449.4329703999683,None,,,,,11016,001,2024_Jan_04_1358,nback,2021.2.3,59.76600413999689,
