backseq,backinstr,backfile,instruction,size_in,Trialtype,back,number,P1,P2,P3,P4,corrAns,trials_practice.thisRepN,trials_practice.thisTrialN,trials_practice.thisN,trials_practice.thisIndex,trials.thisRepN,trials.thisTrialN,trials.thisN,trials.thisIndex,trials_3.thisRepN,trials_3.thisTrialN,trials_3.thisN,trials_3.thisIndex,trials_2.thisRepN,trials_2.thisTrialN,trials_2.thisN,trials_2.thisIndex,trials_4.thisRepN,trials_4.thisTrialN,trials_4.thisN,trials_4.thisIndex,image.started,image.stopped,image_2.started,image_2.stopped,key_resp.keys,key_resp.rt,key_resp.started,key_resp.stopped,image_3.started,image_3.stopped,key_resp_2.keys,key_resp_2.rt,key_resp_2.started,key_resp_2.stopped,image_4.started,image_4.stopped,text.started,text.stopped,H1.started,H1.stopped,H2.started,H2.stopped,H3.started,H3.stopped,H4.started,H4.stopped,key_resp_3.keys,key_resp_3.corr,key_resp_3.rt,key_resp_3.started,key_resp_3.stopped,text_4.started,text_4.stopped,F1.started,F1.stopped,F2.started,F2.stopped,F3.started,F3.stopped,F4.started,F4.stopped,image_7.started,image_7.stopped,text_5.started,text_5.stopped,key_resp_6.keys,key_resp_6.rt,key_resp_6.started,key_resp_6.stopped,image_5.started,image_5.stopped,key_resp_4.keys,key_resp_4.rt,key_resp_4.started,key_resp_4.stopped,key_resp_5.keys,key_resp_5.corr,key_resp_5.started,key_resp_5.stopped,text_3.started,text_3.stopped,H1_2.started,H1_2.stopped,H2_2.started,H2_2.stopped,H3_2.started,H3_2.stopped,H4_2.started,H4_2.stopped,F1_2.started,F1_2.stopped,F2_2.started,F2_2.stopped,F3_2.started,F3_2.stopped,F4_2.started,F4_2.stopped,image_8.started,image_8.stopped,key_resp_5.rt,text_2.started,text_2.stopped,image_6.started,image_6.stopped,participant,session,date,expName,psychopyVersion,frameRate,
,,,,,,,,,,,,,,,,,,,,,,,,,,,,,,,,,12.987898599996697,None,13.940664499998093,None,space,35.53282600000966,13.940664499998093,None,,,,,,,,,,,,,,,,,,,,,,,,,,,,,,,,,,,,,,,,,,,,,,,,,,,,,,,,,,,,,,,,,,,,,,,,,,,,,11013,001,2024_Jan_02_1706,nback,2021.2.3,59.57679032175648,
0-back,instructions\back-0.png,conditions\0back-p.xlsx,instructions\0-BACK.png,"(15, 8)",practice,0,1,stim\yellow.png,stim\gray.png,stim\gray.png,stim\gray.png,up,0,0,0,0,0,0,0,0,0,0,0,0,,,,,,,,,,,,,,,,,49.542496100009885,None,space,70.8190850999672,49.542496100009885,None,120.51436769997235,125.02176279999549,124.9712404999882,None,125.40481229999568,126.40633239998715,125.40481229999568,126.40633239998715,125.40481229999568,126.40633239998715,125.40481229999568,126.40633239998715,up,1,0.4842948000296019,125.40481229999568,None,125.40481229999568,None,125.40481229999568,125.90554850001354,125.40481229999568,125.90554850001354,125.40481229999568,125.90554850001354,125.40481229999568,125.90554850001354,125.40481229999568,None,,,,,,,,,,,,,,,,,,,,,,,,,,,,,,,,,,,,,,,,,,11013,001,2024_Jan_02_1706,nback,2021.2.3,59.57679032175648,
0-back,instructions\back-0.png,conditions\0back-p.xlsx,instructions\0-BACK.png,"(15, 8)",practice,0,2,stim\gray.png,stim\yellow.png,stim\gray.png,stim\gray.png,left,0,0,0,0,0,0,0,0,0,1,1,1,,,,,,,,,,,,,,,,,,,,,,,,,,,126.88972999999532,127.89185849996284,126.88972999999532,127.89185849996284,126.88972999999532,127.89185849996284,126.88972999999532,127.89185849996284,left,1,0.4150676000281237,126.88972999999532,None,126.88972999999532,None,126.88972999999532,127.39172730001155,126.88972999999532,127.39172730001155,126.88972999999532,127.39172730001155,126.88972999999532,127.39172730001155,126.88972999999532,None,,,,,,,,,,,,,,,,,,,,,,,,,,,,,,,,,,,,,,,,,,11013,001,2024_Jan_02_1706,nback,2021.2.3,59.57679032175648,
0-back,instructions\back-0.png,conditions\0back-p.xlsx,instructions\0-BACK.png,"(15, 8)",practice,0,3,stim\gray.png,stim\gray.png,stim\yellow.png,stim\gray.png,right,0,0,0,0,0,0,0,0,0,2,2,2,,,,,,,,,,,,,,,,,,,,,,,,,,,128.39248569996562,129.3940383999725,128.39248569996562,129.3940383999725,128.39248569996562,129.3940383999725,128.39248569996562,129.3940383999725,right,1,0.4408281999640167,128.39248569996562,None,128.39248569996562,None,128.39248569996562,128.89425839995965,128.39248569996562,128.89425839995965,128.39248569996562,128.89425839995965,128.39248569996562,128.89425839995965,128.39248569996562,None,,,,,,,,,,,,,,,,,,,,,,,,,,,,,,,,,,,,,,,,,,11013,001,2024_Jan_02_1706,nback,2021.2.3,59.57679032175648,
0-back,instructions\back-0.png,conditions\0back-p.xlsx,instructions\0-BACK.png,"(15, 8)",practice,0,4,stim\gray.png,stim\gray.png,stim\gray.png,stim\yellow.png,down,0,0,0,0,0,0,0,0,0,3,3,3,,,,,,,,,,,,,,,,,,,,,,,,,,,129.89474540000083,130.8969060999807,129.89474540000083,130.8969060999807,129.89474540000083,130.8969060999807,129.89474540000083,130.8969060999807,down,1,0.45135250000748783,129.89474540000083,None,129.89474540000083,None,129.89474540000083,130.3957135999808,129.89474540000083,130.3957135999808,129.89474540000083,130.3957135999808,129.89474540000083,130.3957135999808,129.89474540000083,None,,,,,,,,,,,,,,,,,,,,,,,,,,,,,,,,,,,,,,,,,,11013,001,2024_Jan_02_1706,nback,2021.2.3,59.57679032175648,
0-back,instructions\back-0.png,conditions\0back-p.xlsx,instructions\0-BACK.png,"(15, 8)",practice,0,2,stim\gray.png,stim\yellow.png,stim\gray.png,stim\gray.png,left,0,0,0,0,0,0,0,0,0,4,4,4,,,,,,,,,,,,,,,,,,,,,,,,,,,131.39685700001428,132.39926330000162,131.39685700001428,132.39926330000162,131.39685700001428,132.39926330000162,131.39685700001428,132.39926330000162,left,1,0.2841332000098191,131.39685700001428,None,131.39685700001428,None,131.39685700001428,131.89763109997148,131.39685700001428,131.89763109997148,131.39685700001428,131.89763109997148,131.39685700001428,131.89763109997148,131.39685700001428,None,,,,,,,,,,,,,,,,,,,,,,,,,,,,,,,,,,,,,,,,,,11013,001,2024_Jan_02_1706,nback,2021.2.3,59.57679032175648,
0-back,instructions\back-0.png,conditions\0back-p.xlsx,instructions\0-BACK.png,"(15, 8)",practice,0,1,stim\yellow.png,stim\gray.png,stim\gray.png,stim\gray.png,up,0,0,0,0,0,0,0,0,0,5,5,5,,,,,,,,,,,,,,,,,,,,,,,,,,,132.8987199999974,133.90079919999698,132.8987199999974,133.90079919999698,132.8987199999974,133.90079919999698,132.8987199999974,133.90079919999698,up,1,0.40671750000910833,132.8987199999974,None,132.8987199999974,None,132.8987199999974,133.4000956999953,132.8987199999974,133.4000956999953,132.8987199999974,133.4000956999953,132.8987199999974,133.4000956999953,132.8987199999974,None,,,,,,,,,,,,,,,,,,,,,,,,,,,,,,,,,,,,,,,,,,11013,001,2024_Jan_02_1706,nback,2021.2.3,59.57679032175648,
0-back,instructions\back-0.png,conditions\0back-p.xlsx,instructions\0-BACK.png,"(15, 8)",practice,0,4,stim\gray.png,stim\gray.png,stim\gray.png,stim\yellow.png,down,0,0,0,0,0,0,0,0,0,6,6,6,,,,,,,,,,,,,,,,,,,,,,,,,,,134.40149839996593,135.4028381999815,134.40149839996593,135.4028381999815,134.40149839996593,135.4028381999815,134.40149839996593,135.4028381999815,down,1,0.4875130000291392,134.40149839996593,None,134.40149839996593,None,134.40149839996593,134.90221319999546,134.40149839996593,134.90221319999546,134.40149839996593,134.90221319999546,134.40149839996593,134.90221319999546,134.40149839996593,None,,,,,,,,,,,,,,,,,,,,,,,,,,,,,,,,,,,,,,,,,,11013,001,2024_Jan_02_1706,nback,2021.2.3,59.57679032175648,
0-back,instructions\back-0.png,conditions\0back-p.xlsx,instructions\0-BACK.png,"(15, 8)",practice,0,3,stim\gray.png,stim\gray.png,stim\yellow.png,stim\gray.png,right,0,0,0,0,0,0,0,0,0,7,7,7,,,,,,,,,,,,,,,,,,,,,,,,,,,135.8870511999703,136.88875629997347,135.8870511999703,136.88875629997347,135.8870511999703,136.88875629997347,135.8870511999703,136.88875629997347,right,1,0.3937116999877617,135.8870511999703,None,135.8870511999703,None,135.8870511999703,136.38847309997072,135.8870511999703,136.38847309997072,135.8870511999703,136.38847309997072,135.8870511999703,136.38847309997072,135.8870511999703,None,,,,,,,,,,,,,,,,,,,,,,,,,,,,,,,,,,,,,,,,,,11013,001,2024_Jan_02_1706,nback,2021.2.3,59.57679032175648,
0-back,instructions\back-0.png,conditions\0back-p.xlsx,instructions\0-BACK.png,"(15, 8)",practice,0,3,stim\gray.png,stim\gray.png,stim\yellow.png,stim\gray.png,right,0,0,0,0,0,0,0,0,0,8,8,8,,,,,,,,,,,,,,,,,,,,,,,,,,,137.3892737000133,138.3914008999709,137.3892737000133,138.3914008999709,137.3892737000133,138.3914008999709,137.3892737000133,138.3914008999709,right,1,0.395449000003282,137.3892737000133,None,137.3892737000133,None,137.3892737000133,137.8906585999648,137.3892737000133,137.8906585999648,137.3892737000133,137.8906585999648,137.3892737000133,137.8906585999648,137.3892737000133,None,,,,,,,,,,,,,,,,,,,,,,,,,,,,,,,,,,,,,,,,,,11013,001,2024_Jan_02_1706,nback,2021.2.3,59.57679032175648,
0-back,instructions\back-0.png,conditions\0back-p.xlsx,instructions\0-BACK.png,"(15, 8)",practice,0,4,stim\gray.png,stim\gray.png,stim\gray.png,stim\yellow.png,down,0,0,0,0,0,0,0,0,0,9,9,9,,,,,,,,,,,,,,,,,,,,,,,,,,,138.89097979996586,139.8930996999843,138.89097979996586,139.8930996999843,138.89097979996586,139.8930996999843,138.89097979996586,139.8930996999843,down,1,0.5501402000081725,138.89097979996586,None,138.89097979996586,None,138.89097979996586,139.39296119997744,138.89097979996586,139.39296119997744,138.89097979996586,139.39296119997744,138.89097979996586,139.39296119997744,138.89097979996586,None,,,,,,,,,,,,,,,,,,,,,,,,,,,,,,,,,,,,,,,,,,11013,001,2024_Jan_02_1706,nback,2021.2.3,59.57679032175648,
0-back,instructions\back-0.png,conditions\0back-p.xlsx,instructions\0-BACK.png,"(15, 8)",practice,0,1,stim\yellow.png,stim\gray.png,stim\gray.png,stim\gray.png,up,0,0,0,0,0,0,0,0,0,10,10,10,,,,,,,,,,,,,,,,,,,,,,,,,,,140.39370999997482,141.39596309995977,140.39370999997482,141.39596309995977,140.39370999997482,141.39596309995977,140.39370999997482,141.39596309995977,up,1,0.46330479998141527,140.39370999997482,None,140.39370999997482,None,140.39370999997482,140.89445039996644,140.39370999997482,140.89445039996644,140.39370999997482,140.89445039996644,140.39370999997482,140.89445039996644,140.39370999997482,None,,,,,,,,,,,,,,,,,,,,,,,,,,,,,,,,,,,,,,,,,,11013,001,2024_Jan_02_1706,nback,2021.2.3,59.57679032175648,
0-back,instructions\back-0.png,conditions\0back-p.xlsx,instructions\0-BACK.png,"(15, 8)",practice,0,2,stim\gray.png,stim\yellow.png,stim\gray.png,stim\gray.png,left,0,0,0,0,0,0,0,0,0,11,11,11,,,,,,,,,,,,,,,,,,,,,,,,,,,141.8965673999628,142.89766239997698,141.8965673999628,142.89766239997698,141.8965673999628,142.89766239997698,141.8965673999628,142.89766239997698,left,1,0.3281590999686159,141.8965673999628,None,141.8965673999628,None,141.8965673999628,142.39700639998773,141.8965673999628,142.39700639998773,141.8965673999628,142.39700639998773,141.8965673999628,142.39700639998773,141.8965673999628,None,,,,,,,,,,,,,,,,,,,,,,,,,,,,,,,,,,,,,,,,,,11013,001,2024_Jan_02_1706,nback,2021.2.3,59.57679032175648,
0-back,instructions\back-0.png,conditions\0back-p.xlsx,instructions\0-BACK.png,"(15, 8)",practice,0,4,stim\gray.png,stim\gray.png,stim\gray.png,stim\yellow.png,down,0,0,0,0,0,0,0,0,0,12,12,12,,,,,,,,,,,,,,,,,,,,,,,,,,,143.39821959997062,144.39976429997478,143.39821959997062,144.39976429997478,143.39821959997062,144.39976429997478,143.39821959997062,144.39976429997478,down,1,0.5545443000155501,143.39821959997062,None,143.39821959997062,None,143.39821959997062,143.89897989999736,143.39821959997062,143.89897989999736,143.39821959997062,143.89897989999736,143.39821959997062,143.89897989999736,143.39821959997062,None,,,,,,,,,,,,,,,,,,,,,,,,,,,,,,,,,,,,,,,,,,11013,001,2024_Jan_02_1706,nback,2021.2.3,59.57679032175648,
0-back,instructions\back-0.png,conditions\0back-p.xlsx,instructions\0-BACK.png,"(15, 8)",practice,0,3,stim\gray.png,stim\gray.png,stim\yellow.png,stim\gray.png,right,0,0,0,0,0,0,0,0,0,13,13,13,,,,,,,,,,,,,,,,,,,,,,,,,,,144.9012774999719,145.9022200999898,144.9012774999719,145.9022200999898,144.9012774999719,145.9022200999898,144.9012774999719,145.9022200999898,right,1,0.4515362000092864,144.9012774999719,None,144.9012774999719,None,144.9012774999719,145.40148559998488,144.9012774999719,145.40148559998488,144.9012774999719,145.40148559998488,144.9012774999719,145.40148559998488,144.9012774999719,None,,,,,,,,,,,,,,,,,,,,,,,,,,,,,,,,,,,,,,,,,,11013,001,2024_Jan_02_1706,nback,2021.2.3,59.57679032175648,
0-back,instructions\back-0.png,conditions\0back-p.xlsx,instructions\0-BACK.png,"(15, 8)",practice,0,1,stim\yellow.png,stim\gray.png,stim\gray.png,stim\gray.png,up,0,0,0,0,0,0,0,0,0,14,14,14,,,,,,,,,,,,,,,,,,,,,,,,,,,146.38572709995788,147.38743269996485,146.38572709995788,147.38743269996485,146.38572709995788,147.38743269996485,146.38572709995788,147.38743269996485,up,1,0.3190050999983214,146.38572709995788,None,146.38572709995788,None,146.38572709995788,146.88673699996434,146.38572709995788,146.88673699996434,146.38572709995788,146.88673699996434,146.38572709995788,146.88673699996434,146.38572709995788,None,,,,,,,,,,,,,,,,,,,,,,,,,,,,,,,,,,,,,,,,,,11013,001,2024_Jan_02_1706,nback,2021.2.3,59.57679032175648,
0-back,instructions\back-0.png,conditions\0back-p.xlsx,instructions\0-BACK.png,"(15, 8)",practice,0,2,stim\gray.png,stim\yellow.png,stim\gray.png,stim\gray.png,left,0,0,0,0,0,0,0,0,0,15,15,15,,,,,,,,,,,,,,,,,,,,,,,,,,,147.88809869997203,148.89030460000504,147.88809869997203,148.89030460000504,147.88809869997203,148.89030460000504,147.88809869997203,148.89030460000504,left,1,0.27291519998107105,147.88809869997203,None,147.88809869997203,None,147.88809869997203,148.3895975999767,147.88809869997203,148.3895975999767,147.88809869997203,148.3895975999767,147.88809869997203,148.3895975999767,147.88809869997203,None,,,,,,,,,,,,,,,,,,,,,,,,,,,,,,,,,,,,,,,,,,11013,001,2024_Jan_02_1706,nback,2021.2.3,59.57679032175648,
0-back,instructions\back-0.png,conditions\0back-p.xlsx,instructions\0-BACK.png,"(15, 8)",practice,0,3,stim\gray.png,stim\gray.png,stim\yellow.png,stim\gray.png,right,0,0,0,0,0,0,0,0,0,16,16,16,,,,,,,,,,,,,,,,,,,,,,,,,,,149.39041910000378,150.3926018999773,149.39041910000378,150.3926018999773,149.39041910000378,150.3926018999773,149.39041910000378,150.3926018999773,right,1,0.33888529997784644,149.39041910000378,None,149.39041910000378,None,149.39041910000378,149.89222719997633,149.39041910000378,149.89222719997633,149.39041910000378,149.89222719997633,149.39041910000378,149.89222719997633,149.39041910000378,None,,,,,,,,,,,,,,,,,,,,,,,,,,,,,,,,,,,,,,,,,,11013,001,2024_Jan_02_1706,nback,2021.2.3,59.57679032175648,
0-back,instructions\back-0.png,conditions\0back-p.xlsx,instructions\0-BACK.png,"(15, 8)",practice,0,1,stim\yellow.png,stim\gray.png,stim\gray.png,stim\gray.png,up,0,0,0,0,0,0,0,0,0,17,17,17,,,,,,,,,,,,,,,,,,,,,,,,,,,150.8931987999822,151.89561100001447,150.8931987999822,151.89561100001447,150.8931987999822,151.89561100001447,150.8931987999822,151.89561100001447,up,1,0.31604870001319796,150.8931987999822,None,150.8931987999822,None,150.8931987999822,151.3936357999919,150.8931987999822,151.3936357999919,150.8931987999822,151.3936357999919,150.8931987999822,151.3936357999919,150.8931987999822,None,,,,,,,,,,,,,,,,,,,,,,,,,,,,,,,,,,,,,,,,,,11013,001,2024_Jan_02_1706,nback,2021.2.3,59.57679032175648,
0-back,instructions\back-0.png,conditions\0back-p.xlsx,instructions\0-BACK.png,"(15, 8)",practice,0,4,stim\gray.png,stim\gray.png,stim\gray.png,stim\yellow.png,down,0,0,0,0,0,0,0,0,0,18,18,18,,,,,,,,,,,,,,,,,,,,,,,,,,,152.39557200000854,153.39663360000122,152.39557200000854,153.39663360000122,152.39557200000854,153.39663360000122,152.39557200000854,153.39663360000122,down,1,0.58159939997131,152.39557200000854,None,152.39557200000854,None,152.39557200000854,152.89627079997445,152.39557200000854,152.89627079997445,152.39557200000854,152.89627079997445,152.39557200000854,152.89627079997445,152.39557200000854,None,,,,,,,,,,,,,,,,,,,,,,,,,,,,,,,,,,,,,,,,,,11013,001,2024_Jan_02_1706,nback,2021.2.3,59.57679032175648,
0-back,instructions\back-0.png,conditions\0back-p.xlsx,instructions\0-BACK.png,"(15, 8)",practice,0,2,stim\gray.png,stim\yellow.png,stim\gray.png,stim\gray.png,left,0,0,0,0,0,0,0,0,0,19,19,19,,,,,,,,,,,,,,,,,,,,,,,,,,,153.89691159996437,154.89880179998,153.89691159996437,154.89880179998,153.89691159996437,154.89880179998,153.89691159996437,154.89880179998,left,1,0.30448059999616817,153.89691159996437,None,153.89691159996437,None,153.89691159996437,154.397868799977,153.89691159996437,154.397868799977,153.89691159996437,154.397868799977,153.89691159996437,154.397868799977,153.89691159996437,None,,,,,,,,,,,,,,,,,,,,,,,,,,,,,,,,,,,,,,,,,,11013,001,2024_Jan_02_1706,nback,2021.2.3,59.57679032175648,
0-back,instructions\back-0.png,conditions\0back-p.xlsx,instructions\0-BACK.png,"(15, 8)",,,,,,,,,0,0,0,0,0,0,0,0,,,,,,,,,,,,,,,,,,,,,,,,,,,,,,,,,,,,,,,,,,,,,,,,,,,,,,,,,,,,,,,,,,,,,,,,,,,,,,,,,,,,,,,,,,,,,,,,,11013,001,2024_Jan_02_1706,nback,2021.2.3,59.57679032175648,
1-back,instructions\back-1.png,conditions\1back-p.xlsx,instructions\1-BACK.png,"(25, 15)",practice,1,1,stim\yellow.png,stim\gray.png,stim\gray.png,stim\gray.png,None,0,0,0,0,0,1,1,1,0,0,0,0,,,,,,,,,,,,,,,,,155.532764100004,None,space,10.555917000048794,155.532764100004,None,166.24879709997913,170.7565925999661,170.7397362999618,None,171.14056139998138,172.14077180001186,171.14056139998138,172.14077180001186,171.14056139998138,172.14077180001186,171.14056139998138,172.14077180001186,None,1,,171.14056139998138,None,171.14056139998138,None,171.14056139998138,171.64009269996313,171.14056139998138,171.64009269996313,171.14056139998138,171.64009269996313,171.14056139998138,171.64009269996313,171.14056139998138,None,,,,,,,,,,,,,,,,,,,,,,,,,,,,,,,,,,,,,,,,,,11013,001,2024_Jan_02_1706,nback,2021.2.3,59.57679032175648,
1-back,instructions\back-1.png,conditions\1back-p.xlsx,instructions\1-BACK.png,"(25, 15)",practice,1,2,stim\gray.png,stim\yellow.png,stim\gray.png,stim\gray.png,up,0,0,0,0,0,1,1,1,0,1,1,1,,,,,,,,,,,,,,,,,,,,,,,,,,,172.62475349998567,173.62680209998507,172.62475349998567,173.62680209998507,172.62475349998567,173.62680209998507,172.62475349998567,173.62680209998507,up,1,0.3680604000110179,172.62475349998567,None,172.62475349998567,None,172.62475349998567,173.12570340000093,172.62475349998567,173.12570340000093,172.62475349998567,173.12570340000093,172.62475349998567,173.12570340000093,172.62475349998567,None,,,,,,,,,,,,,,,,,,,,,,,,,,,,,,,,,,,,,,,,,,11013,001,2024_Jan_02_1706,nback,2021.2.3,59.57679032175648,
1-back,instructions\back-1.png,conditions\1back-p.xlsx,instructions\1-BACK.png,"(25, 15)",practice,1,3,stim\gray.png,stim\gray.png,stim\yellow.png,stim\gray.png,left,0,0,0,0,0,1,1,1,0,2,2,2,,,,,,,,,,,,,,,,,,,,,,,,,,,174.12693329999456,175.1293462999747,174.12693329999456,175.1293462999747,174.12693329999456,175.1293462999747,174.12693329999456,175.1293462999747,left,1,0.6503540999838151,174.12693329999456,None,174.12693329999456,None,174.12693329999456,174.62802949995967,174.12693329999456,174.62802949995967,174.12693329999456,174.62802949995967,174.12693329999456,174.62802949995967,174.12693329999456,None,,,,,,,,,,,,,,,,,,,,,,,,,,,,,,,,,,,,,,,,,,11013,001,2024_Jan_02_1706,nback,2021.2.3,59.57679032175648,
1-back,instructions\back-1.png,conditions\1back-p.xlsx,instructions\1-BACK.png,"(25, 15)",practice,1,4,stim\gray.png,stim\gray.png,stim\gray.png,stim\yellow.png,right,0,0,0,0,0,1,1,1,0,3,3,3,,,,,,,,,,,,,,,,,,,,,,,,,,,175.6293149999692,176.63109959999565,175.6293149999692,176.63109959999565,175.6293149999692,176.63109959999565,175.6293149999692,176.63109959999565,right,1,0.8035499999532476,175.6293149999692,None,175.6293149999692,None,175.6293149999692,176.13010189996567,175.6293149999692,176.13010189996567,175.6293149999692,176.13010189996567,175.6293149999692,176.13010189996567,175.6293149999692,None,,,,,,,,,,,,,,,,,,,,,,,,,,,,,,,,,,,,,,,,,,11013,001,2024_Jan_02_1706,nback,2021.2.3,59.57679032175648,
1-back,instructions\back-1.png,conditions\1back-p.xlsx,instructions\1-BACK.png,"(25, 15)",practice,1,2,stim\gray.png,stim\yellow.png,stim\gray.png,stim\gray.png,down,0,0,0,0,0,1,1,1,0,4,4,4,,,,,,,,,,,,,,,,,,,,,,,,,,,177.131493999972,178.13316679996205,177.131493999972,178.13316679996205,177.131493999972,178.13316679996205,177.131493999972,178.13316679996205,left,0,0.6376511999987997,177.131493999972,None,177.131493999972,None,177.131493999972,177.63244079996366,177.131493999972,177.63244079996366,177.131493999972,177.63244079996366,177.131493999972,177.63244079996366,177.131493999972,None,,,,,,,,,,,,,,,,,,,,,,,,,,,,,,,,,,,,,,,,,,11013,001,2024_Jan_02_1706,nback,2021.2.3,59.57679032175648,
1-back,instructions\back-1.png,conditions\1back-p.xlsx,instructions\1-BACK.png,"(25, 15)",practice,1,1,stim\yellow.png,stim\gray.png,stim\gray.png,stim\gray.png,left,0,0,0,0,0,1,1,1,0,5,5,5,,,,,,,,,,,,,,,,,,,,,,,,,,,178.6336924000061,179.63567469996633,178.6336924000061,179.63567469996633,178.6336924000061,179.63567469996633,178.6336924000061,179.63567469996633,left,1,1.0950821000151336,178.6336924000061,None,178.6336924000061,None,178.6336924000061,179.13444829999935,178.6336924000061,179.13444829999935,178.6336924000061,179.13444829999935,178.6336924000061,179.13444829999935,178.6336924000061,None,,,,,,,,,,,,,,,,,,,,,,,,,,,,,,,,,,,,,,,,,,11013,001,2024_Jan_02_1706,nback,2021.2.3,59.57679032175648,
1-back,instructions\back-1.png,conditions\1back-p.xlsx,instructions\1-BACK.png,"(25, 15)",practice,1,4,stim\gray.png,stim\gray.png,stim\gray.png,stim\yellow.png,up,0,0,0,0,0,1,1,1,0,6,6,6,,,,,,,,,,,,,,,,,,,,,,,,,,,180.1193082999671,181.12084739998681,180.1193082999671,181.12084739998681,180.1193082999671,181.12084739998681,180.1193082999671,181.12084739998681,up,1,1.0735971000394784,180.1193082999671,None,180.1193082999671,None,180.1193082999671,180.61995490000118,180.1193082999671,180.61995490000118,180.1193082999671,180.61995490000118,180.1193082999671,180.61995490000118,180.1193082999671,None,,,,,,,,,,,,,,,,,,,,,,,,,,,,,,,,,,,,,,,,,,11013,001,2024_Jan_02_1706,nback,2021.2.3,59.57679032175648,
1-back,instructions\back-1.png,conditions\1back-p.xlsx,instructions\1-BACK.png,"(25, 15)",practice,1,3,stim\gray.png,stim\gray.png,stim\yellow.png,stim\gray.png,down,0,0,0,0,0,1,1,1,0,7,7,7,,,,,,,,,,,,,,,,,,,,,,,,,,,181.6219972000108,182.6233734000125,181.6219972000108,182.6233734000125,181.6219972000108,182.6233734000125,181.6219972000108,182.6233734000125,right,0,1.3634215999627486,181.6219972000108,None,181.6219972000108,None,181.6219972000108,182.12239129998488,181.6219972000108,182.12239129998488,181.6219972000108,182.12239129998488,181.6219972000108,182.12239129998488,181.6219972000108,None,,,,,,,,,,,,,,,,,,,,,,,,,,,,,,,,,,,,,,,,,,11013,001,2024_Jan_02_1706,nback,2021.2.3,59.57679032175648,
1-back,instructions\back-1.png,conditions\1back-p.xlsx,instructions\1-BACK.png,"(25, 15)",practice,1,3,stim\gray.png,stim\gray.png,stim\yellow.png,stim\gray.png,right,0,0,0,0,0,1,1,1,0,8,8,8,,,,,,,,,,,,,,,,,,,,,,,,,,,183.1236799999606,184.12534159998177,183.1236799999606,184.12534159998177,183.1236799999606,184.12534159998177,183.1236799999606,184.12534159998177,None,0,,183.1236799999606,None,183.1236799999606,None,183.1236799999606,183.6241990000126,183.1236799999606,183.6241990000126,183.1236799999606,183.6241990000126,183.1236799999606,183.6241990000126,183.1236799999606,None,,,,,,,,,,,,,,,,,,,,,,,,,,,,,,,,,,,,,,,,,,11013,001,2024_Jan_02_1706,nback,2021.2.3,59.57679032175648,
1-back,instructions\back-1.png,conditions\1back-p.xlsx,instructions\1-BACK.png,"(25, 15)",practice,1,4,stim\gray.png,stim\gray.png,stim\gray.png,stim\yellow.png,right,0,0,0,0,0,1,1,1,0,9,9,9,,,,,,,,,,,,,,,,,,,,,,,,,,,184.62616419995902,185.62821920000715,184.62616419995902,185.62821920000715,184.62616419995902,185.62821920000715,184.62616419995902,185.62821920000715,right,1,0.2946487999870442,184.62616419995902,None,184.62616419995902,None,184.62616419995902,185.12670219998108,184.62616419995902,185.12670219998108,184.62616419995902,185.12670219998108,184.62616419995902,185.12670219998108,184.62616419995902,None,,,,,,,,,,,,,,,,,,,,,,,,,,,,,,,,,,,,,,,,,,11013,001,2024_Jan_02_1706,nback,2021.2.3,59.57679032175648,
1-back,instructions\back-1.png,conditions\1back-p.xlsx,instructions\1-BACK.png,"(25, 15)",practice,1,1,stim\yellow.png,stim\gray.png,stim\gray.png,stim\gray.png,down,0,0,0,0,0,1,1,1,0,10,10,10,,,,,,,,,,,,,,,,,,,,,,,,,,,186.12814240000444,187.13125229999423,186.12814240000444,187.13125229999423,186.12814240000444,187.13125229999423,186.12814240000444,187.13125229999423,right,0,0.017248300020582974,186.12814240000444,None,186.12814240000444,None,186.12814240000444,186.62917719996767,186.12814240000444,186.62917719996767,186.12814240000444,186.62917719996767,186.12814240000444,186.62917719996767,186.12814240000444,None,,,,,,,,,,,,,,,,,,,,,,,,,,,,,,,,,,,,,,,,,,11013,001,2024_Jan_02_1706,nback,2021.2.3,59.57679032175648,
1-back,instructions\back-1.png,conditions\1back-p.xlsx,instructions\1-BACK.png,"(25, 15)",practice,1,2,stim\gray.png,stim\yellow.png,stim\gray.png,stim\gray.png,up,0,0,0,0,0,1,1,1,0,11,11,11,,,,,,,,,,,,,,,,,,,,,,,,,,,187.63069680001354,188.632077199989,187.63069680001354,188.632077199989,187.63069680001354,188.632077199989,187.63069680001354,188.632077199989,up,1,0.9381054000114091,187.63069680001354,None,187.63069680001354,None,187.63069680001354,188.13114640000276,187.63069680001354,188.13114640000276,187.63069680001354,188.13114640000276,187.63069680001354,188.13114640000276,187.63069680001354,None,,,,,,,,,,,,,,,,,,,,,,,,,,,,,,,,,,,,,,,,,,11013,001,2024_Jan_02_1706,nback,2021.2.3,59.57679032175648,
1-back,instructions\back-1.png,conditions\1back-p.xlsx,instructions\1-BACK.png,"(25, 15)",practice,1,4,stim\gray.png,stim\gray.png,stim\gray.png,stim\yellow.png,left,0,0,0,0,0,1,1,1,0,12,12,12,,,,,,,,,,,,,,,,,,,,,,,,,,,189.1325816999888,190.1345919999876,189.1325816999888,190.1345919999876,189.1325816999888,190.1345919999876,189.1325816999888,190.1345919999876,None,0,,189.1325816999888,None,189.1325816999888,None,189.1325816999888,189.63340459996834,189.1325816999888,189.63340459996834,189.1325816999888,189.63340459996834,189.1325816999888,189.63340459996834,189.1325816999888,None,,,,,,,,,,,,,,,,,,,,,,,,,,,,,,,,,,,,,,,,,,11013,001,2024_Jan_02_1706,nback,2021.2.3,59.57679032175648,
1-back,instructions\back-1.png,conditions\1back-p.xlsx,instructions\1-BACK.png,"(25, 15)",practice,1,3,stim\gray.png,stim\gray.png,stim\yellow.png,stim\gray.png,down,0,0,0,0,0,1,1,1,0,13,13,13,,,,,,,,,,,,,,,,,,,,,,,,,,,190.63472329999786,191.63637269998435,190.63472329999786,191.63637269998435,190.63472329999786,191.63637269998435,190.63472329999786,191.63637269998435,left,0,0.15811180003220215,190.63472329999786,None,190.63472329999786,None,190.63472329999786,191.13538689998677,190.63472329999786,191.13538689998677,190.63472329999786,191.13538689998677,190.63472329999786,191.13538689998677,190.63472329999786,None,,,,,,,,,,,,,,,,,,,,,,,,,,,,,,,,,,,,,,,,,,11013,001,2024_Jan_02_1706,nback,2021.2.3,59.57679032175648,
1-back,instructions\back-1.png,conditions\1back-p.xlsx,instructions\1-BACK.png,"(25, 15)",practice,1,1,stim\yellow.png,stim\gray.png,stim\gray.png,stim\gray.png,right,0,0,0,0,0,1,1,1,0,14,14,14,,,,,,,,,,,,,,,,,,,,,,,,,,,192.12035059998743,193.12282579997554,192.12035059998743,193.12282579997554,192.12035059998743,193.12282579997554,192.12035059998743,193.12282579997554,right,1,0.6884545999928378,192.12035059998743,None,192.12035059998743,None,192.12035059998743,192.6211178000085,192.12035059998743,192.6211178000085,192.12035059998743,192.6211178000085,192.12035059998743,192.6211178000085,192.12035059998743,None,,,,,,,,,,,,,,,,,,,,,,,,,,,,,,,,,,,,,,,,,,11013,001,2024_Jan_02_1706,nback,2021.2.3,59.57679032175648,
1-back,instructions\back-1.png,conditions\1back-p.xlsx,instructions\1-BACK.png,"(25, 15)",practice,1,2,stim\gray.png,stim\yellow.png,stim\gray.png,stim\gray.png,up,0,0,0,0,0,1,1,1,0,15,15,15,,,,,,,,,,,,,,,,,,,,,,,,,,,193.62291529995855,194.6238354999805,193.62291529995855,194.6238354999805,193.62291529995855,194.6238354999805,193.62291529995855,194.6238354999805,up,1,0.6099870000034571,193.62291529995855,None,193.62291529995855,None,193.62291529995855,194.1233865999966,193.62291529995855,194.1233865999966,193.62291529995855,194.1233865999966,193.62291529995855,194.1233865999966,193.62291529995855,None,,,,,,,,,,,,,,,,,,,,,,,,,,,,,,,,,,,,,,,,,,11013,001,2024_Jan_02_1706,nback,2021.2.3,59.57679032175648,
1-back,instructions\back-1.png,conditions\1back-p.xlsx,instructions\1-BACK.png,"(25, 15)",practice,1,3,stim\gray.png,stim\gray.png,stim\yellow.png,stim\gray.png,left,0,0,0,0,0,1,1,1,0,16,16,16,,,,,,,,,,,,,,,,,,,,,,,,,,,195.12481700000353,196.1269261999987,195.12481700000353,196.1269261999987,195.12481700000353,196.1269261999987,195.12481700000353,196.1269261999987,right,0,0.3484082999639213,195.12481700000353,None,195.12481700000353,None,195.12481700000353,195.62554679997265,195.12481700000353,195.62554679997265,195.12481700000353,195.62554679997265,195.12481700000353,195.62554679997265,195.12481700000353,None,,,,,,,,,,,,,,,,,,,,,,,,,,,,,,,,,,,,,,,,,,11013,001,2024_Jan_02_1706,nback,2021.2.3,59.57679032175648,
1-back,instructions\back-1.png,conditions\1back-p.xlsx,instructions\1-BACK.png,"(25, 15)",practice,1,1,stim\yellow.png,stim\gray.png,stim\gray.png,stim\gray.png,right,0,0,0,0,0,1,1,1,0,17,17,17,,,,,,,,,,,,,,,,,,,,,,,,,,,196.62710589997005,197.62838419998297,196.62710589997005,197.62838419998297,196.62710589997005,197.62838419998297,196.62710589997005,197.62838419998297,right,1,0.949665299966,196.62710589997005,None,196.62710589997005,None,196.62710589997005,197.12771410000278,196.62710589997005,197.12771410000278,196.62710589997005,197.12771410000278,196.62710589997005,197.12771410000278,196.62710589997005,None,,,,,,,,,,,,,,,,,,,,,,,,,,,,,,,,,,,,,,,,,,11013,001,2024_Jan_02_1706,nback,2021.2.3,59.57679032175648,
1-back,instructions\back-1.png,conditions\1back-p.xlsx,instructions\1-BACK.png,"(25, 15)",practice,1,4,stim\gray.png,stim\gray.png,stim\gray.png,stim\yellow.png,up,0,0,0,0,0,1,1,1,0,18,18,18,,,,,,,,,,,,,,,,,,,,,,,,,,,198.1290487999795,199.1313775999588,198.1290487999795,199.1313775999588,198.1290487999795,199.1313775999588,198.1290487999795,199.1313775999588,left,0,0.9037774000316858,198.1290487999795,None,198.1290487999795,None,198.1290487999795,198.63111089996528,198.1290487999795,198.63111089996528,198.1290487999795,198.63111089996528,198.1290487999795,198.63111089996528,198.1290487999795,None,,,,,,,,,,,,,,,,,,,,,,,,,,,,,,,,,,,,,,,,,,11013,001,2024_Jan_02_1706,nback,2021.2.3,59.57679032175648,
1-back,instructions\back-1.png,conditions\1back-p.xlsx,instructions\1-BACK.png,"(25, 15)",practice,1,2,stim\gray.png,stim\yellow.png,stim\gray.png,stim\gray.png,down,0,0,0,0,0,1,1,1,0,19,19,19,,,,,,,,,,,,,,,,,,,,,,,,,,,199.63138420000905,200.63380710000638,199.63138420000905,200.63380710000638,199.63138420000905,200.63380710000638,199.63138420000905,200.63380710000638,down,1,1.1298792000161484,199.63138420000905,None,199.63138420000905,None,199.63138420000905,200.1321966999676,199.63138420000905,200.1321966999676,199.63138420000905,200.1321966999676,199.63138420000905,200.1321966999676,199.63138420000905,None,,,,,,,,,,,,,,,,,,,,,,,,,,,,,,,,,,,,,,,,,,11013,001,2024_Jan_02_1706,nback,2021.2.3,59.57679032175648,
1-back,instructions\back-1.png,conditions\1back-p.xlsx,instructions\1-BACK.png,"(25, 15)",,,,,,,,,0,0,0,0,0,1,1,1,,,,,,,,,,,,,,,,,,,,,,,,,,,,,,,,,,,,,,,,,,,,,,,,,,,,,,,,,,,,,,,,,,,,,,,,,,,,,,,,,,,,,,,,,,,,,,,,,11013,001,2024_Jan_02_1706,nback,2021.2.3,59.57679032175648,
2-back,instructions\back-2.png,conditions\2back-p.xlsx,instructions\2-BACK.png,"(25, 15)",practice,2,1,stim\yellow.png,stim\gray.png,stim\gray.png,stim\gray.png,None,0,0,0,0,0,2,2,2,0,0,0,0,,,,,,,,,,,,,,,,,201.26712289999705,None,space,15.165608599956613,201.26712289999705,None,216.59122579998802,221.0978295999812,221.06350829999428,None,221.4813680999796,222.48347330000252,221.4813680999796,222.48347330000252,221.4813680999796,222.48347330000252,221.4813680999796,222.48347330000252,None,1,,221.4813680999796,None,221.4813680999796,None,221.4813680999796,221.98138949996792,221.4813680999796,221.98138949996792,221.4813680999796,221.98138949996792,221.4813680999796,221.98138949996792,221.4813680999796,None,,,,,,,,,,,,,,,,,,,,,,,,,,,,,,,,,,,,,,,,,,11013,001,2024_Jan_02_1706,nback,2021.2.3,59.57679032175648,
2-back,instructions\back-2.png,conditions\2back-p.xlsx,instructions\2-BACK.png,"(25, 15)",practice,2,2,stim\gray.png,stim\yellow.png,stim\gray.png,stim\gray.png,None,0,0,0,0,0,2,2,2,0,1,1,1,,,,,,,,,,,,,,,,,,,,,,,,,,,222.9667102000094,223.96757370000705,222.9667102000094,223.96757370000705,222.9667102000094,223.96757370000705,222.9667102000094,223.96757370000705,None,1,,222.9667102000094,None,222.9667102000094,None,222.9667102000094,223.4674622999737,222.9667102000094,223.4674622999737,222.9667102000094,223.4674622999737,222.9667102000094,223.4674622999737,222.9667102000094,None,,,,,,,,,,,,,,,,,,,,,,,,,,,,,,,,,,,,,,,,,,11013,001,2024_Jan_02_1706,nback,2021.2.3,59.57679032175648,
2-back,instructions\back-2.png,conditions\2back-p.xlsx,instructions\2-BACK.png,"(25, 15)",practice,2,3,stim\gray.png,stim\gray.png,stim\yellow.png,stim\gray.png,up,0,0,0,0,0,2,2,2,0,2,2,2,,,,,,,,,,,,,,,,,,,,,,,,,,,224.46836860000622,225.4708272999851,224.46836860000622,225.4708272999851,224.46836860000622,225.4708272999851,224.46836860000622,225.4708272999851,up,1,0.5647027000086382,224.46836860000622,None,224.46836860000622,None,224.46836860000622,224.96920409996528,224.46836860000622,224.96920409996528,224.46836860000622,224.96920409996528,224.46836860000622,224.96920409996528,224.46836860000622,None,,,,,,,,,,,,,,,,,,,,,,,,,,,,,,,,,,,,,,,,,,11013,001,2024_Jan_02_1706,nback,2021.2.3,59.57679032175648,
2-back,instructions\back-2.png,conditions\2back-p.xlsx,instructions\2-BACK.png,"(25, 15)",practice,2,4,stim\gray.png,stim\gray.png,stim\gray.png,stim\yellow.png,left,0,0,0,0,0,2,2,2,0,3,3,3,,,,,,,,,,,,,,,,,,,,,,,,,,,225.97057100001257,226.9720634999685,225.97057100001257,226.9720634999685,225.97057100001257,226.9720634999685,225.97057100001257,226.9720634999685,left,1,0.8223443999886513,225.97057100001257,None,225.97057100001257,None,225.97057100001257,226.472007400007,225.97057100001257,226.472007400007,225.97057100001257,226.472007400007,225.97057100001257,226.472007400007,225.97057100001257,None,,,,,,,,,,,,,,,,,,,,,,,,,,,,,,,,,,,,,,,,,,11013,001,2024_Jan_02_1706,nback,2021.2.3,59.57679032175648,
2-back,instructions\back-2.png,conditions\2back-p.xlsx,instructions\2-BACK.png,"(25, 15)",practice,2,2,stim\gray.png,stim\yellow.png,stim\gray.png,stim\gray.png,right,0,0,0,0,0,2,2,2,0,4,4,4,,,,,,,,,,,,,,,,,,,,,,,,,,,227.4726851999876,228.47513099998469,227.4726851999876,228.47513099998469,227.4726851999876,228.47513099998469,227.4726851999876,228.47513099998469,right,1,0.9765980000374839,227.4726851999876,None,227.4726851999876,None,227.4726851999876,227.9744614000083,227.4726851999876,227.9744614000083,227.4726851999876,227.9744614000083,227.4726851999876,227.9744614000083,227.4726851999876,None,,,,,,,,,,,,,,,,,,,,,,,,,,,,,,,,,,,,,,,,,,11013,001,2024_Jan_02_1706,nback,2021.2.3,59.57679032175648,
2-back,instructions\back-2.png,conditions\2back-p.xlsx,instructions\2-BACK.png,"(25, 15)",practice,2,1,stim\yellow.png,stim\gray.png,stim\gray.png,stim\gray.png,down,0,0,0,0,0,2,2,2,0,5,5,5,,,,,,,,,,,,,,,,,,,,,,,,,,,228.975073300011,229.97752720001154,228.975073300011,229.97752720001154,228.975073300011,229.97752720001154,228.975073300011,229.97752720001154,down,1,0.8500554999918677,228.975073300011,None,228.975073300011,None,228.975073300011,229.47647309995955,228.975073300011,229.47647309995955,228.975073300011,229.47647309995955,228.975073300011,229.47647309995955,228.975073300011,None,,,,,,,,,,,,,,,,,,,,,,,,,,,,,,,,,,,,,,,,,,11013,001,2024_Jan_02_1706,nback,2021.2.3,59.57679032175648,
2-back,instructions\back-2.png,conditions\2back-p.xlsx,instructions\2-BACK.png,"(25, 15)",practice,2,4,stim\gray.png,stim\gray.png,stim\gray.png,stim\yellow.png,left,0,0,0,0,0,2,2,2,0,6,6,6,,,,,,,,,,,,,,,,,,,,,,,,,,,230.4604466999881,231.462859799969,230.4604466999881,231.462859799969,230.4604466999881,231.462859799969,230.4604466999881,231.462859799969,left,1,0.8924892999930307,230.4604466999881,None,230.4604466999881,None,230.4604466999881,230.96225019998383,230.4604466999881,230.96225019998383,230.4604466999881,230.96225019998383,230.4604466999881,230.96225019998383,230.4604466999881,None,,,,,,,,,,,,,,,,,,,,,,,,,,,,,,,,,,,,,,,,,,11013,001,2024_Jan_02_1706,nback,2021.2.3,59.57679032175648,
2-back,instructions\back-2.png,conditions\2back-p.xlsx,instructions\2-BACK.png,"(25, 15)",practice,2,3,stim\gray.png,stim\gray.png,stim\yellow.png,stim\gray.png,up,0,0,0,0,0,2,2,2,0,7,7,7,,,,,,,,,,,,,,,,,,,,,,,,,,,231.96273139998084,232.96455849998165,231.96273139998084,232.96455849998165,231.96273139998084,232.96455849998165,231.96273139998084,232.96455849998165,up,1,0.7021203000331298,231.96273139998084,None,231.96273139998084,None,231.96273139998084,232.46462479996262,231.96273139998084,232.46462479996262,231.96273139998084,232.46462479996262,231.96273139998084,232.46462479996262,231.96273139998084,None,,,,,,,,,,,,,,,,,,,,,,,,,,,,,,,,,,,,,,,,,,11013,001,2024_Jan_02_1706,nback,2021.2.3,59.57679032175648,
2-back,instructions\back-2.png,conditions\2back-p.xlsx,instructions\2-BACK.png,"(25, 15)",practice,2,3,stim\gray.png,stim\gray.png,stim\yellow.png,stim\gray.png,down,0,0,0,0,0,2,2,2,0,8,8,8,,,,,,,,,,,,,,,,,,,,,,,,,,,233.46501669997815,234.46682679996593,233.46501669997815,234.46682679996593,233.46501669997815,234.46682679996593,233.46501669997815,234.46682679996593,right,0,0.38402339996537194,233.46501669997815,None,233.46501669997815,None,233.46501669997815,233.9662185999914,233.46501669997815,233.9662185999914,233.46501669997815,233.9662185999914,233.46501669997815,233.9662185999914,233.46501669997815,None,,,,,,,,,,,,,,,,,,,,,,,,,,,,,,,,,,,,,,,,,,11013,001,2024_Jan_02_1706,nback,2021.2.3,59.57679032175648,
2-back,instructions\back-2.png,conditions\2back-p.xlsx,instructions\2-BACK.png,"(25, 15)",practice,2,4,stim\gray.png,stim\gray.png,stim\gray.png,stim\yellow.png,right,0,0,0,0,0,2,2,2,0,9,9,9,,,,,,,,,,,,,,,,,,,,,,,,,,,234.96719200001098,235.96943810000084,234.96719200001098,235.96943810000084,234.96719200001098,235.96943810000084,234.96719200001098,235.96943810000084,None,0,,234.96719200001098,None,234.96719200001098,None,234.96719200001098,235.46864360000473,234.96719200001098,235.46864360000473,234.96719200001098,235.46864360000473,234.96719200001098,235.46864360000473,234.96719200001098,None,,,,,,,,,,,,,,,,,,,,,,,,,,,,,,,,,,,,,,,,,,11013,001,2024_Jan_02_1706,nback,2021.2.3,59.57679032175648,
2-back,instructions\back-2.png,conditions\2back-p.xlsx,instructions\2-BACK.png,"(25, 15)",practice,2,1,stim\yellow.png,stim\gray.png,stim\gray.png,stim\gray.png,right,0,0,0,0,0,2,2,2,0,10,10,10,,,,,,,,,,,,,,,,,,,,,,,,,,,236.47014079999644,237.47161139996024,236.47014079999644,237.47161139996024,236.47014079999644,237.47161139996024,236.47014079999644,237.47161139996024,up,0,0.2347307000309229,236.47014079999644,None,236.47014079999644,None,236.47014079999644,236.97016769996844,236.47014079999644,236.97016769996844,236.47014079999644,236.97016769996844,236.47014079999644,236.97016769996844,236.47014079999644,None,,,,,,,,,,,,,,,,,,,,,,,,,,,,,,,,,,,,,,,,,,11013,001,2024_Jan_02_1706,nback,2021.2.3,59.57679032175648,
2-back,instructions\back-2.png,conditions\2back-p.xlsx,instructions\2-BACK.png,"(25, 15)",practice,2,2,stim\gray.png,stim\yellow.png,stim\gray.png,stim\gray.png,down,0,0,0,0,0,2,2,2,0,11,11,11,,,,,,,,,,,,,,,,,,,,,,,,,,,237.97172879998107,238.97411680000369,237.97172879998107,238.97411680000369,237.97172879998107,238.97411680000369,237.97172879998107,238.97411680000369,None,0,,237.97172879998107,None,237.97172879998107,None,237.97172879998107,238.47230009996565,237.97172879998107,238.47230009996565,237.97172879998107,238.47230009996565,237.97172879998107,238.47230009996565,237.97172879998107,None,,,,,,,,,,,,,,,,,,,,,,,,,,,,,,,,,,,,,,,,,,11013,001,2024_Jan_02_1706,nback,2021.2.3,59.57679032175648,
2-back,instructions\back-2.png,conditions\2back-p.xlsx,instructions\2-BACK.png,"(25, 15)",practice,2,4,stim\gray.png,stim\gray.png,stim\gray.png,stim\yellow.png,up,0,0,0,0,0,2,2,2,0,12,12,12,,,,,,,,,,,,,,,,,,,,,,,,,,,239.47459840000374,240.47515169996768,239.47459840000374,240.47515169996768,239.47459840000374,240.47515169996768,239.47459840000374,240.47515169996768,up,1,1.022574100003112,239.47459840000374,None,239.47459840000374,None,239.47459840000374,239.9746157999616,239.47459840000374,239.9746157999616,239.47459840000374,239.9746157999616,239.47459840000374,239.9746157999616,239.47459840000374,None,,,,,,,,,,,,,,,,,,,,,,,,,,,,,,,,,,,,,,,,,,11013,001,2024_Jan_02_1706,nback,2021.2.3,59.57679032175648,
2-back,instructions\back-2.png,conditions\2back-p.xlsx,instructions\2-BACK.png,"(25, 15)",practice,2,3,stim\gray.png,stim\gray.png,stim\yellow.png,stim\gray.png,left,0,0,0,0,0,2,2,2,0,13,13,13,,,,,,,,,,,,,,,,,,,,,,,,,,,240.97613500000443,241.97852979996242,240.97613500000443,241.97852979996242,240.97613500000443,241.97852979996242,240.97613500000443,241.97852979996242,left,1,0.7853740000282414,240.97613500000443,None,240.97613500000443,None,240.97613500000443,241.47709429997485,240.97613500000443,241.47709429997485,240.97613500000443,241.47709429997485,240.97613500000443,241.47709429997485,240.97613500000443,None,,,,,,,,,,,,,,,,,,,,,,,,,,,,,,,,,,,,,,,,,,11013,001,2024_Jan_02_1706,nback,2021.2.3,59.57679032175648,
2-back,instructions\back-2.png,conditions\2back-p.xlsx,instructions\2-BACK.png,"(25, 15)",practice,2,1,stim\yellow.png,stim\gray.png,stim\gray.png,stim\gray.png,down,0,0,0,0,0,2,2,2,0,14,14,14,,,,,,,,,,,,,,,,,,,,,,,,,,,242.46233820001362,243.4640305999783,242.46233820001362,243.4640305999783,242.46233820001362,243.4640305999783,242.46233820001362,243.4640305999783,left,0,0.8265065000159666,242.46233820001362,None,242.46233820001362,None,242.46233820001362,242.9631245000055,242.46233820001362,242.9631245000055,242.46233820001362,242.9631245000055,242.46233820001362,242.9631245000055,242.46233820001362,None,,,,,,,,,,,,,,,,,,,,,,,,,,,,,,,,,,,,,,,,,,11013,001,2024_Jan_02_1706,nback,2021.2.3,59.57679032175648,
2-back,instructions\back-2.png,conditions\2back-p.xlsx,instructions\2-BACK.png,"(25, 15)",practice,2,2,stim\gray.png,stim\yellow.png,stim\gray.png,stim\gray.png,right,0,0,0,0,0,2,2,2,0,15,15,15,,,,,,,,,,,,,,,,,,,,,,,,,,,243.964492900006,244.96523169998545,243.964492900006,244.96523169998545,243.964492900006,244.96523169998545,243.964492900006,244.96523169998545,down,0,0.844448400021065,243.964492900006,None,243.964492900006,None,243.964492900006,244.46546669997042,243.964492900006,244.46546669997042,243.964492900006,244.46546669997042,243.964492900006,244.46546669997042,243.964492900006,None,,,,,,,,,,,,,,,,,,,,,,,,,,,,,,,,,,,,,,,,,,11013,001,2024_Jan_02_1706,nback,2021.2.3,59.57679032175648,
2-back,instructions\back-2.png,conditions\2back-p.xlsx,instructions\2-BACK.png,"(25, 15)",practice,2,3,stim\gray.png,stim\gray.png,stim\yellow.png,stim\gray.png,up,0,0,0,0,0,2,2,2,0,16,16,16,,,,,,,,,,,,,,,,,,,,,,,,,,,245.46598799998173,246.46766869997373,245.46598799998173,246.46766869997373,245.46598799998173,246.46766869997373,245.46598799998173,246.46766869997373,left,0,1.1989933000295423,245.46598799998173,None,245.46598799998173,None,245.46598799998173,245.9676852999837,245.46598799998173,245.9676852999837,245.46598799998173,245.9676852999837,245.46598799998173,245.9676852999837,245.46598799998173,None,,,,,,,,,,,,,,,,,,,,,,,,,,,,,,,,,,,,,,,,,,11013,001,2024_Jan_02_1706,nback,2021.2.3,59.57679032175648,
2-back,instructions\back-2.png,conditions\2back-p.xlsx,instructions\2-BACK.png,"(25, 15)",practice,2,1,stim\yellow.png,stim\gray.png,stim\gray.png,stim\gray.png,left,0,0,0,0,0,2,2,2,0,17,17,17,,,,,,,,,,,,,,,,,,,,,,,,,,,246.96826940000756,247.96985880000284,246.96826940000756,247.96985880000284,246.96826940000756,247.96985880000284,246.96826940000756,247.96985880000284,None,0,,246.96826940000756,None,246.96826940000756,None,246.96826940000756,247.46913119999226,246.96826940000756,247.46913119999226,246.96826940000756,247.46913119999226,246.96826940000756,247.46913119999226,246.96826940000756,None,,,,,,,,,,,,,,,,,,,,,,,,,,,,,,,,,,,,,,,,,,11013,001,2024_Jan_02_1706,nback,2021.2.3,59.57679032175648,
2-back,instructions\back-2.png,conditions\2back-p.xlsx,instructions\2-BACK.png,"(25, 15)",practice,2,4,stim\gray.png,stim\gray.png,stim\gray.png,stim\yellow.png,right,0,0,0,0,0,2,2,2,0,18,18,18,,,,,,,,,,,,,,,,,,,,,,,,,,,248.471199099964,249.47292669996386,248.471199099964,249.47292669996386,248.471199099964,249.47292669996386,248.471199099964,249.47292669996386,right,1,0.07378609996521845,248.471199099964,None,248.471199099964,None,248.471199099964,248.9724083999754,248.471199099964,248.9724083999754,248.471199099964,248.9724083999754,248.471199099964,248.9724083999754,248.471199099964,None,,,,,,,,,,,,,,,,,,,,,,,,,,,,,,,,,,,,,,,,,,11013,001,2024_Jan_02_1706,nback,2021.2.3,59.57679032175648,
2-back,instructions\back-2.png,conditions\2back-p.xlsx,instructions\2-BACK.png,"(25, 15)",practice,2,2,stim\gray.png,stim\yellow.png,stim\gray.png,stim\gray.png,up,0,0,0,0,0,2,2,2,0,19,19,19,,,,,,,,,,,,,,,,,,,,,,,,,,,249.97315309999976,250.9752121999627,249.97315309999976,250.9752121999627,249.97315309999976,250.9752121999627,249.97315309999976,250.9752121999627,None,0,,249.97315309999976,None,249.97315309999976,None,249.97315309999976,250.47538959997473,249.97315309999976,250.47538959997473,249.97315309999976,250.47538959997473,249.97315309999976,250.47538959997473,249.97315309999976,None,,,,,,,,,,,,,,,,,,,,,,,,,,,,,,,,,,,,,,,,,,11013,001,2024_Jan_02_1706,nback,2021.2.3,59.57679032175648,
2-back,instructions\back-2.png,conditions\2back-p.xlsx,instructions\2-BACK.png,"(25, 15)",,,,,,,,,0,0,0,0,0,2,2,2,,,,,,,,,,,,,,,,,,,,,,,,,,,,,,,,,,,,,,,,,,,,,,,,,,,,,,,,,,,,,,,,,,,,,,,,,,,,,,,,,,,,,,,,,,,,,,,,,11013,001,2024_Jan_02_1706,nback,2021.2.3,59.57679032175648,
,,,,,,,,,,,,,0,0,0,0,,,,,,,,,,,,,,,,,,,,,,,,,,,,,,,,,,,,,,,,,,,,,,,,,,,,,,,,,,,,251.47496039996622,None,space,30.470233899948653,251.47496039996622,None,,,,,,,,,,,,,,,,,,,,,,,,,,,,,,,,,,,,11013,001,2024_Jan_02_1706,nback,2021.2.3,59.57679032175648,
,,,,,,,,,,,,,,,,,,,,,,,,,,,,,,,,,,,,,,,,,,,,,,,,,,,,,,,,,,,,,,,,,,,,,,,,,,,,,,,,,,281.9716245000018,None,space,24.38138679997064,281.9716245000018,None,,,,,,,,,,,,,,,,,,,,,,,,,,,,,,11013,001,2024_Jan_02_1706,nback,2021.2.3,59.57679032175648,
2-back,instructions\back-2.png,conditions\22back-e.xlsx,,,experiment,2,2,stim\gray.png,stim\yellow.png,stim\gray.png,stim\gray.png,None,,,,,,,,,,,,,0,0,0,8,0,0,0,0,,,,,,,,,,,,,,,306.50667779997457,311.014852399996,310.98118120001163,None,,,,,,,,,,,,,,,,,,,,,,,,,,,,,,,,,,,,,,None,1,311.3971146999975,None,311.3971146999975,None,311.3971146999975,312.39839569997275,311.3971146999975,312.39839569997275,311.3971146999975,312.39839569997275,311.3971146999975,312.39839569997275,311.3971146999975,311.89784699998563,311.3971146999975,311.89784699998563,311.3971146999975,311.89784699998563,311.3971146999975,311.89784699998563,311.3971146999975,None,,,,,,11013,001,2024_Jan_02_1706,nback,2021.2.3,59.57679032175648,
2-back,instructions\back-2.png,conditions\22back-e.xlsx,,,experiment,2,3,stim\gray.png,stim\gray.png,stim\yellow.png,stim\gray.png,None,,,,,,,,,,,,,0,0,0,8,0,1,1,1,,,,,,,,,,,,,,,,,,,,,,,,,,,,,,,,,,,,,,,,,,,,,,,,,,,,,,,,None,1,312.8831234999816,None,312.8831234999816,None,312.8831234999816,313.88391009997576,312.8831234999816,313.88391009997576,312.8831234999816,313.88391009997576,312.8831234999816,313.88391009997576,312.8831234999816,313.3833823999739,312.8831234999816,313.3833823999739,312.8831234999816,313.3833823999739,312.8831234999816,313.3833823999739,312.8831234999816,None,,,,,,11013,001,2024_Jan_02_1706,nback,2021.2.3,59.57679032175648,
2-back,instructions\back-2.png,conditions\22back-e.xlsx,,,experiment,2,1,stim\yellow.png,stim\gray.png,stim\gray.png,stim\gray.png,left,,,,,,,,,,,,,0,0,0,8,0,2,2,2,,,,,,,,,,,,,,,,,,,,,,,,,,,,,,,,,,,,,,,,,,,,,,,,,,,,,,,,None,0,314.3852268999908,None,314.3852268999908,None,314.3852268999908,315.38699599995743,314.3852268999908,315.38699599995743,314.3852268999908,315.38699599995743,314.3852268999908,315.38699599995743,314.3852268999908,314.8863554999698,314.3852268999908,314.8863554999698,314.3852268999908,314.8863554999698,314.3852268999908,314.8863554999698,314.3852268999908,None,,,,,,11013,001,2024_Jan_02_1706,nback,2021.2.3,59.57679032175648,
2-back,instructions\back-2.png,conditions\22back-e.xlsx,,,experiment,2,2,stim\gray.png,stim\yellow.png,stim\gray.png,stim\gray.png,right,,,,,,,,,,,,,0,0,0,8,0,3,3,3,,,,,,,,,,,,,,,,,,,,,,,,,,,,,,,,,,,,,,,,,,,,,,,,,,,,,,,,left,0,315.8879717999953,None,315.8879717999953,None,315.8879717999953,316.8887007999583,315.8879717999953,316.8887007999583,315.8879717999953,316.8887007999583,315.8879717999953,316.8887007999583,315.8879717999953,316.38873199996306,315.8879717999953,316.38873199996306,315.8879717999953,316.38873199996306,315.8879717999953,316.38873199996306,315.8879717999953,None,0.24101649998920038,,,,,11013,001,2024_Jan_02_1706,nback,2021.2.3,59.57679032175648,
2-back,instructions\back-2.png,conditions\22back-e.xlsx,,,experiment,2,1,stim\yellow.png,stim\gray.png,stim\gray.png,stim\gray.png,up,,,,,,,,,,,,,0,0,0,8,0,4,4,4,,,,,,,,,,,,,,,,,,,,,,,,,,,,,,,,,,,,,,,,,,,,,,,,,,,,,,,,right,0,317.38928569998825,None,317.38928569998825,None,317.38928569998825,318.39126289996784,317.38928569998825,318.39126289996784,317.38928569998825,318.39126289996784,317.38928569998825,318.39126289996784,317.38928569998825,317.8904868999962,317.38928569998825,317.8904868999962,317.38928569998825,317.8904868999962,317.38928569998825,317.8904868999962,317.38928569998825,None,0.43566369998734444,,,,,11013,001,2024_Jan_02_1706,nback,2021.2.3,59.57679032175648,
2-back,instructions\back-2.png,conditions\22back-e.xlsx,,,experiment,2,4,stim\gray.png,stim\gray.png,stim\gray.png,stim\yellow.png,left,,,,,,,,,,,,,0,0,0,8,0,5,5,5,,,,,,,,,,,,,,,,,,,,,,,,,,,,,,,,,,,,,,,,,,,,,,,,,,,,,,,,up,0,318.89148980000755,None,318.89148980000755,None,318.89148980000755,319.8936509999912,318.89148980000755,319.8936509999912,318.89148980000755,319.8936509999912,318.89148980000755,319.8936509999912,318.89148980000755,319.39238519995706,318.89148980000755,319.39238519995706,318.89148980000755,319.39238519995706,318.89148980000755,319.39238519995706,318.89148980000755,None,0.12547640001866966,,,,,11013,001,2024_Jan_02_1706,nback,2021.2.3,59.57679032175648,
2-back,instructions\back-2.png,conditions\22back-e.xlsx,,,experiment,2,3,stim\gray.png,stim\gray.png,stim\yellow.png,stim\gray.png,up,,,,,,,,,,,,,0,0,0,8,0,6,6,6,,,,,,,,,,,,,,,,,,,,,,,,,,,,,,,,,,,,,,,,,,,,,,,,,,,,,,,,down,0,320.377561900008,None,320.377561900008,None,320.377561900008,321.37845540000126,320.377561900008,321.37845540000126,320.377561900008,321.37845540000126,320.377561900008,321.37845540000126,320.377561900008,320.8791103999829,320.377561900008,320.8791103999829,320.377561900008,320.8791103999829,320.377561900008,320.8791103999829,320.377561900008,None,0.639482400030829,,,,,11013,001,2024_Jan_02_1706,nback,2021.2.3,59.57679032175648,
2-back,instructions\back-2.png,conditions\22back-e.xlsx,,,experiment,2,1,stim\yellow.png,stim\gray.png,stim\gray.png,stim\gray.png,down,,,,,,,,,,,,,0,0,0,8,0,7,7,7,,,,,,,,,,,,,,,,,,,,,,,,,,,,,,,,,,,,,,,,,,,,,,,,,,,,,,,,right,0,321.87941890000366,None,321.87941890000366,None,321.87941890000366,322.88197280000895,321.87941890000366,322.88197280000895,321.87941890000366,322.88197280000895,321.87941890000366,322.88197280000895,321.87941890000366,322.3811413999647,321.87941890000366,322.3811413999647,321.87941890000366,322.3811413999647,321.87941890000366,322.3811413999647,321.87941890000366,None,0.5936361000058241,,,,,11013,001,2024_Jan_02_1706,nback,2021.2.3,59.57679032175648,
2-back,instructions\back-2.png,conditions\22back-e.xlsx,,,experiment,2,2,stim\gray.png,stim\yellow.png,stim\gray.png,stim\gray.png,right,,,,,,,,,,,,,0,0,0,8,0,8,8,8,,,,,,,,,,,,,,,,,,,,,,,,,,,,,,,,,,,,,,,,,,,,,,,,,,,,,,,,left,0,323.381473299989,None,323.381473299989,None,323.381473299989,324.38349769997876,323.381473299989,324.38349769997876,323.381473299989,324.38349769997876,323.381473299989,324.38349769997876,323.381473299989,323.8827303999569,323.381473299989,323.8827303999569,323.381473299989,323.8827303999569,323.381473299989,323.8827303999569,323.381473299989,None,0.5480289999977686,,,,,11013,001,2024_Jan_02_1706,nback,2021.2.3,59.57679032175648,
2-back,instructions\back-2.png,conditions\22back-e.xlsx,,,experiment,2,1,stim\yellow.png,stim\gray.png,stim\gray.png,stim\gray.png,up,,,,,,,,,,,,,0,0,0,8,0,9,9,9,,,,,,,,,,,,,,,,,,,,,,,,,,,,,,,,,,,,,,,,,,,,,,,,,,,,,,,,up,1,324.8839498999878,None,324.8839498999878,None,324.8839498999878,325.88584669999545,324.8839498999878,325.88584669999545,324.8839498999878,325.88584669999545,324.8839498999878,325.88584669999545,324.8839498999878,325.38598640001146,324.8839498999878,325.38598640001146,324.8839498999878,325.38598640001146,324.8839498999878,325.38598640001146,324.8839498999878,None,0.5180204000207596,,,,,11013,001,2024_Jan_02_1706,nback,2021.2.3,59.57679032175648,
2-back,instructions\back-2.png,conditions\22back-e.xlsx,,,experiment,2,4,stim\gray.png,stim\gray.png,stim\gray.png,stim\yellow.png,left,,,,,,,,,,,,,0,0,0,8,0,10,10,10,,,,,,,,,,,,,,,,,,,,,,,,,,,,,,,,,,,,,,,,,,,,,,,,,,,,,,,,up,0,326.386003099964,None,326.386003099964,None,326.386003099964,327.38847299996996,326.386003099964,327.38847299996996,326.386003099964,327.38847299996996,326.386003099964,327.38847299996996,326.386003099964,326.8867334999959,326.386003099964,326.8867334999959,326.386003099964,326.8867334999959,326.386003099964,326.8867334999959,326.386003099964,None,0.9031768999993801,,,,,11013,001,2024_Jan_02_1706,nback,2021.2.3,59.57679032175648,
2-back,instructions\back-2.png,conditions\22back-e.xlsx,,,experiment,2,2,stim\gray.png,stim\yellow.png,stim\gray.png,stim\gray.png,up,,,,,,,,,,,,,0,0,0,8,0,11,11,11,,,,,,,,,,,,,,,,,,,,,,,,,,,,,,,,,,,,,,,,,,,,,,,,,,,,,,,,right,0,327.88822409999557,None,327.88822409999557,None,327.88822409999557,328.8903315999778,327.88822409999557,328.8903315999778,327.88822409999557,328.8903315999778,327.88822409999557,328.8903315999778,327.88822409999557,328.3889510000008,327.88822409999557,328.3889510000008,327.88822409999557,328.3889510000008,327.88822409999557,328.3889510000008,327.88822409999557,None,1.3210106999613345,,,,,11013,001,2024_Jan_02_1706,nback,2021.2.3,59.57679032175648,
2-back,instructions\back-2.png,conditions\22back-e.xlsx,,,experiment,2,4,stim\gray.png,stim\gray.png,stim\gray.png,stim\yellow.png,down,,,,,,,,,,,,,0,0,0,8,0,12,12,12,,,,,,,,,,,,,,,,,,,,,,,,,,,,,,,,,,,,,,,,,,,,,,,,,,,,,,,,left,0,329.3906177000026,None,329.3906177000026,None,329.3906177000026,330.39179640001385,329.3906177000026,330.39179640001385,329.3906177000026,330.39179640001385,329.3906177000026,330.39179640001385,329.3906177000026,329.89106729999185,329.3906177000026,329.89106729999185,329.3906177000026,329.89106729999185,329.3906177000026,329.89106729999185,329.3906177000026,None,1.1305569999967702,,,,,11013,001,2024_Jan_02_1706,nback,2021.2.3,59.57679032175648,
2-back,instructions\back-2.png,conditions\22back-e.xlsx,,,experiment,2,3,stim\gray.png,stim\gray.png,stim\yellow.png,stim\gray.png,left,,,,,,,,,,,,,0,0,0,8,0,13,13,13,,,,,,,,,,,,,,,,,,,,,,,,,,,,,,,,,,,,,,,,,,,,,,,,,,,,,,,,None,0,330.8927544999751,None,330.8927544999751,None,330.8927544999751,331.89552049996564,330.8927544999751,331.89552049996564,330.8927544999751,331.89552049996564,330.8927544999751,331.89552049996564,330.8927544999751,331.3942432999611,330.8927544999751,331.3942432999611,330.8927544999751,331.3942432999611,330.8927544999751,331.3942432999611,330.8927544999751,None,,,,,,11013,001,2024_Jan_02_1706,nback,2021.2.3,59.57679032175648,
2-back,instructions\back-2.png,conditions\22back-e.xlsx,,,experiment,2,3,stim\gray.png,stim\gray.png,stim\yellow.png,stim\gray.png,down,,,,,,,,,,,,,0,0,0,8,0,14,14,14,,,,,,,,,,,,,,,,,,,,,,,,,,,,,,,,,,,,,,,,,,,,,,,,,,,,,,,,left,0,332.37803189997794,None,332.37803189997794,None,332.37803189997794,333.37972649995936,332.37803189997794,333.37972649995936,332.37803189997794,333.37972649995936,332.37803189997794,333.37972649995936,332.37803189997794,332.87901169998804,332.37803189997794,332.87901169998804,332.37803189997794,332.87901169998804,332.37803189997794,332.87901169998804,332.37803189997794,None,0.31890820001717657,,,,,11013,001,2024_Jan_02_1706,nback,2021.2.3,59.57679032175648,
2-back,instructions\back-2.png,conditions\22back-e.xlsx,,,experiment,2,4,stim\gray.png,stim\gray.png,stim\gray.png,stim\yellow.png,right,,,,,,,,,,,,,0,0,0,8,0,15,15,15,,,,,,,,,,,,,,,,,,,,,,,,,,,,,,,,,,,,,,,,,,,,,,,,,,,,,,,,right,1,333.8804774999735,None,333.8804774999735,None,333.8804774999735,334.88468789996114,333.8804774999735,334.88468789996114,333.8804774999735,334.88468789996114,333.8804774999735,334.88468789996114,333.8804774999735,334.38112340000225,333.8804774999735,334.38112340000225,333.8804774999735,334.38112340000225,333.8804774999735,334.38112340000225,333.8804774999735,None,0.44072750001214445,,,,,11013,001,2024_Jan_02_1706,nback,2021.2.3,59.57679032175648,
2-back,instructions\back-2.png,conditions\22back-e.xlsx,,,experiment,2,2,stim\gray.png,stim\yellow.png,stim\gray.png,stim\gray.png,right,,,,,,,,,,,,,0,0,0,8,0,16,16,16,,,,,,,,,,,,,,,,,,,,,,,,,,,,,,,,,,,,,,,,,,,,,,,,,,,,,,,,right,1,335.3826003999566,None,335.3826003999566,None,335.3826003999566,336.3848524999921,335.3826003999566,336.3848524999921,335.3826003999566,336.3848524999921,335.3826003999566,336.3848524999921,335.3826003999566,335.8846351999673,335.3826003999566,335.8846351999673,335.3826003999566,335.8846351999673,335.3826003999566,335.8846351999673,335.3826003999566,None,1.2667984000290744,,,,,11013,001,2024_Jan_02_1706,nback,2021.2.3,59.57679032175648,
2-back,instructions\back-2.png,conditions\22back-e.xlsx,,,experiment,2,1,stim\yellow.png,stim\gray.png,stim\gray.png,stim\gray.png,down,,,,,,,,,,,,,0,0,0,8,0,17,17,17,,,,,,,,,,,,,,,,,,,,,,,,,,,,,,,,,,,,,,,,,,,,,,,,,,,,,,,,up,0,336.8849657999817,None,336.8849657999817,None,336.8849657999817,337.8867809000076,336.8849657999817,337.8867809000076,336.8849657999817,337.8867809000076,336.8849657999817,337.8867809000076,336.8849657999817,337.3858666999731,336.8849657999817,337.3858666999731,336.8849657999817,337.3858666999731,336.8849657999817,337.3858666999731,336.8849657999817,None,0.6600818999577314,,,,,11013,001,2024_Jan_02_1706,nback,2021.2.3,59.57679032175648,
2-back,instructions\back-2.png,conditions\22back-e.xlsx,,,experiment,2,4,stim\gray.png,stim\gray.png,stim\gray.png,stim\yellow.png,left,,,,,,,,,,,,,0,0,0,8,0,18,18,18,,,,,,,,,,,,,,,,,,,,,,,,,,,,,,,,,,,,,,,,,,,,,,,,,,,,,,,,left,1,338.38694729999406,None,338.38694729999406,None,338.38694729999406,339.38997749995906,338.38694729999406,339.38997749995906,338.38694729999406,339.38997749995906,338.38694729999406,339.38997749995906,338.38694729999406,338.888550499978,338.38694729999406,338.888550499978,338.38694729999406,338.888550499978,338.38694729999406,338.888550499978,338.38694729999406,None,0.9342476999736391,,,,,11013,001,2024_Jan_02_1706,nback,2021.2.3,59.57679032175648,
2-back,instructions\back-2.png,conditions\22back-e.xlsx,,,experiment,2,3,stim\gray.png,stim\gray.png,stim\yellow.png,stim\gray.png,up,,,,,,,,,,,,,0,0,0,8,0,19,19,19,,,,,,,,,,,,,,,,,,,,,,,,,,,,,,,,,,,,,,,,,,,,,,,,,,,,,,,,None,0,339.88945409998996,None,339.88945409998996,None,339.88945409998996,340.89099039998837,339.88945409998996,340.89099039998837,339.88945409998996,340.89099039998837,339.88945409998996,340.89099039998837,339.88945409998996,340.39037979999557,339.88945409998996,340.39037979999557,339.88945409998996,340.39037979999557,339.88945409998996,340.39037979999557,339.88945409998996,None,,,,,,11013,001,2024_Jan_02_1706,nback,2021.2.3,59.57679032175648,
2-back,instructions\back-2.png,conditions\22back-e.xlsx,,,,,,,,,,,,,,,,,,,,,,,0,0,0,8,,,,,,,,,,,,,,,,,,,,,,,,,,,,,,,,,,,,,,,,,,,,,,,,,,,,,,,,,,,,,,,,,,,,,,,,,,,,,,,,,,,,,341.39298289996805,None,,,11013,001,2024_Jan_02_1706,nback,2021.2.3,59.57679032175648,
1-back,instructions\back-1.png,conditions\13back-e.xlsx,,,experiment,1,1,stim\yellow.png,stim\gray.png,stim\gray.png,stim\gray.png,None,,,,,,,,,,,,,0,1,1,10,0,0,0,0,,,,,,,,,,,,,,,342.5265390999848,347.03342709998833,346.9838039999595,None,,,,,,,,,,,,,,,,,,,,,,,,,,,,,,,,,,,,,,None,1,347.40088129998185,None,347.40088129998185,None,347.40088129998185,348.4029147999827,347.40088129998185,348.4029147999827,347.40088129998185,348.4029147999827,347.40088129998185,348.4029147999827,347.40088129998185,347.90113169996766,347.40088129998185,347.90113169996766,347.40088129998185,347.90113169996766,347.40088129998185,347.90113169996766,347.40088129998185,None,,,,,,11013,001,2024_Jan_02_1706,nback,2021.2.3,59.57679032175648,
1-back,instructions\back-1.png,conditions\13back-e.xlsx,,,experiment,1,2,stim\gray.png,stim\yellow.png,stim\gray.png,stim\gray.png,up,,,,,,,,,,,,,0,1,1,10,0,1,1,1,,,,,,,,,,,,,,,,,,,,,,,,,,,,,,,,,,,,,,,,,,,,,,,,,,,,,,,,up,1,348.8859027000144,None,348.8859027000144,None,348.8859027000144,349.88757419999456,348.8859027000144,349.88757419999456,348.8859027000144,349.88757419999456,348.8859027000144,349.88757419999456,348.8859027000144,349.3873127999832,348.8859027000144,349.3873127999832,348.8859027000144,349.3873127999832,348.8859027000144,349.3873127999832,348.8859027000144,None,0.5873656999901868,,,,,11013,001,2024_Jan_02_1706,nback,2021.2.3,59.57679032175648,
1-back,instructions\back-1.png,conditions\13back-e.xlsx,,,experiment,1,4,stim\gray.png,stim\gray.png,stim\gray.png,stim\yellow.png,left,,,,,,,,,,,,,0,1,1,10,0,2,2,2,,,,,,,,,,,,,,,,,,,,,,,,,,,,,,,,,,,,,,,,,,,,,,,,,,,,,,,,left,1,350.388167099969,None,350.388167099969,None,350.388167099969,351.38978189998306,350.388167099969,351.38978189998306,350.388167099969,351.38978189998306,350.388167099969,351.38978189998306,350.388167099969,350.8890524999588,350.388167099969,350.8890524999588,350.388167099969,350.8890524999588,350.388167099969,350.8890524999588,350.388167099969,None,0.8368269000202417,,,,,11013,001,2024_Jan_02_1706,nback,2021.2.3,59.57679032175648,
1-back,instructions\back-1.png,conditions\13back-e.xlsx,,,experiment,1,3,stim\gray.png,stim\gray.png,stim\yellow.png,stim\gray.png,down,,,,,,,,,,,,,0,1,1,10,0,3,3,3,,,,,,,,,,,,,,,,,,,,,,,,,,,,,,,,,,,,,,,,,,,,,,,,,,,,,,,,down,1,351.89066859998275,None,351.89066859998275,None,351.89066859998275,352.8932858000044,351.89066859998275,352.8932858000044,351.89066859998275,352.8932858000044,351.89066859998275,352.8932858000044,351.89066859998275,352.39109699998517,351.89066859998275,352.39109699998517,351.89066859998275,352.39109699998517,351.89066859998275,352.39109699998517,351.89066859998275,None,0.6223209999734536,,,,,11013,001,2024_Jan_02_1706,nback,2021.2.3,59.57679032175648,
1-back,instructions\back-1.png,conditions\13back-e.xlsx,,,experiment,1,1,stim\yellow.png,stim\gray.png,stim\gray.png,stim\gray.png,right,,,,,,,,,,,,,0,1,1,10,0,4,4,4,,,,,,,,,,,,,,,,,,,,,,,,,,,,,,,,,,,,,,,,,,,,,,,,,,,,,,,,right,1,353.3759795000078,None,353.3759795000078,None,353.3759795000078,354.3782627999899,353.3759795000078,354.3782627999899,353.3759795000078,354.3782627999899,353.3759795000078,354.3782627999899,353.3759795000078,353.87680580001324,353.3759795000078,353.87680580001324,353.3759795000078,353.87680580001324,353.3759795000078,353.87680580001324,353.3759795000078,None,0.7860207000048831,,,,,11013,001,2024_Jan_02_1706,nback,2021.2.3,59.57679032175648,
1-back,instructions\back-1.png,conditions\13back-e.xlsx,,,experiment,1,3,stim\gray.png,stim\gray.png,stim\yellow.png,stim\gray.png,up,,,,,,,,,,,,,0,1,1,10,0,5,5,5,,,,,,,,,,,,,,,,,,,,,,,,,,,,,,,,,,,,,,,,,,,,,,,,,,,,,,,,up,1,354.87823779997416,None,354.87823779997416,None,354.87823779997416,355.88061890000245,354.87823779997416,355.88061890000245,354.87823779997416,355.88061890000245,354.87823779997416,355.88061890000245,354.87823779997416,355.3792929999763,354.87823779997416,355.3792929999763,354.87823779997416,355.3792929999763,354.87823779997416,355.3792929999763,354.87823779997416,None,1.0909025999717414,,,,,11013,001,2024_Jan_02_1706,nback,2021.2.3,59.57679032175648,
1-back,instructions\back-1.png,conditions\13back-e.xlsx,,,experiment,1,2,stim\gray.png,stim\yellow.png,stim\gray.png,stim\gray.png,right,,,,,,,,,,,,,0,1,1,10,0,6,6,6,,,,,,,,,,,,,,,,,,,,,,,,,,,,,,,,,,,,,,,,,,,,,,,,,,,,,,,,right,1,356.3805235999753,None,356.3805235999753,None,356.3805235999753,357.38208790001227,356.3805235999753,357.38208790001227,356.3805235999753,357.38208790001227,356.3805235999753,357.38208790001227,356.3805235999753,356.8815716999816,356.3805235999753,356.8815716999816,356.3805235999753,356.8815716999816,356.3805235999753,356.8815716999816,356.3805235999753,None,0.7484854000504129,,,,,11013,001,2024_Jan_02_1706,nback,2021.2.3,59.57679032175648,
1-back,instructions\back-1.png,conditions\13back-e.xlsx,,,experiment,1,4,stim\gray.png,stim\gray.png,stim\gray.png,stim\yellow.png,left,,,,,,,,,,,,,0,1,1,10,0,7,7,7,,,,,,,,,,,,,,,,,,,,,,,,,,,,,,,,,,,,,,,,,,,,,,,,,,,,,,,,left,1,357.8825723999762,None,357.8825723999762,None,357.8825723999762,358.88426429999527,357.8825723999762,358.88426429999527,357.8825723999762,358.88426429999527,357.8825723999762,358.88426429999527,357.8825723999762,358.3844040000113,357.8825723999762,358.3844040000113,357.8825723999762,358.3844040000113,357.8825723999762,358.3844040000113,357.8825723999762,None,0.5186918000108562,,,,,11013,001,2024_Jan_02_1706,nback,2021.2.3,59.57679032175648,
1-back,instructions\back-1.png,conditions\13back-e.xlsx,,,experiment,1,1,stim\yellow.png,stim\gray.png,stim\gray.png,stim\gray.png,down,,,,,,,,,,,,,0,1,1,10,0,8,8,8,,,,,,,,,,,,,,,,,,,,,,,,,,,,,,,,,,,,,,,,,,,,,,,,,,,,,,,,down,1,359.38488239998696,None,359.38488239998696,None,359.38488239998696,360.3865544999717,359.38488239998696,360.3865544999717,359.38488239998696,360.3865544999717,359.38488239998696,360.3865544999717,359.38488239998696,359.885672400007,359.38488239998696,359.885672400007,359.38488239998696,359.885672400007,359.38488239998696,359.885672400007,359.38488239998696,None,0.5920981000526808,,,,,11013,001,2024_Jan_02_1706,nback,2021.2.3,59.57679032175648,
1-back,instructions\back-1.png,conditions\13back-e.xlsx,,,experiment,1,2,stim\gray.png,stim\yellow.png,stim\gray.png,stim\gray.png,up,,,,,,,,,,,,,0,1,1,10,0,9,9,9,,,,,,,,,,,,,,,,,,,,,,,,,,,,,,,,,,,,,,,,,,,,,,,,,,,,,,,,left,0,360.8870641000103,None,360.8870641000103,None,360.8870641000103,361.8886961999815,360.8870641000103,361.8886961999815,360.8870641000103,361.8886961999815,360.8870641000103,361.8886961999815,360.8870641000103,361.389025499986,360.8870641000103,361.389025499986,360.8870641000103,361.389025499986,360.8870641000103,361.389025499986,360.8870641000103,None,1.0024074999964796,,,,,11013,001,2024_Jan_02_1706,nback,2021.2.3,59.57679032175648,
1-back,instructions\back-1.png,conditions\13back-e.xlsx,,,experiment,1,4,stim\gray.png,stim\gray.png,stim\gray.png,stim\yellow.png,left,,,,,,,,,,,,,0,1,1,10,0,10,10,10,,,,,,,,,,,,,,,,,,,,,,,,,,,,,,,,,,,,,,,,,,,,,,,,,,,,,,,,down,0,362.389674999984,None,362.389674999984,None,362.389674999984,363.39089400001103,362.389674999984,363.39089400001103,362.389674999984,363.39089400001103,362.389674999984,363.39089400001103,362.389674999984,362.8901290000067,362.389674999984,362.8901290000067,362.389674999984,362.8901290000067,362.389674999984,362.8901290000067,362.389674999984,None,0.6914173999684863,,,,,11013,001,2024_Jan_02_1706,nback,2021.2.3,59.57679032175648,
1-back,instructions\back-1.png,conditions\13back-e.xlsx,,,experiment,1,3,stim\gray.png,stim\gray.png,stim\yellow.png,stim\gray.png,down,,,,,,,,,,,,,0,1,1,10,0,11,11,11,,,,,,,,,,,,,,,,,,,,,,,,,,,,,,,,,,,,,,,,,,,,,,,,,,,,,,,,down,1,363.89164039999014,None,363.89164039999014,None,363.89164039999014,364.8930378999794,363.89164039999014,364.8930378999794,363.89164039999014,364.8930378999794,363.89164039999014,364.8930378999794,363.89164039999014,364.39268659998197,363.89164039999014,364.39268659998197,363.89164039999014,364.39268659998197,363.89164039999014,364.39268659998197,363.89164039999014,None,1.0774712999700569,,,,,11013,001,2024_Jan_02_1706,nback,2021.2.3,59.57679032175648,
1-back,instructions\back-1.png,conditions\13back-e.xlsx,,,experiment,1,2,stim\gray.png,stim\yellow.png,stim\gray.png,stim\gray.png,right,,,,,,,,,,,,,0,1,1,10,0,12,12,12,,,,,,,,,,,,,,,,,,,,,,,,,,,,,,,,,,,,,,,,,,,,,,,,,,,,,,,,right,1,365.3771554999985,None,365.3771554999985,None,365.3771554999985,366.3790855999687,365.3771554999985,366.3790855999687,365.3771554999985,366.3790855999687,365.3771554999985,366.3790855999687,365.3771554999985,365.8787188999704,365.3771554999985,365.8787188999704,365.3771554999985,365.8787188999704,365.3771554999985,365.8787188999704,365.3771554999985,None,1.1198488000081852,,,,,11013,001,2024_Jan_02_1706,nback,2021.2.3,59.57679032175648,
1-back,instructions\back-1.png,conditions\13back-e.xlsx,,,experiment,1,4,stim\gray.png,stim\gray.png,stim\gray.png,stim\yellow.png,left,,,,,,,,,,,,,0,1,1,10,0,13,13,13,,,,,,,,,,,,,,,,,,,,,,,,,,,,,,,,,,,,,,,,,,,,,,,,,,,,,,,,left,1,366.87929829995846,None,366.87929829995846,None,366.87929829995846,367.88172679999843,366.87929829995846,367.88172679999843,366.87929829995846,367.88172679999843,366.87929829995846,367.88172679999843,366.87929829995846,367.3800632999628,366.87929829995846,367.3800632999628,366.87929829995846,367.3800632999628,366.87929829995846,367.3800632999628,366.87929829995846,None,1.369699800037779,,,,,11013,001,2024_Jan_02_1706,nback,2021.2.3,59.57679032175648,
1-back,instructions\back-1.png,conditions\13back-e.xlsx,,,experiment,1,1,stim\yellow.png,stim\gray.png,stim\gray.png,stim\gray.png,down,,,,,,,,,,,,,0,1,1,10,0,14,14,14,,,,,,,,,,,,,,,,,,,,,,,,,,,,,,,,,,,,,,,,,,,,,,,,,,,,,,,,None,0,368.381658600003,None,368.381658600003,None,368.381658600003,369.38315279997187,368.381658600003,369.38315279997187,368.381658600003,369.38315279997187,368.381658600003,369.38315279997187,368.381658600003,368.88253529998474,368.381658600003,368.88253529998474,368.381658600003,368.88253529998474,368.381658600003,368.88253529998474,368.381658600003,None,,,,,,11013,001,2024_Jan_02_1706,nback,2021.2.3,59.57679032175648,
1-back,instructions\back-1.png,conditions\13back-e.xlsx,,,experiment,1,4,stim\gray.png,stim\gray.png,stim\gray.png,stim\yellow.png,up,,,,,,,,,,,,,0,1,1,10,0,15,15,15,,,,,,,,,,,,,,,,,,,,,,,,,,,,,,,,,,,,,,,,,,,,,,,,,,,,,,,,up,1,369.8838068000041,None,369.8838068000041,None,369.8838068000041,370.88602209999226,369.8838068000041,370.88602209999226,369.8838068000041,370.88602209999226,369.8838068000041,370.88602209999226,369.8838068000041,370.3855820999597,369.8838068000041,370.3855820999597,369.8838068000041,370.3855820999597,369.8838068000041,370.3855820999597,369.8838068000041,None,0.5174791000317782,,,,,11013,001,2024_Jan_02_1706,nback,2021.2.3,59.57679032175648,
1-back,instructions\back-1.png,conditions\13back-e.xlsx,,,experiment,1,1,stim\yellow.png,stim\gray.png,stim\gray.png,stim\gray.png,down,,,,,,,,,,,,,0,1,1,10,0,16,16,16,,,,,,,,,,,,,,,,,,,,,,,,,,,,,,,,,,,,,,,,,,,,,,,,,,,,,,,,None,0,371.3871497999644,None,371.3871497999644,None,371.3871497999644,372.38744279998355,371.3871497999644,372.38744279998355,371.3871497999644,372.38744279998355,371.3871497999644,372.38744279998355,371.3871497999644,371.8866946999915,371.3871497999644,371.8866946999915,371.3871497999644,371.8866946999915,371.3871497999644,371.8866946999915,371.3871497999644,None,,,,,,11013,001,2024_Jan_02_1706,nback,2021.2.3,59.57679032175648,
1-back,instructions\back-1.png,conditions\13back-e.xlsx,,,experiment,1,3,stim\gray.png,stim\gray.png,stim\yellow.png,stim\gray.png,up,,,,,,,,,,,,,0,1,1,10,0,17,17,17,,,,,,,,,,,,,,,,,,,,,,,,,,,,,,,,,,,,,,,,,,,,,,,,,,,,,,,,None,0,372.8882306999876,None,372.8882306999876,None,372.8882306999876,373.89044789999025,372.8882306999876,373.89044789999025,372.8882306999876,373.89044789999025,372.8882306999876,373.89044789999025,372.8882306999876,373.3891341999988,372.8882306999876,373.3891341999988,372.8882306999876,373.3891341999988,372.8882306999876,373.3891341999988,372.8882306999876,None,,,,,,11013,001,2024_Jan_02_1706,nback,2021.2.3,59.57679032175648,
1-back,instructions\back-1.png,conditions\13back-e.xlsx,,,experiment,1,2,stim\gray.png,stim\yellow.png,stim\gray.png,stim\gray.png,right,,,,,,,,,,,,,0,1,1,10,0,18,18,18,,,,,,,,,,,,,,,,,,,,,,,,,,,,,,,,,,,,,,,,,,,,,,,,,,,,,,,,None,0,374.3904246999882,None,374.3904246999882,None,374.3904246999882,375.39200150000397,374.3904246999882,375.39200150000397,374.3904246999882,375.39200150000397,374.3904246999882,375.39200150000397,374.3904246999882,374.89121889998205,374.3904246999882,374.89121889998205,374.3904246999882,374.89121889998205,374.3904246999882,374.89121889998205,374.3904246999882,None,,,,,,11013,001,2024_Jan_02_1706,nback,2021.2.3,59.57679032175648,
1-back,instructions\back-1.png,conditions\13back-e.xlsx,,,experiment,1,3,stim\gray.png,stim\gray.png,stim\yellow.png,stim\gray.png,left,,,,,,,,,,,,,0,1,1,10,0,19,19,19,,,,,,,,,,,,,,,,,,,,,,,,,,,,,,,,,,,,,,,,,,,,,,,,,,,,,,,,left,1,375.8759313999908,None,375.8759313999908,None,375.8759313999908,376.87760780000826,375.8759313999908,376.87760780000826,375.8759313999908,376.87760780000826,375.8759313999908,376.87760780000826,375.8759313999908,376.37689169996884,375.8759313999908,376.37689169996884,375.8759313999908,376.37689169996884,375.8759313999908,376.37689169996884,375.8759313999908,None,0.6771543999784626,,,,,11013,001,2024_Jan_02_1706,nback,2021.2.3,59.57679032175648,
1-back,instructions\back-1.png,conditions\13back-e.xlsx,,,,,,,,,,,,,,,,,,,,,,,0,1,1,10,,,,,,,,,,,,,,,,,,,,,,,,,,,,,,,,,,,,,,,,,,,,,,,,,,,,,,,,,,,,,,,,,,,,,,,,,,,,,,,,,,,,,377.3787922000047,None,,,11013,001,2024_Jan_02_1706,nback,2021.2.3,59.57679032175648,
1-back,instructions\back-1.png,conditions\10back-e.xlsx,,,experiment,1,3,stim\gray.png,stim\gray.png,stim\yellow.png,stim\gray.png,None,,,,,,,,,,,,,0,2,2,1,0,0,0,0,,,,,,,,,,,,,,,378.5299890000024,383.03883029997814,383.0208855000092,None,,,,,,,,,,,,,,,,,,,,,,,,,,,,,,,,,,,,,,None,1,383.4046585999895,None,383.4046585999895,None,383.4046585999895,384.4054579999647,383.4046585999895,384.4054579999647,383.4046585999895,384.4054579999647,383.4046585999895,384.4054579999647,383.4046585999895,383.9046316999593,383.4046585999895,383.9046316999593,383.4046585999895,383.9046316999593,383.4046585999895,383.9046316999593,383.4046585999895,None,,,,,,11013,001,2024_Jan_02_1706,nback,2021.2.3,59.57679032175648,
1-back,instructions\back-1.png,conditions\10back-e.xlsx,,,experiment,1,4,stim\gray.png,stim\gray.png,stim\gray.png,stim\yellow.png,right,,,,,,,,,,,,,0,2,2,1,0,1,1,1,,,,,,,,,,,,,,,,,,,,,,,,,,,,,,,,,,,,,,,,,,,,,,,,,,,,,,,,right,1,384.88943209999707,None,384.88943209999707,None,384.88943209999707,385.89114520000294,384.88943209999707,385.89114520000294,384.88943209999707,385.89114520000294,384.88943209999707,385.89114520000294,384.88943209999707,385.3908577999682,384.88943209999707,385.3908577999682,384.88943209999707,385.3908577999682,384.88943209999707,385.3908577999682,384.88943209999707,None,1.0796223999932408,,,,,11013,001,2024_Jan_02_1706,nback,2021.2.3,59.57679032175648,
1-back,instructions\back-1.png,conditions\10back-e.xlsx,,,experiment,1,4,stim\gray.png,stim\gray.png,stim\gray.png,stim\yellow.png,down,,,,,,,,,,,,,0,2,2,1,0,2,2,2,,,,,,,,,,,,,,,,,,,,,,,,,,,,,,,,,,,,,,,,,,,,,,,,,,,,,,,,down,1,386.3915362000116,None,386.3915362000116,None,386.3915362000116,387.3933943999582,386.3915362000116,387.3933943999582,386.3915362000116,387.3933943999582,386.3915362000116,387.3933943999582,386.3915362000116,386.89238569996087,386.3915362000116,386.89238569996087,386.3915362000116,386.89238569996087,386.3915362000116,386.89238569996087,386.3915362000116,None,0.6663219999754801,,,,,11013,001,2024_Jan_02_1706,nback,2021.2.3,59.57679032175648,
1-back,instructions\back-1.png,conditions\10back-e.xlsx,,,experiment,1,2,stim\gray.png,stim\yellow.png,stim\gray.png,stim\gray.png,down,,,,,,,,,,,,,0,2,2,1,0,3,3,3,,,,,,,,,,,,,,,,,,,,,,,,,,,,,,,,,,,,,,,,,,,,,,,,,,,,,,,,down,1,387.87717519997386,None,387.87717519997386,None,387.87717519997386,388.878419799963,387.87717519997386,388.878419799963,387.87717519997386,388.878419799963,387.87717519997386,388.878419799963,387.87717519997386,388.3785639000125,387.87717519997386,388.3785639000125,387.87717519997386,388.3785639000125,387.87717519997386,388.3785639000125,387.87717519997386,None,0.3240938999806531,,,,,11013,001,2024_Jan_02_1706,nback,2021.2.3,59.57679032175648,
1-back,instructions\back-1.png,conditions\10back-e.xlsx,,,experiment,1,1,stim\yellow.png,stim\gray.png,stim\gray.png,stim\gray.png,left,,,,,,,,,,,,,0,2,2,1,0,4,4,4,,,,,,,,,,,,,,,,,,,,,,,,,,,,,,,,,,,,,,,,,,,,,,,,,,,,,,,,left,1,389.379860999994,None,389.379860999994,None,389.379860999994,390.3809085999965,389.379860999994,390.3809085999965,389.379860999994,390.3809085999965,389.379860999994,390.3809085999965,389.379860999994,389.8807229999802,389.379860999994,389.8807229999802,389.379860999994,389.8807229999802,389.379860999994,389.8807229999802,389.379860999994,None,0.2455430999980308,,,,,11013,001,2024_Jan_02_1706,nback,2021.2.3,59.57679032175648,
1-back,instructions\back-1.png,conditions\10back-e.xlsx,,,experiment,1,2,stim\gray.png,stim\yellow.png,stim\gray.png,stim\gray.png,up,,,,,,,,,,,,,0,2,2,1,0,5,5,5,,,,,,,,,,,,,,,,,,,,,,,,,,,,,,,,,,,,,,,,,,,,,,,,,,,,,,,,up,1,390.88156660000095,None,390.88156660000095,None,390.88156660000095,391.8830305999727,390.88156660000095,391.8830305999727,390.88156660000095,391.8830305999727,390.88156660000095,391.8830305999727,390.88156660000095,391.38236039999174,390.88156660000095,391.38236039999174,390.88156660000095,391.38236039999174,390.88156660000095,391.38236039999174,390.88156660000095,None,0.2554711000411771,,,,,11013,001,2024_Jan_02_1706,nback,2021.2.3,59.57679032175648,
1-back,instructions\back-1.png,conditions\10back-e.xlsx,,,experiment,1,3,stim\gray.png,stim\gray.png,stim\yellow.png,stim\gray.png,left,,,,,,,,,,,,,0,2,2,1,0,6,6,6,,,,,,,,,,,,,,,,,,,,,,,,,,,,,,,,,,,,,,,,,,,,,,,,,,,,,,,,left,1,392.38365510001313,None,392.38365510001313,None,392.38365510001313,393.3857968999655,392.38365510001313,393.3857968999655,392.38365510001313,393.3857968999655,392.38365510001313,393.3857968999655,392.38365510001313,392.8845192999579,392.38365510001313,392.8845192999579,392.38365510001313,392.8845192999579,392.38365510001313,392.8845192999579,392.38365510001313,None,0.3935078000067733,,,,,11013,001,2024_Jan_02_1706,nback,2021.2.3,59.57679032175648,
1-back,instructions\back-1.png,conditions\10back-e.xlsx,,,experiment,1,4,stim\gray.png,stim\gray.png,stim\gray.png,stim\yellow.png,right,,,,,,,,,,,,,0,2,2,1,0,7,7,7,,,,,,,,,,,,,,,,,,,,,,,,,,,,,,,,,,,,,,,,,,,,,,,,,,,,,,,,down,0,393.8860333999619,None,393.8860333999619,None,393.8860333999619,394.88752429996384,393.8860333999619,394.88752429996384,393.8860333999619,394.88752429996384,393.8860333999619,394.88752429996384,393.8860333999619,394.3868017999921,393.8860333999619,394.3868017999921,393.8860333999619,394.3868017999921,393.8860333999619,394.3868017999921,393.8860333999619,None,1.371090400032699,,,,,11013,001,2024_Jan_02_1706,nback,2021.2.3,59.57679032175648,
1-back,instructions\back-1.png,conditions\10back-e.xlsx,,,experiment,1,1,stim\yellow.png,stim\gray.png,stim\gray.png,stim\gray.png,down,,,,,,,,,,,,,0,2,2,1,0,8,8,8,,,,,,,,,,,,,,,,,,,,,,,,,,,,,,,,,,,,,,,,,,,,,,,,,,,,,,,,up,0,395.3882864000043,None,395.3882864000043,None,395.3882864000043,396.3895828999812,395.3882864000043,396.3895828999812,395.3882864000043,396.3895828999812,395.3882864000043,396.3895828999812,395.3882864000043,395.88885210000444,395.3882864000043,395.88885210000444,395.3882864000043,395.88885210000444,395.3882864000043,395.88885210000444,395.3882864000043,None,0.8447767000179738,,,,,11013,001,2024_Jan_02_1706,nback,2021.2.3,59.57679032175648,
1-back,instructions\back-1.png,conditions\10back-e.xlsx,,,experiment,1,3,stim\gray.png,stim\gray.png,stim\yellow.png,stim\gray.png,up,,,,,,,,,,,,,0,2,2,1,0,9,9,9,,,,,,,,,,,,,,,,,,,,,,,,,,,,,,,,,,,,,,,,,,,,,,,,,,,,,,,,up,1,396.8911236000131,None,396.8911236000131,None,396.8911236000131,397.8919959999621,396.8911236000131,397.8919959999621,396.8911236000131,397.8919959999621,396.8911236000131,397.8919959999621,396.8911236000131,397.3927341999952,396.8911236000131,397.3927341999952,396.8911236000131,397.3927341999952,396.8911236000131,397.3927341999952,396.8911236000131,None,1.2619908999768086,,,,,11013,001,2024_Jan_02_1706,nback,2021.2.3,59.57679032175648,
1-back,instructions\back-1.png,conditions\10back-e.xlsx,,,experiment,1,1,stim\yellow.png,stim\gray.png,stim\gray.png,stim\gray.png,right,,,,,,,,,,,,,0,2,2,1,0,10,10,10,,,,,,,,,,,,,,,,,,,,,,,,,,,,,,,,,,,,,,,,,,,,,,,,,,,,,,,,up,0,398.3927020999836,None,398.3927020999836,None,398.3927020999836,399.39411250001285,398.3927020999836,399.39411250001285,398.3927020999836,399.39411250001285,398.3927020999836,399.39411250001285,398.3927020999836,398.89437100000214,398.3927020999836,398.89437100000214,398.3927020999836,398.89437100000214,398.3927020999836,398.89437100000214,398.3927020999836,None,1.3125675999908708,,,,,11013,001,2024_Jan_02_1706,nback,2021.2.3,59.57679032175648,
1-back,instructions\back-1.png,conditions\10back-e.xlsx,,,experiment,1,2,stim\gray.png,stim\yellow.png,stim\gray.png,stim\gray.png,up,,,,,,,,,,,,,0,2,2,1,0,11,11,11,,,,,,,,,,,,,,,,,,,,,,,,,,,,,,,,,,,,,,,,,,,,,,,,,,,,,,,,right,0,399.87915860000066,None,399.87915860000066,None,399.87915860000066,400.87973579997197,399.87915860000066,400.87973579997197,399.87915860000066,400.87973579997197,399.87915860000066,400.87973579997197,399.87915860000066,400.379144800012,399.87915860000066,400.379144800012,399.87915860000066,400.379144800012,399.87915860000066,400.379144800012,399.87915860000066,None,1.162801300000865,,,,,11013,001,2024_Jan_02_1706,nback,2021.2.3,59.57679032175648,
1-back,instructions\back-1.png,conditions\10back-e.xlsx,,,experiment,1,4,stim\gray.png,stim\gray.png,stim\gray.png,stim\yellow.png,left,,,,,,,,,,,,,0,2,2,1,0,12,12,12,,,,,,,,,,,,,,,,,,,,,,,,,,,,,,,,,,,,,,,,,,,,,,,,,,,,,,,,up,0,401.38051359995734,None,401.38051359995734,None,401.38051359995734,402.3820908999769,401.38051359995734,402.3820908999769,401.38051359995734,402.3820908999769,401.38051359995734,402.3820908999769,401.38051359995734,401.8820461999858,401.38051359995734,401.8820461999858,401.38051359995734,401.8820461999858,401.38051359995734,401.8820461999858,401.38051359995734,None,0.8370570000261068,,,,,11013,001,2024_Jan_02_1706,nback,2021.2.3,59.57679032175648,
1-back,instructions\back-1.png,conditions\10back-e.xlsx,,,experiment,1,3,stim\gray.png,stim\gray.png,stim\yellow.png,stim\gray.png,down,,,,,,,,,,,,,0,2,2,1,0,13,13,13,,,,,,,,,,,,,,,,,,,,,,,,,,,,,,,,,,,,,,,,,,,,,,,,,,,,,,,,left,0,402.8827200999949,None,402.8827200999949,None,402.8827200999949,403.8846695999964,402.8827200999949,403.8846695999964,402.8827200999949,403.8846695999964,402.8827200999949,403.8846695999964,402.8827200999949,403.38416859996505,402.8827200999949,403.38416859996505,402.8827200999949,403.38416859996505,402.8827200999949,403.38416859996505,402.8827200999949,None,0.5184165999526158,,,,,11013,001,2024_Jan_02_1706,nback,2021.2.3,59.57679032175648,
1-back,instructions\back-1.png,conditions\10back-e.xlsx,,,experiment,1,1,stim\yellow.png,stim\gray.png,stim\gray.png,stim\gray.png,right,,,,,,,,,,,,,0,2,2,1,0,14,14,14,,,,,,,,,,,,,,,,,,,,,,,,,,,,,,,,,,,,,,,,,,,,,,,,,,,,,,,,None,0,404.3848736999789,None,404.3848736999789,None,404.3848736999789,405.3871167000034,404.3848736999789,405.3871167000034,404.3848736999789,405.3871167000034,404.3848736999789,405.3871167000034,404.3848736999789,404.88568369997665,404.3848736999789,404.88568369997665,404.3848736999789,404.88568369997665,404.3848736999789,404.88568369997665,404.3848736999789,None,,,,,,11013,001,2024_Jan_02_1706,nback,2021.2.3,59.57679032175648,
1-back,instructions\back-1.png,conditions\10back-e.xlsx,,,experiment,1,2,stim\gray.png,stim\yellow.png,stim\gray.png,stim\gray.png,up,,,,,,,,,,,,,0,2,2,1,0,15,15,15,,,,,,,,,,,,,,,,,,,,,,,,,,,,,,,,,,,,,,,,,,,,,,,,,,,,,,,,up,1,405.88719229999697,None,405.88719229999697,None,405.88719229999697,406.88916129997233,405.88719229999697,406.88916129997233,405.88719229999697,406.88916129997233,405.88719229999697,406.88916129997233,405.88719229999697,406.3885377999977,405.88719229999697,406.3885377999977,405.88719229999697,406.3885377999977,405.88719229999697,406.3885377999977,405.88719229999697,None,0.6982447000336833,,,,,11013,001,2024_Jan_02_1706,nback,2021.2.3,59.57679032175648,
1-back,instructions\back-1.png,conditions\10back-e.xlsx,,,experiment,1,3,stim\gray.png,stim\gray.png,stim\yellow.png,stim\gray.png,left,,,,,,,,,,,,,0,2,2,1,0,16,16,16,,,,,,,,,,,,,,,,,,,,,,,,,,,,,,,,,,,,,,,,,,,,,,,,,,,,,,,,left,1,407.3892269000062,None,407.3892269000062,None,407.3892269000062,408.3914375999593,407.3892269000062,408.3914375999593,407.3892269000062,408.3914375999593,407.3892269000062,408.3914375999593,407.3892269000062,407.8901315999683,407.3892269000062,407.8901315999683,407.3892269000062,407.8901315999683,407.3892269000062,407.8901315999683,407.3892269000062,None,1.2841924999956973,,,,,11013,001,2024_Jan_02_1706,nback,2021.2.3,59.57679032175648,
1-back,instructions\back-1.png,conditions\10back-e.xlsx,,,experiment,1,2,stim\gray.png,stim\yellow.png,stim\gray.png,stim\gray.png,right,,,,,,,,,,,,,0,2,2,1,0,17,17,17,,,,,,,,,,,,,,,,,,,,,,,,,,,,,,,,,,,,,,,,,,,,,,,,,,,,,,,,right,1,408.8918590999674,None,408.8918590999674,None,408.8918590999674,409.89347959996667,408.8918590999674,409.89347959996667,408.8918590999674,409.89347959996667,408.8918590999674,409.89347959996667,408.8918590999674,409.39292099996237,408.8918590999674,409.39292099996237,408.8918590999674,409.39292099996237,408.8918590999674,409.39292099996237,408.8918590999674,None,1.0932377999997698,,,,,11013,001,2024_Jan_02_1706,nback,2021.2.3,59.57679032175648,
1-back,instructions\back-1.png,conditions\10back-e.xlsx,,,experiment,1,1,stim\yellow.png,stim\gray.png,stim\gray.png,stim\gray.png,left,,,,,,,,,,,,,0,2,2,1,0,18,18,18,,,,,,,,,,,,,,,,,,,,,,,,,,,,,,,,,,,,,,,,,,,,,,,,,,,,,,,,up,0,410.37715009995736,None,410.37715009995736,None,410.37715009995736,411.3793630999862,410.37715009995736,411.3793630999862,410.37715009995736,411.3793630999862,410.37715009995736,411.3793630999862,410.37715009995736,410.87856360001024,410.37715009995736,410.87856360001024,410.37715009995736,410.87856360001024,410.37715009995736,410.87856360001024,410.37715009995736,None,1.304257999989204,,,,,11013,001,2024_Jan_02_1706,nback,2021.2.3,59.57679032175648,
1-back,instructions\back-1.png,conditions\10back-e.xlsx,,,experiment,1,4,stim\gray.png,stim\gray.png,stim\gray.png,stim\yellow.png,up,,,,,,,,,,,,,0,2,2,1,0,19,19,19,,,,,,,,,,,,,,,,,,,,,,,,,,,,,,,,,,,,,,,,,,,,,,,,,,,,,,,,right,0,411.8799796999665,None,411.8799796999665,None,411.8799796999665,412.8815024999785,411.8799796999665,412.8815024999785,411.8799796999665,412.8815024999785,411.8799796999665,412.8815024999785,411.8799796999665,412.38063779997174,411.8799796999665,412.38063779997174,411.8799796999665,412.38063779997174,411.8799796999665,412.38063779997174,411.8799796999665,None,0.8971363000455312,,,,,11013,001,2024_Jan_02_1706,nback,2021.2.3,59.57679032175648,
1-back,instructions\back-1.png,conditions\10back-e.xlsx,,,,,,,,,,,,,,,,,,,,,,,0,2,2,1,,,,,,,,,,,,,,,,,,,,,,,,,,,,,,,,,,,,,,,,,,,,,,,,,,,,,,,,,,,,,,,,,,,,,,,,,,,,,,,,,,,,,413.3823173000128,None,,,11013,001,2024_Jan_02_1706,nback,2021.2.3,59.57679032175648,
0-back,instructions\back-0.png,conditions\03back-e.xlsx,,,experiment,0,1,stim\yellow.png,stim\gray.png,stim\gray.png,stim\gray.png,up,,,,,,,,,,,,,0,3,3,11,0,0,0,0,,,,,,,,,,,,,,,414.4999966999749,419.0071992999874,418.991706300003,None,,,,,,,,,,,,,,,,,,,,,,,,,,,,,,,,,,,,,,up,1,419.4088877000031,None,419.4088877000031,None,419.4088877000031,420.4086858999799,419.4088877000031,420.4086858999799,419.4088877000031,420.4086858999799,419.4088877000031,420.4086858999799,419.4088877000031,419.9259232999757,419.4088877000031,419.9259232999757,419.4088877000031,419.9259232999757,419.4088877000031,419.9259232999757,419.4088877000031,None,0.4645680999965407,,,,,11013,001,2024_Jan_02_1706,nback,2021.2.3,59.57679032175648,
0-back,instructions\back-0.png,conditions\03back-e.xlsx,,,experiment,0,2,stim\gray.png,stim\yellow.png,stim\gray.png,stim\gray.png,left,,,,,,,,,,,,,0,3,3,11,0,1,1,1,,,,,,,,,,,,,,,,,,,,,,,,,,,,,,,,,,,,,,,,,,,,,,,,,,,,,,,,left,1,420.8927030999912,None,420.8927030999912,None,420.8927030999912,421.8941788999946,420.8927030999912,421.8941788999946,420.8927030999912,421.8941788999946,420.8927030999912,421.8941788999946,420.8927030999912,421.394213499967,420.8927030999912,421.394213499967,420.8927030999912,421.394213499967,420.8927030999912,421.394213499967,420.8927030999912,None,0.3083814999554306,,,,,11013,001,2024_Jan_02_1706,nback,2021.2.3,59.57679032175648,
0-back,instructions\back-0.png,conditions\03back-e.xlsx,,,experiment,0,4,stim\gray.png,stim\gray.png,stim\gray.png,stim\yellow.png,down,,,,,,,,,,,,,0,3,3,11,0,2,2,2,,,,,,,,,,,,,,,,,,,,,,,,,,,,,,,,,,,,,,,,,,,,,,,,,,,,,,,,down,1,422.3782924999832,None,422.3782924999832,None,422.3782924999832,423.38067350001074,422.3782924999832,423.38067350001074,422.3782924999832,423.38067350001074,422.3782924999832,423.38067350001074,422.3782924999832,422.87932840001304,422.3782924999832,422.87932840001304,422.3782924999832,422.87932840001304,422.3782924999832,422.87932840001304,422.3782924999832,None,0.4070023999665864,,,,,11013,001,2024_Jan_02_1706,nback,2021.2.3,59.57679032175648,
0-back,instructions\back-0.png,conditions\03back-e.xlsx,,,experiment,0,3,stim\gray.png,stim\gray.png,stim\yellow.png,stim\gray.png,right,,,,,,,,,,,,,0,3,3,11,0,3,3,3,,,,,,,,,,,,,,,,,,,,,,,,,,,,,,,,,,,,,,,,,,,,,,,,,,,,,,,,right,1,423.881029799988,None,423.881029799988,None,423.881029799988,424.88333549996605,423.881029799988,424.88333549996605,423.881029799988,424.88333549996605,423.881029799988,424.88333549996605,423.881029799988,424.381287599972,423.881029799988,424.381287599972,423.881029799988,424.381287599972,423.881029799988,424.381287599972,423.881029799988,None,0.3845024000038393,,,,,11013,001,2024_Jan_02_1706,nback,2021.2.3,59.57679032175648,
0-back,instructions\back-0.png,conditions\03back-e.xlsx,,,experiment,0,3,stim\gray.png,stim\gray.png,stim\yellow.png,stim\gray.png,right,,,,,,,,,,,,,0,3,3,11,0,4,4,4,,,,,,,,,,,,,,,,,,,,,,,,,,,,,,,,,,,,,,,,,,,,,,,,,,,,,,,,right,1,425.38275339995744,None,425.38275339995744,None,425.38275339995744,426.3841780999792,425.38275339995744,426.3841780999792,425.38275339995744,426.3841780999792,425.38275339995744,426.3841780999792,425.38275339995744,425.8841110999929,425.38275339995744,425.8841110999929,425.38275339995744,425.8841110999929,425.38275339995744,425.8841110999929,425.38275339995744,None,0.41027310001663864,,,,,11013,001,2024_Jan_02_1706,nback,2021.2.3,59.57679032175648,
0-back,instructions\back-0.png,conditions\03back-e.xlsx,,,experiment,0,1,stim\yellow.png,stim\gray.png,stim\gray.png,stim\gray.png,up,,,,,,,,,,,,,0,3,3,11,0,5,5,5,,,,,,,,,,,,,,,,,,,,,,,,,,,,,,,,,,,,,,,,,,,,,,,,,,,,,,,,up,1,426.8851247999701,None,426.8851247999701,None,426.8851247999701,427.88650669995695,426.8851247999701,427.88650669995695,426.8851247999701,427.88650669995695,426.8851247999701,427.88650669995695,426.8851247999701,427.38657349999994,426.8851247999701,427.38657349999994,426.8851247999701,427.38657349999994,426.8851247999701,427.38657349999994,426.8851247999701,None,0.33201569999800995,,,,,11013,001,2024_Jan_02_1706,nback,2021.2.3,59.57679032175648,
0-back,instructions\back-0.png,conditions\03back-e.xlsx,,,experiment,0,2,stim\gray.png,stim\yellow.png,stim\gray.png,stim\gray.png,left,,,,,,,,,,,,,0,3,3,11,0,6,6,6,,,,,,,,,,,,,,,,,,,,,,,,,,,,,,,,,,,,,,,,,,,,,,,,,,,,,,,,left,1,428.38719539996237,None,428.38719539996237,None,428.38719539996237,429.38930529996287,428.38719539996237,429.38930529996287,428.38719539996237,429.38930529996287,428.38719539996237,429.38930529996287,428.38719539996237,428.8876961999922,428.38719539996237,428.8876961999922,428.38719539996237,428.8876961999922,428.38719539996237,428.8876961999922,428.38719539996237,None,0.3259629000094719,,,,,11013,001,2024_Jan_02_1706,nback,2021.2.3,59.57679032175648,
0-back,instructions\back-0.png,conditions\03back-e.xlsx,,,experiment,0,3,stim\gray.png,stim\gray.png,stim\yellow.png,stim\gray.png,right,,,,,,,,,,,,,0,3,3,11,0,7,7,7,,,,,,,,,,,,,,,,,,,,,,,,,,,,,,,,,,,,,,,,,,,,,,,,,,,,,,,,right,1,429.88935969996965,None,429.88935969996965,None,429.88935969996965,430.890691699984,429.88935969996965,430.890691699984,429.88935969996965,430.890691699984,429.88935969996965,430.890691699984,429.88935969996965,430.39084869995713,429.88935969996965,430.39084869995713,429.88935969996965,430.39084869995713,429.88935969996965,430.39084869995713,429.88935969996965,None,0.27218259999062866,,,,,11013,001,2024_Jan_02_1706,nback,2021.2.3,59.57679032175648,
0-back,instructions\back-0.png,conditions\03back-e.xlsx,,,experiment,0,4,stim\gray.png,stim\gray.png,stim\gray.png,stim\yellow.png,down,,,,,,,,,,,,,0,3,3,11,0,8,8,8,,,,,,,,,,,,,,,,,,,,,,,,,,,,,,,,,,,,,,,,,,,,,,,,,,,,,,,,down,1,431.39160829997854,None,431.39160829997854,None,431.39160829997854,432.3930672999704,431.39160829997854,432.3930672999704,431.39160829997854,432.3930672999704,431.39160829997854,432.3930672999704,431.39160829997854,431.89234819996636,431.39160829997854,431.89234819996636,431.39160829997854,431.89234819996636,431.39160829997854,431.89234819996636,431.39160829997854,None,0.5533825000165962,,,,,11013,001,2024_Jan_02_1706,nback,2021.2.3,59.57679032175648,
0-back,instructions\back-0.png,conditions\03back-e.xlsx,,,experiment,0,4,stim\gray.png,stim\gray.png,stim\gray.png,stim\yellow.png,down,,,,,,,,,,,,,0,3,3,11,0,9,9,9,,,,,,,,,,,,,,,,,,,,,,,,,,,,,,,,,,,,,,,,,,,,,,,,,,,,,,,,down,1,432.87706679996336,None,432.87706679996336,None,432.87706679996336,433.8792239999748,432.87706679996336,433.8792239999748,432.87706679996336,433.8792239999748,432.87706679996336,433.8792239999748,432.87706679996336,433.37859069998376,432.87706679996336,433.37859069998376,432.87706679996336,433.37859069998376,432.87706679996336,433.37859069998376,432.87706679996336,None,0.43607820000033826,,,,,11013,001,2024_Jan_02_1706,nback,2021.2.3,59.57679032175648,
0-back,instructions\back-0.png,conditions\03back-e.xlsx,,,experiment,0,1,stim\yellow.png,stim\gray.png,stim\gray.png,stim\gray.png,up,,,,,,,,,,,,,0,3,3,11,0,10,10,10,,,,,,,,,,,,,,,,,,,,,,,,,,,,,,,,,,,,,,,,,,,,,,,,,,,,,,,,up,1,434.37927299999865,None,434.37927299999865,None,434.37927299999865,435.38097019999987,434.37927299999865,435.38097019999987,434.37927299999865,435.38097019999987,434.37927299999865,435.38097019999987,434.37927299999865,434.8800768000074,434.37927299999865,434.8800768000074,434.37927299999865,434.8800768000074,434.37927299999865,434.8800768000074,434.37927299999865,None,0.38232530001550913,,,,,11013,001,2024_Jan_02_1706,nback,2021.2.3,59.57679032175648,
0-back,instructions\back-0.png,conditions\03back-e.xlsx,,,experiment,0,4,stim\gray.png,stim\gray.png,stim\gray.png,stim\yellow.png,down,,,,,,,,,,,,,0,3,3,11,0,11,11,11,,,,,,,,,,,,,,,,,,,,,,,,,,,,,,,,,,,,,,,,,,,,,,,,,,,,,,,,down,1,435.88167629996315,None,435.88167629996315,None,435.88167629996315,436.88318489998346,435.88167629996315,436.88318489998346,435.88167629996315,436.88318489998346,435.88167629996315,436.88318489998346,435.88167629996315,436.38233579997905,435.88167629996315,436.38233579997905,435.88167629996315,436.38233579997905,435.88167629996315,436.38233579997905,435.88167629996315,None,0.384369199979119,,,,,11013,001,2024_Jan_02_1706,nback,2021.2.3,59.57679032175648,
0-back,instructions\back-0.png,conditions\03back-e.xlsx,,,experiment,0,3,stim\gray.png,stim\gray.png,stim\yellow.png,stim\gray.png,right,,,,,,,,,,,,,0,3,3,11,0,12,12,12,,,,,,,,,,,,,,,,,,,,,,,,,,,,,,,,,,,,,,,,,,,,,,,,,,,,,,,,right,1,437.3844375999761,None,437.3844375999761,None,437.3844375999761,438.3855351000093,437.3844375999761,438.3855351000093,437.3844375999761,438.3855351000093,437.3844375999761,438.3855351000093,437.3844375999761,437.8844463999849,437.3844375999761,437.8844463999849,437.3844375999761,437.8844463999849,437.3844375999761,437.8844463999849,437.3844375999761,None,0.36909200000809506,,,,,11013,001,2024_Jan_02_1706,nback,2021.2.3,59.57679032175648,
0-back,instructions\back-0.png,conditions\03back-e.xlsx,,,experiment,0,1,stim\yellow.png,stim\gray.png,stim\gray.png,stim\gray.png,up,,,,,,,,,,,,,0,3,3,11,0,13,13,13,,,,,,,,,,,,,,,,,,,,,,,,,,,,,,,,,,,,,,,,,,,,,,,,,,,,,,,,up,1,438.88604670000495,None,438.88604670000495,None,438.88604670000495,439.88757600000827,438.88604670000495,439.88757600000827,438.88604670000495,439.88757600000827,438.88604670000495,439.88757600000827,438.88604670000495,439.38665030000266,438.88604670000495,439.38665030000266,438.88604670000495,439.38665030000266,438.88604670000495,439.38665030000266,438.88604670000495,None,0.3315077000297606,,,,,11013,001,2024_Jan_02_1706,nback,2021.2.3,59.57679032175648,
0-back,instructions\back-0.png,conditions\03back-e.xlsx,,,experiment,0,2,stim\gray.png,stim\yellow.png,stim\gray.png,stim\gray.png,left,,,,,,,,,,,,,0,3,3,11,0,14,14,14,,,,,,,,,,,,,,,,,,,,,,,,,,,,,,,,,,,,,,,,,,,,,,,,,,,,,,,,left,1,440.3890070999623,None,440.3890070999623,None,440.3890070999623,441.38985029998,440.3890070999623,441.38985029998,440.3890070999623,441.38985029998,440.3890070999623,441.38985029998,440.3890070999623,440.88907089998247,440.3890070999623,440.88907089998247,440.3890070999623,440.88907089998247,440.3890070999623,440.88907089998247,440.3890070999623,None,0.2600747999968007,,,,,11013,001,2024_Jan_02_1706,nback,2021.2.3,59.57679032175648,
0-back,instructions\back-0.png,conditions\03back-e.xlsx,,,experiment,0,1,stim\yellow.png,stim\gray.png,stim\gray.png,stim\gray.png,up,,,,,,,,,,,,,0,3,3,11,0,15,15,15,,,,,,,,,,,,,,,,,,,,,,,,,,,,,,,,,,,,,,,,,,,,,,,,,,,,,,,,up,1,441.89033019996714,None,441.89033019996714,None,441.89033019996714,442.8925959999906,441.89033019996714,442.8925959999906,441.89033019996714,442.8925959999906,441.89033019996714,442.8925959999906,441.89033019996714,442.3917264000047,441.89033019996714,442.3917264000047,441.89033019996714,442.3917264000047,441.89033019996714,442.3917264000047,441.89033019996714,None,0.3513393999892287,,,,,11013,001,2024_Jan_02_1706,nback,2021.2.3,59.57679032175648,
0-back,instructions\back-0.png,conditions\03back-e.xlsx,,,experiment,0,3,stim\gray.png,stim\gray.png,stim\yellow.png,stim\gray.png,right,,,,,,,,,,,,,0,3,3,11,0,16,16,16,,,,,,,,,,,,,,,,,,,,,,,,,,,,,,,,,,,,,,,,,,,,,,,,,,,,,,,,right,1,443.3926091999747,None,443.3926091999747,None,443.3926091999747,444.3949242999661,443.3926091999747,444.3949242999661,443.3926091999747,444.3949242999661,443.3926091999747,444.3949242999661,443.3926091999747,443.8938758999575,443.3926091999747,443.8938758999575,443.3926091999747,443.8938758999575,443.3926091999747,443.8938758999575,443.3926091999747,None,0.3285293999942951,,,,,11013,001,2024_Jan_02_1706,nback,2021.2.3,59.57679032175648,
0-back,instructions\back-0.png,conditions\03back-e.xlsx,,,experiment,0,4,stim\gray.png,stim\gray.png,stim\gray.png,stim\yellow.png,down,,,,,,,,,,,,,0,3,3,11,0,17,17,17,,,,,,,,,,,,,,,,,,,,,,,,,,,,,,,,,,,,,,,,,,,,,,,,,,,,,,,,down,1,444.878369699989,None,444.878369699989,None,444.878369699989,445.879887899966,444.878369699989,445.879887899966,444.878369699989,445.879887899966,444.878369699989,445.879887899966,444.878369699989,445.3790163999656,444.878369699989,445.3790163999656,444.878369699989,445.3790163999656,444.878369699989,445.3790163999656,444.878369699989,None,0.3310010999557562,,,,,11013,001,2024_Jan_02_1706,nback,2021.2.3,59.57679032175648,
