backseq,backinstr,backfile,instruction,size_in,Trialtype,back,number,P1,P2,P3,P4,corrAns,trials_practice.thisRepN,trials_practice.thisTrialN,trials_practice.thisN,trials_practice.thisIndex,trials.thisRepN,trials.thisTrialN,trials.thisN,trials.thisIndex,trials_3.thisRepN,trials_3.thisTrialN,trials_3.thisN,trials_3.thisIndex,trials_2.thisRepN,trials_2.thisTrialN,trials_2.thisN,trials_2.thisIndex,trials_4.thisRepN,trials_4.thisTrialN,trials_4.thisN,trials_4.thisIndex,image.started,image.stopped,image_2.started,image_2.stopped,key_resp.keys,key_resp.rt,key_resp.started,key_resp.stopped,image_3.started,image_3.stopped,key_resp_2.keys,key_resp_2.rt,key_resp_2.started,key_resp_2.stopped,image_4.started,image_4.stopped,text.started,text.stopped,H1.started,H1.stopped,H2.started,H2.stopped,H3.started,H3.stopped,H4.started,H4.stopped,key_resp_3.keys,key_resp_3.corr,key_resp_3.rt,key_resp_3.started,key_resp_3.stopped,text_4.started,text_4.stopped,F1.started,F1.stopped,F2.started,F2.stopped,F3.started,F3.stopped,F4.started,F4.stopped,image_7.started,image_7.stopped,text_5.started,text_5.stopped,key_resp_6.keys,key_resp_6.rt,key_resp_6.started,key_resp_6.stopped,image_5.started,image_5.stopped,key_resp_4.keys,key_resp_4.rt,key_resp_4.started,key_resp_4.stopped,key_resp_5.keys,key_resp_5.corr,key_resp_5.started,key_resp_5.stopped,text_3.started,text_3.stopped,H1_2.started,H1_2.stopped,H2_2.started,H2_2.stopped,H3_2.started,H3_2.stopped,H4_2.started,H4_2.stopped,F1_2.started,F1_2.stopped,F2_2.started,F2_2.stopped,F3_2.started,F3_2.stopped,F4_2.started,F4_2.stopped,image_8.started,image_8.stopped,key_resp_5.rt,text_2.started,text_2.stopped,image_6.started,image_6.stopped,participant,session,date,expName,psychopyVersion,frameRate,
,,,,,,,,,,,,,,,,,,,,,,,,,,,,,,,,,11.118165799998678,None,12.070446700090542,None,space,7.498606999986805,12.070446700090542,None,,,,,,,,,,,,,,,,,,,,,,,,,,,,,,,,,,,,,,,,,,,,,,,,,,,,,,,,,,,,,,,,,,,,,,,,,,,,,11017,001,2024_Jan_04_1531,nback,2021.2.3,59.97681298304538,
0-back,instructions\back-0.png,conditions\0back-p.xlsx,instructions\0-BACK.png,"(15, 8)",practice,0,1,stim\yellow.png,stim\gray.png,stim\gray.png,stim\gray.png,up,0,0,0,0,0,0,0,0,0,0,0,0,,,,,,,,,,,,,,,,,19.64843760000076,None,space,61.80067720008083,19.64843760000076,None,81.62245270004496,86.13026960007846,86.08086990006268,None,86.49662210000679,87.49866140005179,86.49662210000679,87.49866140005179,86.49662210000679,87.49866140005179,86.49662210000679,87.49866140005179,up,1,0.7204962000250816,86.49662210000679,None,86.49662210000679,None,86.49662210000679,86.99846390006132,86.49662210000679,86.99846390006132,86.49662210000679,86.99846390006132,86.49662210000679,86.99846390006132,86.49662210000679,None,,,,,,,,,,,,,,,,,,,,,,,,,,,,,,,,,,,,,,,,,,11017,001,2024_Jan_04_1531,nback,2021.2.3,59.97681298304538,
0-back,instructions\back-0.png,conditions\0back-p.xlsx,instructions\0-BACK.png,"(15, 8)",practice,0,2,stim\gray.png,stim\yellow.png,stim\gray.png,stim\gray.png,left,0,0,0,0,0,0,0,0,0,1,1,1,,,,,,,,,,,,,,,,,,,,,,,,,,,87.98275890003424,88.98463810002431,87.98275890003424,88.98463810002431,87.98275890003424,88.98463810002431,87.98275890003424,88.98463810002431,left,1,0.5223833000054583,87.98275890003424,None,87.98275890003424,None,87.98275890003424,88.48293820000254,87.98275890003424,88.48293820000254,87.98275890003424,88.48293820000254,87.98275890003424,88.48293820000254,87.98275890003424,None,,,,,,,,,,,,,,,,,,,,,,,,,,,,,,,,,,,,,,,,,,11017,001,2024_Jan_04_1531,nback,2021.2.3,59.97681298304538,
0-back,instructions\back-0.png,conditions\0back-p.xlsx,instructions\0-BACK.png,"(15, 8)",practice,0,3,stim\gray.png,stim\gray.png,stim\yellow.png,stim\gray.png,right,0,0,0,0,0,0,0,0,0,2,2,2,,,,,,,,,,,,,,,,,,,,,,,,,,,89.48423210007604,90.48607960005756,89.48423210007604,90.48607960005756,89.48423210007604,90.48607960005756,89.48423210007604,90.48607960005756,right,1,0.4289431000361219,89.48423210007604,None,89.48423210007604,None,89.48423210007604,89.98517470003571,89.48423210007604,89.98517470003571,89.48423210007604,89.98517470003571,89.48423210007604,89.98517470003571,89.48423210007604,None,,,,,,,,,,,,,,,,,,,,,,,,,,,,,,,,,,,,,,,,,,11017,001,2024_Jan_04_1531,nback,2021.2.3,59.97681298304538,
0-back,instructions\back-0.png,conditions\0back-p.xlsx,instructions\0-BACK.png,"(15, 8)",practice,0,4,stim\gray.png,stim\gray.png,stim\gray.png,stim\yellow.png,down,0,0,0,0,0,0,0,0,0,3,3,3,,,,,,,,,,,,,,,,,,,,,,,,,,,90.98721680010203,91.98804620001465,90.98721680010203,91.98804620001465,90.98721680010203,91.98804620001465,90.98721680010203,91.98804620001465,down,1,0.42993969994131476,90.98721680010203,None,90.98721680010203,None,90.98721680010203,91.48741230007727,90.98721680010203,91.48741230007727,90.98721680010203,91.48741230007727,90.98721680010203,91.48741230007727,90.98721680010203,None,,,,,,,,,,,,,,,,,,,,,,,,,,,,,,,,,,,,,,,,,,11017,001,2024_Jan_04_1531,nback,2021.2.3,59.97681298304538,
0-back,instructions\back-0.png,conditions\0back-p.xlsx,instructions\0-BACK.png,"(15, 8)",practice,0,2,stim\gray.png,stim\yellow.png,stim\gray.png,stim\gray.png,left,0,0,0,0,0,0,0,0,0,4,4,4,,,,,,,,,,,,,,,,,,,,,,,,,,,92.48961050005164,93.49106260004919,92.48961050005164,93.49106260004919,92.48961050005164,93.49106260004919,92.48961050005164,93.49106260004919,left,1,0.31152920005843043,92.48961050005164,None,92.48961050005164,None,92.48961050005164,92.98947250004858,92.48961050005164,92.98947250004858,92.48961050005164,92.98947250004858,92.48961050005164,92.98947250004858,92.48961050005164,None,,,,,,,,,,,,,,,,,,,,,,,,,,,,,,,,,,,,,,,,,,11017,001,2024_Jan_04_1531,nback,2021.2.3,59.97681298304538,
0-back,instructions\back-0.png,conditions\0back-p.xlsx,instructions\0-BACK.png,"(15, 8)",practice,0,1,stim\yellow.png,stim\gray.png,stim\gray.png,stim\gray.png,up,0,0,0,0,0,0,0,0,0,5,5,5,,,,,,,,,,,,,,,,,,,,,,,,,,,93.99113280000165,94.99302210006863,93.99113280000165,94.99302210006863,93.99113280000165,94.99302210006863,93.99113280000165,94.99302210006863,up,1,0.32231750001665205,93.99113280000165,None,93.99113280000165,None,93.99113280000165,94.49255770002492,93.99113280000165,94.49255770002492,93.99113280000165,94.49255770002492,93.99113280000165,94.49255770002492,93.99113280000165,None,,,,,,,,,,,,,,,,,,,,,,,,,,,,,,,,,,,,,,,,,,11017,001,2024_Jan_04_1531,nback,2021.2.3,59.97681298304538,
0-back,instructions\back-0.png,conditions\0back-p.xlsx,instructions\0-BACK.png,"(15, 8)",practice,0,4,stim\gray.png,stim\gray.png,stim\gray.png,stim\yellow.png,down,0,0,0,0,0,0,0,0,0,6,6,6,,,,,,,,,,,,,,,,,,,,,,,,,,,95.49322599999141,96.49465250002686,95.49322599999141,96.49465250002686,95.49322599999141,96.49465250002686,95.49322599999141,96.49465250002686,down,1,0.5800194999901578,95.49322599999141,None,95.49322599999141,None,95.49322599999141,95.99528690008447,95.49322599999141,95.99528690008447,95.49322599999141,95.99528690008447,95.49322599999141,95.99528690008447,95.49322599999141,None,,,,,,,,,,,,,,,,,,,,,,,,,,,,,,,,,,,,,,,,,,11017,001,2024_Jan_04_1531,nback,2021.2.3,59.97681298304538,
0-back,instructions\back-0.png,conditions\0back-p.xlsx,instructions\0-BACK.png,"(15, 8)",practice,0,3,stim\gray.png,stim\gray.png,stim\yellow.png,stim\gray.png,right,0,0,0,0,0,0,0,0,0,7,7,7,,,,,,,,,,,,,,,,,,,,,,,,,,,96.97880850010552,97.98038510000333,96.97880850010552,97.98038510000333,96.97880850010552,97.98038510000333,96.97880850010552,97.98038510000333,right,1,0.3509016000898555,96.97880850010552,None,96.97880850010552,None,96.97880850010552,97.48008520004805,96.97880850010552,97.48008520004805,96.97880850010552,97.48008520004805,96.97880850010552,97.48008520004805,96.97880850010552,None,,,,,,,,,,,,,,,,,,,,,,,,,,,,,,,,,,,,,,,,,,11017,001,2024_Jan_04_1531,nback,2021.2.3,59.97681298304538,
0-back,instructions\back-0.png,conditions\0back-p.xlsx,instructions\0-BACK.png,"(15, 8)",practice,0,3,stim\gray.png,stim\gray.png,stim\yellow.png,stim\gray.png,right,0,0,0,0,0,0,0,0,0,8,8,8,,,,,,,,,,,,,,,,,,,,,,,,,,,98.48112390004098,99.48255810001865,98.48112390004098,99.48255810001865,98.48112390004098,99.48255810001865,98.48112390004098,99.48255810001865,right,1,0.3760042000794783,98.48112390004098,None,98.48112390004098,None,98.48112390004098,98.98229780001566,98.48112390004098,98.98229780001566,98.48112390004098,98.98229780001566,98.48112390004098,98.98229780001566,98.48112390004098,None,,,,,,,,,,,,,,,,,,,,,,,,,,,,,,,,,,,,,,,,,,11017,001,2024_Jan_04_1531,nback,2021.2.3,59.97681298304538,
0-back,instructions\back-0.png,conditions\0back-p.xlsx,instructions\0-BACK.png,"(15, 8)",practice,0,4,stim\gray.png,stim\gray.png,stim\gray.png,stim\yellow.png,down,0,0,0,0,0,0,0,0,0,9,9,9,,,,,,,,,,,,,,,,,,,,,,,,,,,99.98417780001182,100.98530590010341,99.98417780001182,100.98530590010341,99.98417780001182,100.98530590010341,99.98417780001182,100.98530590010341,down,1,0.4570917000528425,99.98417780001182,None,99.98417780001182,None,99.98417780001182,100.48405030008871,99.98417780001182,100.48405030008871,99.98417780001182,100.48405030008871,99.98417780001182,100.48405030008871,99.98417780001182,None,,,,,,,,,,,,,,,,,,,,,,,,,,,,,,,,,,,,,,,,,,11017,001,2024_Jan_04_1531,nback,2021.2.3,59.97681298304538,
0-back,instructions\back-0.png,conditions\0back-p.xlsx,instructions\0-BACK.png,"(15, 8)",practice,0,1,stim\yellow.png,stim\gray.png,stim\gray.png,stim\gray.png,up,0,0,0,0,0,0,0,0,0,10,10,10,,,,,,,,,,,,,,,,,,,,,,,,,,,101.48543340002652,102.4875726000173,101.48543340002652,102.4875726000173,101.48543340002652,102.4875726000173,101.48543340002652,102.4875726000173,up,1,0.34830429998692125,101.48543340002652,None,101.48543340002652,None,101.48543340002652,101.98631180007942,101.48543340002652,101.98631180007942,101.48543340002652,101.98631180007942,101.48543340002652,101.98631180007942,101.48543340002652,None,,,,,,,,,,,,,,,,,,,,,,,,,,,,,,,,,,,,,,,,,,11017,001,2024_Jan_04_1531,nback,2021.2.3,59.97681298304538,
0-back,instructions\back-0.png,conditions\0back-p.xlsx,instructions\0-BACK.png,"(15, 8)",practice,0,2,stim\gray.png,stim\yellow.png,stim\gray.png,stim\gray.png,left,0,0,0,0,0,0,0,0,0,11,11,11,,,,,,,,,,,,,,,,,,,,,,,,,,,102.98772080009803,103.99006600002758,102.98772080009803,103.99006600002758,102.98772080009803,103.99006600002758,102.98772080009803,103.99006600002758,left,1,0.3021152999717742,102.98772080009803,None,102.98772080009803,None,102.98772080009803,103.48863690008875,102.98772080009803,103.48863690008875,102.98772080009803,103.48863690008875,102.98772080009803,103.48863690008875,102.98772080009803,None,,,,,,,,,,,,,,,,,,,,,,,,,,,,,,,,,,,,,,,,,,11017,001,2024_Jan_04_1531,nback,2021.2.3,59.97681298304538,
0-back,instructions\back-0.png,conditions\0back-p.xlsx,instructions\0-BACK.png,"(15, 8)",practice,0,4,stim\gray.png,stim\gray.png,stim\gray.png,stim\yellow.png,down,0,0,0,0,0,0,0,0,0,12,12,12,,,,,,,,,,,,,,,,,,,,,,,,,,,104.49002480006311,105.49142030009534,104.49002480006311,105.49142030009534,104.49002480006311,105.49142030009534,104.49002480006311,105.49142030009534,down,1,0.6391950000543147,104.49002480006311,None,104.49002480006311,None,104.49002480006311,104.99118980008643,104.49002480006311,104.99118980008643,104.49002480006311,104.99118980008643,104.49002480006311,104.99118980008643,104.49002480006311,None,,,,,,,,,,,,,,,,,,,,,,,,,,,,,,,,,,,,,,,,,,11017,001,2024_Jan_04_1531,nback,2021.2.3,59.97681298304538,
0-back,instructions\back-0.png,conditions\0back-p.xlsx,instructions\0-BACK.png,"(15, 8)",practice,0,3,stim\gray.png,stim\gray.png,stim\yellow.png,stim\gray.png,right,0,0,0,0,0,0,0,0,0,13,13,13,,,,,,,,,,,,,,,,,,,,,,,,,,,105.99279250006657,106.9935854000505,105.99279250006657,106.9935854000505,105.99279250006657,106.9935854000505,105.99279250006657,106.9935854000505,right,1,0.3283620000584051,105.99279250006657,None,105.99279250006657,None,105.99279250006657,106.49286120000761,105.99279250006657,106.49286120000761,105.99279250006657,106.49286120000761,105.99279250006657,106.49286120000761,105.99279250006657,None,,,,,,,,,,,,,,,,,,,,,,,,,,,,,,,,,,,,,,,,,,11017,001,2024_Jan_04_1531,nback,2021.2.3,59.97681298304538,
0-back,instructions\back-0.png,conditions\0back-p.xlsx,instructions\0-BACK.png,"(15, 8)",practice,0,1,stim\yellow.png,stim\gray.png,stim\gray.png,stim\gray.png,up,0,0,0,0,0,0,0,0,0,14,14,14,,,,,,,,,,,,,,,,,,,,,,,,,,,107.47759090003092,108.4793182000285,107.47759090003092,108.4793182000285,107.47759090003092,108.4793182000285,107.47759090003092,108.4793182000285,up,1,0.31613200006540865,107.47759090003092,None,107.47759090003092,None,107.47759090003092,107.9791741000954,107.47759090003092,107.9791741000954,107.47759090003092,107.9791741000954,107.47759090003092,107.9791741000954,107.47759090003092,None,,,,,,,,,,,,,,,,,,,,,,,,,,,,,,,,,,,,,,,,,,11017,001,2024_Jan_04_1531,nback,2021.2.3,59.97681298304538,
0-back,instructions\back-0.png,conditions\0back-p.xlsx,instructions\0-BACK.png,"(15, 8)",practice,0,2,stim\gray.png,stim\yellow.png,stim\gray.png,stim\gray.png,left,0,0,0,0,0,0,0,0,0,15,15,15,,,,,,,,,,,,,,,,,,,,,,,,,,,108.9798027999932,109.98148260009475,108.9798027999932,109.98148260009475,108.9798027999932,109.98148260009475,108.9798027999932,109.98148260009475,left,1,0.28522109996993095,108.9798027999932,None,108.9798027999932,None,108.9798027999932,109.48133320000488,108.9798027999932,109.48133320000488,108.9798027999932,109.48133320000488,108.9798027999932,109.48133320000488,108.9798027999932,None,,,,,,,,,,,,,,,,,,,,,,,,,,,,,,,,,,,,,,,,,,11017,001,2024_Jan_04_1531,nback,2021.2.3,59.97681298304538,
0-back,instructions\back-0.png,conditions\0back-p.xlsx,instructions\0-BACK.png,"(15, 8)",practice,0,3,stim\gray.png,stim\gray.png,stim\yellow.png,stim\gray.png,right,0,0,0,0,0,0,0,0,0,16,16,16,,,,,,,,,,,,,,,,,,,,,,,,,,,110.48224939999636,111.4846141000744,110.48224939999636,111.4846141000744,110.48224939999636,111.4846141000744,110.48224939999636,111.4846141000744,right,1,0.4629308000439778,110.48224939999636,None,110.48224939999636,None,110.48224939999636,110.98271490004845,110.48224939999636,110.98271490004845,110.48224939999636,110.98271490004845,110.48224939999636,110.98271490004845,110.48224939999636,None,,,,,,,,,,,,,,,,,,,,,,,,,,,,,,,,,,,,,,,,,,11017,001,2024_Jan_04_1531,nback,2021.2.3,59.97681298304538,
0-back,instructions\back-0.png,conditions\0back-p.xlsx,instructions\0-BACK.png,"(15, 8)",practice,0,1,stim\yellow.png,stim\gray.png,stim\gray.png,stim\gray.png,up,0,0,0,0,0,0,0,0,0,17,17,17,,,,,,,,,,,,,,,,,,,,,,,,,,,111.9844780000858,112.98716110002715,111.9844780000858,112.98716110002715,111.9844780000858,112.98716110002715,111.9844780000858,112.98716110002715,up,1,0.5369225000031292,111.9844780000858,None,111.9844780000858,None,111.9844780000858,112.48638930008747,111.9844780000858,112.48638930008747,111.9844780000858,112.48638930008747,111.9844780000858,112.48638930008747,111.9844780000858,None,,,,,,,,,,,,,,,,,,,,,,,,,,,,,,,,,,,,,,,,,,11017,001,2024_Jan_04_1531,nback,2021.2.3,59.97681298304538,
0-back,instructions\back-0.png,conditions\0back-p.xlsx,instructions\0-BACK.png,"(15, 8)",practice,0,4,stim\gray.png,stim\gray.png,stim\gray.png,stim\yellow.png,down,0,0,0,0,0,0,0,0,0,18,18,18,,,,,,,,,,,,,,,,,,,,,,,,,,,113.48664770007599,114.48816350009292,113.48664770007599,114.48816350009292,113.48664770007599,114.48816350009292,113.48664770007599,114.48816350009292,down,1,0.482391000026837,113.48664770007599,None,113.48664770007599,None,113.48664770007599,113.98726000008173,113.48664770007599,113.98726000008173,113.48664770007599,113.98726000008173,113.48664770007599,113.98726000008173,113.48664770007599,None,,,,,,,,,,,,,,,,,,,,,,,,,,,,,,,,,,,,,,,,,,11017,001,2024_Jan_04_1531,nback,2021.2.3,59.97681298304538,
0-back,instructions\back-0.png,conditions\0back-p.xlsx,instructions\0-BACK.png,"(15, 8)",practice,0,2,stim\gray.png,stim\yellow.png,stim\gray.png,stim\gray.png,left,0,0,0,0,0,0,0,0,0,19,19,19,,,,,,,,,,,,,,,,,,,,,,,,,,,114.99033140006941,115.99032970005646,114.99033140006941,115.99032970005646,114.99033140006941,115.99032970005646,114.99033140006941,115.99032970005646,left,1,0.322944299899973,114.99033140006941,None,114.99033140006941,None,114.99033140006941,115.48970969999209,114.99033140006941,115.48970969999209,114.99033140006941,115.48970969999209,114.99033140006941,115.48970969999209,114.99033140006941,None,,,,,,,,,,,,,,,,,,,,,,,,,,,,,,,,,,,,,,,,,,11017,001,2024_Jan_04_1531,nback,2021.2.3,59.97681298304538,
0-back,instructions\back-0.png,conditions\0back-p.xlsx,instructions\0-BACK.png,"(15, 8)",,,,,,,,,0,0,0,0,0,0,0,0,,,,,,,,,,,,,,,,,,,,,,,,,,,,,,,,,,,,,,,,,,,,,,,,,,,,,,,,,,,,,,,,,,,,,,,,,,,,,,,,,,,,,,,,,,,,,,,,,11017,001,2024_Jan_04_1531,nback,2021.2.3,59.97681298304538,
1-back,instructions\back-1.png,conditions\1back-p.xlsx,instructions\1-BACK.png,"(25, 15)",practice,1,1,stim\yellow.png,stim\gray.png,stim\gray.png,stim\gray.png,None,0,0,0,0,0,1,1,1,0,0,0,0,,,,,,,,,,,,,,,,,116.67511650000233,None,space,5.406354899983853,116.67511650000233,None,122.21589170000516,126.72505270002875,126.69012800010387,None,127.12574090005364,128.12557170004584,127.12574090005364,128.12557170004584,127.12574090005364,128.12557170004584,127.12574090005364,128.12557170004584,None,1,,127.12574090005364,None,127.12574090005364,None,127.12574090005364,127.62434510001913,127.12574090005364,127.62434510001913,127.12574090005364,127.62434510001913,127.12574090005364,127.62434510001913,127.12574090005364,None,,,,,,,,,,,,,,,,,,,,,,,,,,,,,,,,,,,,,,,,,,11017,001,2024_Jan_04_1531,nback,2021.2.3,59.97681298304538,
1-back,instructions\back-1.png,conditions\1back-p.xlsx,instructions\1-BACK.png,"(25, 15)",practice,1,2,stim\gray.png,stim\yellow.png,stim\gray.png,stim\gray.png,up,0,0,0,0,0,1,1,1,0,1,1,1,,,,,,,,,,,,,,,,,,,,,,,,,,,128.60886290005874,129.61059400008526,128.60886290005874,129.61059400008526,128.60886290005874,129.61059400008526,128.60886290005874,129.61059400008526,up,1,0.4086054000072181,128.60886290005874,None,128.60886290005874,None,128.60886290005874,129.11039590009023,128.60886290005874,129.11039590009023,128.60886290005874,129.11039590009023,128.60886290005874,129.11039590009023,128.60886290005874,None,,,,,,,,,,,,,,,,,,,,,,,,,,,,,,,,,,,,,,,,,,11017,001,2024_Jan_04_1531,nback,2021.2.3,59.97681298304538,
1-back,instructions\back-1.png,conditions\1back-p.xlsx,instructions\1-BACK.png,"(25, 15)",practice,1,3,stim\gray.png,stim\gray.png,stim\yellow.png,stim\gray.png,left,0,0,0,0,0,1,1,1,0,2,2,2,,,,,,,,,,,,,,,,,,,,,,,,,,,130.1118712000316,131.11344099999405,130.1118712000316,131.11344099999405,130.1118712000316,131.11344099999405,130.1118712000316,131.11344099999405,left,1,0.30578120006248355,130.1118712000316,None,130.1118712000316,None,130.1118712000316,130.6118280000519,130.1118712000316,130.6118280000519,130.1118712000316,130.6118280000519,130.1118712000316,130.6118280000519,130.1118712000316,None,,,,,,,,,,,,,,,,,,,,,,,,,,,,,,,,,,,,,,,,,,11017,001,2024_Jan_04_1531,nback,2021.2.3,59.97681298304538,
1-back,instructions\back-1.png,conditions\1back-p.xlsx,instructions\1-BACK.png,"(25, 15)",practice,1,4,stim\gray.png,stim\gray.png,stim\gray.png,stim\yellow.png,right,0,0,0,0,0,1,1,1,0,3,3,3,,,,,,,,,,,,,,,,,,,,,,,,,,,131.61354040005244,132.61495200009085,131.61354040005244,132.61495200009085,131.61354040005244,132.61495200009085,131.61354040005244,132.61495200009085,right,1,0.27566919999662787,131.61354040005244,None,131.61354040005244,None,131.61354040005244,132.11493230005726,131.61354040005244,132.11493230005726,131.61354040005244,132.11493230005726,131.61354040005244,132.11493230005726,131.61354040005244,None,,,,,,,,,,,,,,,,,,,,,,,,,,,,,,,,,,,,,,,,,,11017,001,2024_Jan_04_1531,nback,2021.2.3,59.97681298304538,
1-back,instructions\back-1.png,conditions\1back-p.xlsx,instructions\1-BACK.png,"(25, 15)",practice,1,2,stim\gray.png,stim\yellow.png,stim\gray.png,stim\gray.png,down,0,0,0,0,0,1,1,1,0,4,4,4,,,,,,,,,,,,,,,,,,,,,,,,,,,133.115650700056,134.11809180001728,133.115650700056,134.11809180001728,133.115650700056,134.11809180001728,133.115650700056,134.11809180001728,down,1,0.20547839999198914,133.115650700056,None,133.115650700056,None,133.115650700056,133.6164371999912,133.115650700056,133.6164371999912,133.115650700056,133.6164371999912,133.115650700056,133.6164371999912,133.115650700056,None,,,,,,,,,,,,,,,,,,,,,,,,,,,,,,,,,,,,,,,,,,11017,001,2024_Jan_04_1531,nback,2021.2.3,59.97681298304538,
1-back,instructions\back-1.png,conditions\1back-p.xlsx,instructions\1-BACK.png,"(25, 15)",practice,1,1,stim\yellow.png,stim\gray.png,stim\gray.png,stim\gray.png,left,0,0,0,0,0,1,1,1,0,5,5,5,,,,,,,,,,,,,,,,,,,,,,,,,,,134.61795580002945,135.61933350004256,134.61795580002945,135.61933350004256,134.61795580002945,135.61933350004256,134.61795580002945,135.61933350004256,left,1,0.19968540000263602,134.61795580002945,None,134.61795580002945,None,134.61795580002945,135.1191445000004,134.61795580002945,135.1191445000004,134.61795580002945,135.1191445000004,134.61795580002945,135.1191445000004,134.61795580002945,None,,,,,,,,,,,,,,,,,,,,,,,,,,,,,,,,,,,,,,,,,,11017,001,2024_Jan_04_1531,nback,2021.2.3,59.97681298304538,
1-back,instructions\back-1.png,conditions\1back-p.xlsx,instructions\1-BACK.png,"(25, 15)",practice,1,4,stim\gray.png,stim\gray.png,stim\gray.png,stim\yellow.png,up,0,0,0,0,0,1,1,1,0,6,6,6,,,,,,,,,,,,,,,,,,,,,,,,,,,136.10351370007265,137.10562849999405,136.10351370007265,137.10562849999405,136.10351370007265,137.10562849999405,136.10351370007265,137.10562849999405,up,1,0.16951329994481057,136.10351370007265,None,136.10351370007265,None,136.10351370007265,136.60485320002772,136.10351370007265,136.60485320002772,136.10351370007265,136.60485320002772,136.10351370007265,136.60485320002772,136.10351370007265,None,,,,,,,,,,,,,,,,,,,,,,,,,,,,,,,,,,,,,,,,,,11017,001,2024_Jan_04_1531,nback,2021.2.3,59.97681298304538,
1-back,instructions\back-1.png,conditions\1back-p.xlsx,instructions\1-BACK.png,"(25, 15)",practice,1,3,stim\gray.png,stim\gray.png,stim\yellow.png,stim\gray.png,down,0,0,0,0,0,1,1,1,0,7,7,7,,,,,,,,,,,,,,,,,,,,,,,,,,,137.60570459999144,138.60756570007652,137.60570459999144,138.60756570007652,137.60570459999144,138.60756570007652,137.60570459999144,138.60756570007652,down,1,0.18732999998610467,137.60570459999144,None,137.60570459999144,None,137.60570459999144,138.106905200053,137.60570459999144,138.106905200053,137.60570459999144,138.106905200053,137.60570459999144,138.106905200053,137.60570459999144,None,,,,,,,,,,,,,,,,,,,,,,,,,,,,,,,,,,,,,,,,,,11017,001,2024_Jan_04_1531,nback,2021.2.3,59.97681298304538,
1-back,instructions\back-1.png,conditions\1back-p.xlsx,instructions\1-BACK.png,"(25, 15)",practice,1,3,stim\gray.png,stim\gray.png,stim\yellow.png,stim\gray.png,right,0,0,0,0,0,1,1,1,0,8,8,8,,,,,,,,,,,,,,,,,,,,,,,,,,,139.10799799999222,140.1100397000555,139.10799799999222,140.1100397000555,139.10799799999222,140.1100397000555,139.10799799999222,140.1100397000555,right,1,0.11801189999096096,139.10799799999222,None,139.10799799999222,None,139.10799799999222,139.6101079999935,139.10799799999222,139.6101079999935,139.10799799999222,139.6101079999935,139.10799799999222,139.6101079999935,139.10799799999222,None,,,,,,,,,,,,,,,,,,,,,,,,,,,,,,,,,,,,,,,,,,11017,001,2024_Jan_04_1531,nback,2021.2.3,59.97681298304538,
1-back,instructions\back-1.png,conditions\1back-p.xlsx,instructions\1-BACK.png,"(25, 15)",practice,1,4,stim\gray.png,stim\gray.png,stim\gray.png,stim\yellow.png,right,0,0,0,0,0,1,1,1,0,9,9,9,,,,,,,,,,,,,,,,,,,,,,,,,,,140.6107600000687,141.61161710007582,140.6107600000687,141.61161710007582,140.6107600000687,141.61161710007582,140.6107600000687,141.61161710007582,right,1,0.1263700999552384,140.6107600000687,None,140.6107600000687,None,140.6107600000687,141.11119010008406,140.6107600000687,141.11119010008406,140.6107600000687,141.11119010008406,140.6107600000687,141.11119010008406,140.6107600000687,None,,,,,,,,,,,,,,,,,,,,,,,,,,,,,,,,,,,,,,,,,,11017,001,2024_Jan_04_1531,nback,2021.2.3,59.97681298304538,
1-back,instructions\back-1.png,conditions\1back-p.xlsx,instructions\1-BACK.png,"(25, 15)",practice,1,1,stim\yellow.png,stim\gray.png,stim\gray.png,stim\gray.png,down,0,0,0,0,0,1,1,1,0,10,10,10,,,,,,,,,,,,,,,,,,,,,,,,,,,142.1121219000779,143.1149449000368,142.1121219000779,143.1149449000368,142.1121219000779,143.1149449000368,142.1121219000779,143.1149449000368,up,0,1.4417145000770688,142.1121219000779,None,142.1121219000779,None,142.1121219000779,142.61356160009746,142.1121219000779,142.61356160009746,142.1121219000779,142.61356160009746,142.1121219000779,142.61356160009746,142.1121219000779,None,,,,,,,,,,,,,,,,,,,,,,,,,,,,,,,,,,,,,,,,,,11017,001,2024_Jan_04_1531,nback,2021.2.3,59.97681298304538,
1-back,instructions\back-1.png,conditions\1back-p.xlsx,instructions\1-BACK.png,"(25, 15)",practice,1,2,stim\gray.png,stim\yellow.png,stim\gray.png,stim\gray.png,up,0,0,0,0,0,1,1,1,0,11,11,11,,,,,,,,,,,,,,,,,,,,,,,,,,,143.61444730008952,144.61606170004234,143.61444730008952,144.61606170004234,143.61444730008952,144.61606170004234,143.61444730008952,144.61606170004234,None,0,,143.61444730008952,None,143.61444730008952,None,143.61444730008952,144.11603520007338,143.61444730008952,144.11603520007338,143.61444730008952,144.11603520007338,143.61444730008952,144.11603520007338,143.61444730008952,None,,,,,,,,,,,,,,,,,,,,,,,,,,,,,,,,,,,,,,,,,,11017,001,2024_Jan_04_1531,nback,2021.2.3,59.97681298304538,
1-back,instructions\back-1.png,conditions\1back-p.xlsx,instructions\1-BACK.png,"(25, 15)",practice,1,4,stim\gray.png,stim\gray.png,stim\gray.png,stim\yellow.png,left,0,0,0,0,0,1,1,1,0,12,12,12,,,,,,,,,,,,,,,,,,,,,,,,,,,145.11677980003878,146.11865489999764,145.11677980003878,146.11865489999764,145.11677980003878,146.11865489999764,145.11677980003878,146.11865489999764,left,1,0.12432070006616414,145.11677980003878,None,145.11677980003878,None,145.11677980003878,145.61849420005456,145.11677980003878,145.61849420005456,145.11677980003878,145.61849420005456,145.11677980003878,145.61849420005456,145.11677980003878,None,,,,,,,,,,,,,,,,,,,,,,,,,,,,,,,,,,,,,,,,,,11017,001,2024_Jan_04_1531,nback,2021.2.3,59.97681298304538,
1-back,instructions\back-1.png,conditions\1back-p.xlsx,instructions\1-BACK.png,"(25, 15)",practice,1,3,stim\gray.png,stim\gray.png,stim\yellow.png,stim\gray.png,down,0,0,0,0,0,1,1,1,0,13,13,13,,,,,,,,,,,,,,,,,,,,,,,,,,,146.6189712000778,147.6211101000663,146.6189712000778,147.6211101000663,146.6189712000778,147.6211101000663,146.6189712000778,147.6211101000663,down,1,0.15079729992430657,146.6189712000778,None,146.6189712000778,None,146.6189712000778,147.12060030002613,146.6189712000778,147.12060030002613,146.6189712000778,147.12060030002613,146.6189712000778,147.12060030002613,146.6189712000778,None,,,,,,,,,,,,,,,,,,,,,,,,,,,,,,,,,,,,,,,,,,11017,001,2024_Jan_04_1531,nback,2021.2.3,59.97681298304538,
1-back,instructions\back-1.png,conditions\1back-p.xlsx,instructions\1-BACK.png,"(25, 15)",practice,1,1,stim\yellow.png,stim\gray.png,stim\gray.png,stim\gray.png,right,0,0,0,0,0,1,1,1,0,14,14,14,,,,,,,,,,,,,,,,,,,,,,,,,,,148.10452220006846,149.1078022000147,148.10452220006846,149.1078022000147,148.10452220006846,149.1078022000147,148.10452220006846,149.1078022000147,right,1,0.24859119998291135,148.10452220006846,None,148.10452220006846,None,148.10452220006846,148.60530300007667,148.10452220006846,148.60530300007667,148.10452220006846,148.60530300007667,148.10452220006846,148.60530300007667,148.10452220006846,None,,,,,,,,,,,,,,,,,,,,,,,,,,,,,,,,,,,,,,,,,,11017,001,2024_Jan_04_1531,nback,2021.2.3,59.97681298304538,
1-back,instructions\back-1.png,conditions\1back-p.xlsx,instructions\1-BACK.png,"(25, 15)",practice,1,2,stim\gray.png,stim\yellow.png,stim\gray.png,stim\gray.png,up,0,0,0,0,0,1,1,1,0,15,15,15,,,,,,,,,,,,,,,,,,,,,,,,,,,149.60681530006696,150.60921870009042,149.60681530006696,150.60921870009042,149.60681530006696,150.60921870009042,149.60681530006696,150.60921870009042,up,1,0.18671040004119277,149.60681530006696,None,149.60681530006696,None,149.60681530006696,150.10762430005707,149.60681530006696,150.10762430005707,149.60681530006696,150.10762430005707,149.60681530006696,150.10762430005707,149.60681530006696,None,,,,,,,,,,,,,,,,,,,,,,,,,,,,,,,,,,,,,,,,,,11017,001,2024_Jan_04_1531,nback,2021.2.3,59.97681298304538,
1-back,instructions\back-1.png,conditions\1back-p.xlsx,instructions\1-BACK.png,"(25, 15)",practice,1,3,stim\gray.png,stim\gray.png,stim\yellow.png,stim\gray.png,left,0,0,0,0,0,1,1,1,0,16,16,16,,,,,,,,,,,,,,,,,,,,,,,,,,,151.10903280007187,152.1105511999922,151.10903280007187,152.1105511999922,151.10903280007187,152.1105511999922,151.10903280007187,152.1105511999922,left,1,0.1644601000007242,151.10903280007187,None,151.10903280007187,None,151.10903280007187,151.60989700001664,151.10903280007187,151.60989700001664,151.10903280007187,151.60989700001664,151.10903280007187,151.60989700001664,151.10903280007187,None,,,,,,,,,,,,,,,,,,,,,,,,,,,,,,,,,,,,,,,,,,11017,001,2024_Jan_04_1531,nback,2021.2.3,59.97681298304538,
1-back,instructions\back-1.png,conditions\1back-p.xlsx,instructions\1-BACK.png,"(25, 15)",practice,1,1,stim\yellow.png,stim\gray.png,stim\gray.png,stim\gray.png,right,0,0,0,0,0,1,1,1,0,17,17,17,,,,,,,,,,,,,,,,,,,,,,,,,,,152.61164720007218,153.61547910002992,152.61164720007218,153.61547910002992,152.61164720007218,153.61547910002992,152.61164720007218,153.61547910002992,right,1,0.1815991000039503,152.61164720007218,None,152.61164720007218,None,152.61164720007218,153.11225170001853,152.61164720007218,153.11225170001853,152.61164720007218,153.11225170001853,152.61164720007218,153.11225170001853,152.61164720007218,None,,,,,,,,,,,,,,,,,,,,,,,,,,,,,,,,,,,,,,,,,,11017,001,2024_Jan_04_1531,nback,2021.2.3,59.97681298304538,
1-back,instructions\back-1.png,conditions\1back-p.xlsx,instructions\1-BACK.png,"(25, 15)",practice,1,4,stim\gray.png,stim\gray.png,stim\gray.png,stim\yellow.png,up,0,0,0,0,0,1,1,1,0,18,18,18,,,,,,,,,,,,,,,,,,,,,,,,,,,154.1134831000818,155.11507490009535,154.1134831000818,155.11507490009535,154.1134831000818,155.11507490009535,154.1134831000818,155.11507490009535,up,1,0.07194860000163317,154.1134831000818,None,154.1134831000818,None,154.1134831000818,154.61487640009727,154.1134831000818,154.61487640009727,154.1134831000818,154.61487640009727,154.1134831000818,154.61487640009727,154.1134831000818,None,,,,,,,,,,,,,,,,,,,,,,,,,,,,,,,,,,,,,,,,,,11017,001,2024_Jan_04_1531,nback,2021.2.3,59.97681298304538,
1-back,instructions\back-1.png,conditions\1back-p.xlsx,instructions\1-BACK.png,"(25, 15)",practice,1,2,stim\gray.png,stim\yellow.png,stim\gray.png,stim\gray.png,down,0,0,0,0,0,1,1,1,0,19,19,19,,,,,,,,,,,,,,,,,,,,,,,,,,,155.61646300007124,156.6172574000666,155.61646300007124,156.6172574000666,155.61646300007124,156.6172574000666,155.61646300007124,156.6172574000666,left,0,1.4251880999654531,155.61646300007124,None,155.61646300007124,None,155.61646300007124,156.11645160010085,155.61646300007124,156.11645160010085,155.61646300007124,156.11645160010085,155.61646300007124,156.11645160010085,155.61646300007124,None,,,,,,,,,,,,,,,,,,,,,,,,,,,,,,,,,,,,,,,,,,11017,001,2024_Jan_04_1531,nback,2021.2.3,59.97681298304538,
1-back,instructions\back-1.png,conditions\1back-p.xlsx,instructions\1-BACK.png,"(25, 15)",,,,,,,,,0,0,0,0,0,1,1,1,,,,,,,,,,,,,,,,,,,,,,,,,,,,,,,,,,,,,,,,,,,,,,,,,,,,,,,,,,,,,,,,,,,,,,,,,,,,,,,,,,,,,,,,,,,,,,,,,11017,001,2024_Jan_04_1531,nback,2021.2.3,59.97681298304538,
2-back,instructions\back-2.png,conditions\2back-p.xlsx,instructions\2-BACK.png,"(25, 15)",practice,2,1,stim\yellow.png,stim\gray.png,stim\gray.png,stim\gray.png,None,0,0,0,0,0,2,2,2,0,0,0,0,,,,,,,,,,,,,,,,,157.26802760001738,None,space,4.477090000058524,157.26802760001738,None,161.92499410000164,166.43330510007218,166.38197730004322,None,166.80063990002964,167.80153630010318,166.80063990002964,167.80153630010318,166.80063990002964,167.80153630010318,166.80063990002964,167.80153630010318,None,1,,166.80063990002964,None,166.80063990002964,None,166.80063990002964,167.3170673000859,166.80063990002964,167.3170673000859,166.80063990002964,167.3170673000859,166.80063990002964,167.3170673000859,166.80063990002964,None,,,,,,,,,,,,,,,,,,,,,,,,,,,,,,,,,,,,,,,,,,11017,001,2024_Jan_04_1531,nback,2021.2.3,59.97681298304538,
2-back,instructions\back-2.png,conditions\2back-p.xlsx,instructions\2-BACK.png,"(25, 15)",practice,2,2,stim\gray.png,stim\yellow.png,stim\gray.png,stim\gray.png,None,0,0,0,0,0,2,2,2,0,1,1,1,,,,,,,,,,,,,,,,,,,,,,,,,,,168.2844365000492,169.28675860003568,168.2844365000492,169.28675860003568,168.2844365000492,169.28675860003568,168.2844365000492,169.28675860003568,None,1,,168.2844365000492,None,168.2844365000492,None,168.2844365000492,168.78511260007508,168.2844365000492,168.78511260007508,168.2844365000492,168.78511260007508,168.2844365000492,168.78511260007508,168.2844365000492,None,,,,,,,,,,,,,,,,,,,,,,,,,,,,,,,,,,,,,,,,,,11017,001,2024_Jan_04_1531,nback,2021.2.3,59.97681298304538,
2-back,instructions\back-2.png,conditions\2back-p.xlsx,instructions\2-BACK.png,"(25, 15)",practice,2,3,stim\gray.png,stim\gray.png,stim\yellow.png,stim\gray.png,up,0,0,0,0,0,2,2,2,0,2,2,2,,,,,,,,,,,,,,,,,,,,,,,,,,,169.78754540008958,170.78880060010124,169.78754540008958,170.78880060010124,169.78754540008958,170.78880060010124,169.78754540008958,170.78880060010124,up,1,0.25395019992720336,169.78754540008958,None,169.78754540008958,None,169.78754540008958,170.28739750001114,169.78754540008958,170.28739750001114,169.78754540008958,170.28739750001114,169.78754540008958,170.28739750001114,169.78754540008958,None,,,,,,,,,,,,,,,,,,,,,,,,,,,,,,,,,,,,,,,,,,11017,001,2024_Jan_04_1531,nback,2021.2.3,59.97681298304538,
2-back,instructions\back-2.png,conditions\2back-p.xlsx,instructions\2-BACK.png,"(25, 15)",practice,2,4,stim\gray.png,stim\gray.png,stim\gray.png,stim\yellow.png,left,0,0,0,0,0,2,2,2,0,3,3,3,,,,,,,,,,,,,,,,,,,,,,,,,,,171.28896780009381,172.29038060002495,171.28896780009381,172.29038060002495,171.28896780009381,172.29038060002495,171.28896780009381,172.29038060002495,left,1,0.32030429993756115,171.28896780009381,None,171.28896780009381,None,171.28896780009381,171.78981129999738,171.28896780009381,171.78981129999738,171.28896780009381,171.78981129999738,171.28896780009381,171.78981129999738,171.28896780009381,None,,,,,,,,,,,,,,,,,,,,,,,,,,,,,,,,,,,,,,,,,,11017,001,2024_Jan_04_1531,nback,2021.2.3,59.97681298304538,
2-back,instructions\back-2.png,conditions\2back-p.xlsx,instructions\2-BACK.png,"(25, 15)",practice,2,2,stim\gray.png,stim\yellow.png,stim\gray.png,stim\gray.png,right,0,0,0,0,0,2,2,2,0,4,4,4,,,,,,,,,,,,,,,,,,,,,,,,,,,172.7904718000209,173.7930314000696,172.7904718000209,173.7930314000696,172.7904718000209,173.7930314000696,172.7904718000209,173.7930314000696,right,1,0.17090700007975101,172.7904718000209,None,172.7904718000209,None,172.7904718000209,173.29320100008044,172.7904718000209,173.29320100008044,172.7904718000209,173.29320100008044,172.7904718000209,173.29320100008044,172.7904718000209,None,,,,,,,,,,,,,,,,,,,,,,,,,,,,,,,,,,,,,,,,,,11017,001,2024_Jan_04_1531,nback,2021.2.3,59.97681298304538,
2-back,instructions\back-2.png,conditions\2back-p.xlsx,instructions\2-BACK.png,"(25, 15)",practice,2,1,stim\yellow.png,stim\gray.png,stim\gray.png,stim\gray.png,down,0,0,0,0,0,2,2,2,0,5,5,5,,,,,,,,,,,,,,,,,,,,,,,,,,,174.29369700001553,175.2955108000897,174.29369700001553,175.2955108000897,174.29369700001553,175.2955108000897,174.29369700001553,175.2955108000897,down,1,0.28366070007905364,174.29369700001553,None,174.29369700001553,None,174.29369700001553,174.79422939999495,174.29369700001553,174.79422939999495,174.29369700001553,174.79422939999495,174.29369700001553,174.79422939999495,174.29369700001553,None,,,,,,,,,,,,,,,,,,,,,,,,,,,,,,,,,,,,,,,,,,11017,001,2024_Jan_04_1531,nback,2021.2.3,59.97681298304538,
2-back,instructions\back-2.png,conditions\2back-p.xlsx,instructions\2-BACK.png,"(25, 15)",practice,2,4,stim\gray.png,stim\gray.png,stim\gray.png,stim\yellow.png,left,0,0,0,0,0,2,2,2,0,6,6,6,,,,,,,,,,,,,,,,,,,,,,,,,,,175.7788721000543,176.7811737000011,175.7788721000543,176.7811737000011,175.7788721000543,176.7811737000011,175.7788721000543,176.7811737000011,left,1,0.19833370007108897,175.7788721000543,None,175.7788721000543,None,175.7788721000543,176.28091220010538,175.7788721000543,176.28091220010538,175.7788721000543,176.28091220010538,175.7788721000543,176.28091220010538,175.7788721000543,None,,,,,,,,,,,,,,,,,,,,,,,,,,,,,,,,,,,,,,,,,,11017,001,2024_Jan_04_1531,nback,2021.2.3,59.97681298304538,
2-back,instructions\back-2.png,conditions\2back-p.xlsx,instructions\2-BACK.png,"(25, 15)",practice,2,3,stim\gray.png,stim\gray.png,stim\yellow.png,stim\gray.png,up,0,0,0,0,0,2,2,2,0,7,7,7,,,,,,,,,,,,,,,,,,,,,,,,,,,177.2815574000124,178.28406940004788,177.2815574000124,178.28406940004788,177.2815574000124,178.28406940004788,177.2815574000124,178.28406940004788,up,1,0.08025649993214756,177.2815574000124,None,177.2815574000124,None,177.2815574000124,177.78289570007473,177.2815574000124,177.78289570007473,177.2815574000124,177.78289570007473,177.2815574000124,177.78289570007473,177.2815574000124,None,,,,,,,,,,,,,,,,,,,,,,,,,,,,,,,,,,,,,,,,,,11017,001,2024_Jan_04_1531,nback,2021.2.3,59.97681298304538,
2-back,instructions\back-2.png,conditions\2back-p.xlsx,instructions\2-BACK.png,"(25, 15)",practice,2,3,stim\gray.png,stim\gray.png,stim\yellow.png,stim\gray.png,down,0,0,0,0,0,2,2,2,0,8,8,8,,,,,,,,,,,,,,,,,,,,,,,,,,,178.78346940001938,179.78628620004747,178.78346940001938,179.78628620004747,178.78346940001938,179.78628620004747,178.78346940001938,179.78628620004747,down,1,0.19375730003230274,178.78346940001938,None,178.78346940001938,None,178.78346940001938,179.28418529999908,178.78346940001938,179.28418529999908,178.78346940001938,179.28418529999908,178.78346940001938,179.28418529999908,178.78346940001938,None,,,,,,,,,,,,,,,,,,,,,,,,,,,,,,,,,,,,,,,,,,11017,001,2024_Jan_04_1531,nback,2021.2.3,59.97681298304538,
2-back,instructions\back-2.png,conditions\2back-p.xlsx,instructions\2-BACK.png,"(25, 15)",practice,2,4,stim\gray.png,stim\gray.png,stim\gray.png,stim\yellow.png,right,0,0,0,0,0,2,2,2,0,9,9,9,,,,,,,,,,,,,,,,,,,,,,,,,,,180.28704080008902,181.2873223000206,180.28704080008902,181.2873223000206,180.28704080008902,181.2873223000206,180.28704080008902,181.2873223000206,right,1,0.15437140001449734,180.28704080008902,None,180.28704080008902,None,180.28704080008902,180.7870023000287,180.28704080008902,180.7870023000287,180.28704080008902,180.7870023000287,180.28704080008902,180.7870023000287,180.28704080008902,None,,,,,,,,,,,,,,,,,,,,,,,,,,,,,,,,,,,,,,,,,,11017,001,2024_Jan_04_1531,nback,2021.2.3,59.97681298304538,
2-back,instructions\back-2.png,conditions\2back-p.xlsx,instructions\2-BACK.png,"(25, 15)",practice,2,1,stim\yellow.png,stim\gray.png,stim\gray.png,stim\gray.png,right,0,0,0,0,0,2,2,2,0,10,10,10,,,,,,,,,,,,,,,,,,,,,,,,,,,181.78852290008217,182.7908423000481,181.78852290008217,182.7908423000481,181.78852290008217,182.7908423000481,181.78852290008217,182.7908423000481,right,1,0.1567327999509871,181.78852290008217,None,181.78852290008217,None,181.78852290008217,182.289168599993,181.78852290008217,182.289168599993,181.78852290008217,182.289168599993,181.78852290008217,182.289168599993,181.78852290008217,None,,,,,,,,,,,,,,,,,,,,,,,,,,,,,,,,,,,,,,,,,,11017,001,2024_Jan_04_1531,nback,2021.2.3,59.97681298304538,
2-back,instructions\back-2.png,conditions\2back-p.xlsx,instructions\2-BACK.png,"(25, 15)",practice,2,2,stim\gray.png,stim\yellow.png,stim\gray.png,stim\gray.png,down,0,0,0,0,0,2,2,2,0,11,11,11,,,,,,,,,,,,,,,,,,,,,,,,,,,183.28989130002446,184.29203870007768,183.28989130002446,184.29203870007768,183.28989130002446,184.29203870007768,183.28989130002446,184.29203870007768,down,1,0.1836743000894785,183.28989130002446,None,183.28989130002446,None,183.28989130002446,183.79064520006068,183.28989130002446,183.79064520006068,183.28989130002446,183.79064520006068,183.28989130002446,183.79064520006068,183.28989130002446,None,,,,,,,,,,,,,,,,,,,,,,,,,,,,,,,,,,,,,,,,,,11017,001,2024_Jan_04_1531,nback,2021.2.3,59.97681298304538,
2-back,instructions\back-2.png,conditions\2back-p.xlsx,instructions\2-BACK.png,"(25, 15)",practice,2,4,stim\gray.png,stim\gray.png,stim\gray.png,stim\yellow.png,up,0,0,0,0,0,2,2,2,0,12,12,12,,,,,,,,,,,,,,,,,,,,,,,,,,,184.79253120010253,185.7943941000849,184.79253120010253,185.7943941000849,184.79253120010253,185.7943941000849,184.79253120010253,185.7943941000849,up,1,0.08884580002631992,184.79253120010253,None,184.79253120010253,None,184.79253120010253,185.29370190005284,184.79253120010253,185.29370190005284,184.79253120010253,185.29370190005284,184.79253120010253,185.29370190005284,184.79253120010253,None,,,,,,,,,,,,,,,,,,,,,,,,,,,,,,,,,,,,,,,,,,11017,001,2024_Jan_04_1531,nback,2021.2.3,59.97681298304538,
2-back,instructions\back-2.png,conditions\2back-p.xlsx,instructions\2-BACK.png,"(25, 15)",practice,2,3,stim\gray.png,stim\gray.png,stim\yellow.png,stim\gray.png,left,0,0,0,0,0,2,2,2,0,13,13,13,,,,,,,,,,,,,,,,,,,,,,,,,,,186.29446950007696,187.29629319999367,186.29446950007696,187.29629319999367,186.29446950007696,187.29629319999367,186.29446950007696,187.29629319999367,left,1,0.06713950005359948,186.29446950007696,None,186.29446950007696,None,186.29446950007696,186.79524100001436,186.29446950007696,186.79524100001436,186.29446950007696,186.79524100001436,186.29446950007696,186.79524100001436,186.29446950007696,None,,,,,,,,,,,,,,,,,,,,,,,,,,,,,,,,,,,,,,,,,,11017,001,2024_Jan_04_1531,nback,2021.2.3,59.97681298304538,
2-back,instructions\back-2.png,conditions\2back-p.xlsx,instructions\2-BACK.png,"(25, 15)",practice,2,1,stim\yellow.png,stim\gray.png,stim\gray.png,stim\gray.png,down,0,0,0,0,0,2,2,2,0,14,14,14,,,,,,,,,,,,,,,,,,,,,,,,,,,187.78051870001946,188.78159950010013,187.78051870001946,188.78159950010013,187.78051870001946,188.78159950010013,187.78051870001946,188.78159950010013,down,1,0.10875000001396984,187.78051870001946,None,187.78051870001946,None,187.78051870001946,188.28082870005164,187.78051870001946,188.28082870005164,187.78051870001946,188.28082870005164,187.78051870001946,188.28082870005164,187.78051870001946,None,,,,,,,,,,,,,,,,,,,,,,,,,,,,,,,,,,,,,,,,,,11017,001,2024_Jan_04_1531,nback,2021.2.3,59.97681298304538,
2-back,instructions\back-2.png,conditions\2back-p.xlsx,instructions\2-BACK.png,"(25, 15)",practice,2,2,stim\gray.png,stim\yellow.png,stim\gray.png,stim\gray.png,right,0,0,0,0,0,2,2,2,0,15,15,15,,,,,,,,,,,,,,,,,,,,,,,,,,,189.28231320006307,190.2840475999983,189.28231320006307,190.2840475999983,189.28231320006307,190.2840475999983,189.28231320006307,190.2840475999983,right,1,0.04690780001692474,189.28231320006307,None,189.28231320006307,None,189.28231320006307,189.78360040008556,189.28231320006307,189.78360040008556,189.28231320006307,189.78360040008556,189.28231320006307,189.78360040008556,189.28231320006307,None,,,,,,,,,,,,,,,,,,,,,,,,,,,,,,,,,,,,,,,,,,11017,001,2024_Jan_04_1531,nback,2021.2.3,59.97681298304538,
2-back,instructions\back-2.png,conditions\2back-p.xlsx,instructions\2-BACK.png,"(25, 15)",practice,2,3,stim\gray.png,stim\gray.png,stim\yellow.png,stim\gray.png,up,0,0,0,0,0,2,2,2,0,16,16,16,,,,,,,,,,,,,,,,,,,,,,,,,,,190.7851784999948,191.7872077000793,190.7851784999948,191.7872077000793,190.7851784999948,191.7872077000793,190.7851784999948,191.7872077000793,up,1,0.07209859997965395,190.7851784999948,None,190.7851784999948,None,190.7851784999948,191.28553960006684,190.7851784999948,191.28553960006684,190.7851784999948,191.28553960006684,190.7851784999948,191.28553960006684,190.7851784999948,None,,,,,,,,,,,,,,,,,,,,,,,,,,,,,,,,,,,,,,,,,,11017,001,2024_Jan_04_1531,nback,2021.2.3,59.97681298304538,
2-back,instructions\back-2.png,conditions\2back-p.xlsx,instructions\2-BACK.png,"(25, 15)",practice,2,1,stim\yellow.png,stim\gray.png,stim\gray.png,stim\gray.png,left,0,0,0,0,0,2,2,2,0,17,17,17,,,,,,,,,,,,,,,,,,,,,,,,,,,192.28669560002163,193.2886037999997,192.28669560002163,193.2886037999997,192.28669560002163,193.2886037999997,192.28669560002163,193.2886037999997,left,1,0.16280310007277876,192.28669560002163,None,192.28669560002163,None,192.28669560002163,192.78737710008863,192.28669560002163,192.78737710008863,192.28669560002163,192.78737710008863,192.28669560002163,192.78737710008863,192.28669560002163,None,,,,,,,,,,,,,,,,,,,,,,,,,,,,,,,,,,,,,,,,,,11017,001,2024_Jan_04_1531,nback,2021.2.3,59.97681298304538,
2-back,instructions\back-2.png,conditions\2back-p.xlsx,instructions\2-BACK.png,"(25, 15)",practice,2,4,stim\gray.png,stim\gray.png,stim\gray.png,stim\yellow.png,right,0,0,0,0,0,2,2,2,0,18,18,18,,,,,,,,,,,,,,,,,,,,,,,,,,,193.78954200004227,194.79183030000422,193.78954200004227,194.79183030000422,193.78954200004227,194.79183030000422,193.78954200004227,194.79183030000422,right,1,0.027640499989502132,193.78954200004227,None,193.78954200004227,None,193.78954200004227,194.2897184001049,193.78954200004227,194.2897184001049,193.78954200004227,194.2897184001049,193.78954200004227,194.2897184001049,193.78954200004227,None,,,,,,,,,,,,,,,,,,,,,,,,,,,,,,,,,,,,,,,,,,11017,001,2024_Jan_04_1531,nback,2021.2.3,59.97681298304538,
2-back,instructions\back-2.png,conditions\2back-p.xlsx,instructions\2-BACK.png,"(25, 15)",practice,2,2,stim\gray.png,stim\yellow.png,stim\gray.png,stim\gray.png,up,0,0,0,0,0,2,2,2,0,19,19,19,,,,,,,,,,,,,,,,,,,,,,,,,,,195.29168020002544,196.29272080003284,195.29168020002544,196.29272080003284,195.29168020002544,196.29272080003284,195.29168020002544,196.29272080003284,up,1,0.08548490004613996,195.29168020002544,None,195.29168020002544,None,195.29168020002544,195.792584800045,195.29168020002544,195.792584800045,195.29168020002544,195.792584800045,195.29168020002544,195.792584800045,195.29168020002544,None,,,,,,,,,,,,,,,,,,,,,,,,,,,,,,,,,,,,,,,,,,11017,001,2024_Jan_04_1531,nback,2021.2.3,59.97681298304538,
2-back,instructions\back-2.png,conditions\2back-p.xlsx,instructions\2-BACK.png,"(25, 15)",,,,,,,,,0,0,0,0,0,2,2,2,,,,,,,,,,,,,,,,,,,,,,,,,,,,,,,,,,,,,,,,,,,,,,,,,,,,,,,,,,,,,,,,,,,,,,,,,,,,,,,,,,,,,,,,,,,,,,,,,11017,001,2024_Jan_04_1531,nback,2021.2.3,59.97681298304538,
,,,,,,,,,,,,,0,0,0,0,,,,,,,,,,,,,,,,,,,,,,,,,,,,,,,,,,,,,,,,,,,,,,,,,,,,,,,,,,,,196.77675040008035,None,space,23.465123599977233,196.77675040008035,None,,,,,,,,,,,,,,,,,,,,,,,,,,,,,,,,,,,,11017,001,2024_Jan_04_1531,nback,2021.2.3,59.97681298304538,
,,,,,,,,,,,,,,,,,,,,,,,,,,,,,,,,,,,,,,,,,,,,,,,,,,,,,,,,,,,,,,,,,,,,,,,,,,,,,,,,,,220.2615700000897,None,space,2.620373500045389,220.2615700000897,None,,,,,,,,,,,,,,,,,,,,,,,,,,,,,,11017,001,2024_Jan_04_1531,nback,2021.2.3,59.97681298304538,
1-back,instructions\back-1.png,conditions\13back-e.xlsx,,,experiment,1,1,stim\yellow.png,stim\gray.png,stim\gray.png,stim\gray.png,None,,,,,,,,,,,,,0,0,0,10,0,0,0,0,,,,,,,,,,,,,,,223.06539530004375,227.57483769999817,227.52261210000142,None,,,,,,,,,,,,,,,,,,,,,,,,,,,,,,,,,,,,,,None,1,227.92278330004774,None,227.92278330004774,None,227.92278330004774,228.9259474000428,227.92278330004774,228.9259474000428,227.92278330004774,228.9259474000428,227.92278330004774,228.9259474000428,227.92278330004774,228.42351620004047,227.92278330004774,228.42351620004047,227.92278330004774,228.42351620004047,227.92278330004774,228.42351620004047,227.92278330004774,None,,,,,,11017,001,2024_Jan_04_1531,nback,2021.2.3,59.97681298304538,
1-back,instructions\back-1.png,conditions\13back-e.xlsx,,,experiment,1,2,stim\gray.png,stim\yellow.png,stim\gray.png,stim\gray.png,up,,,,,,,,,,,,,0,0,0,10,0,1,1,1,,,,,,,,,,,,,,,,,,,,,,,,,,,,,,,,,,,,,,,,,,,,,,,,,,,,,,,,up,1,229.4084329000907,None,229.4084329000907,None,229.4084329000907,230.41045180009678,229.4084329000907,230.41045180009678,229.4084329000907,230.41045180009678,229.4084329000907,230.41045180009678,229.4084329000907,229.90917030000128,229.4084329000907,229.90917030000128,229.4084329000907,229.90917030000128,229.4084329000907,229.90917030000128,229.4084329000907,None,0.29780079994816333,,,,,11017,001,2024_Jan_04_1531,nback,2021.2.3,59.97681298304538,
1-back,instructions\back-1.png,conditions\13back-e.xlsx,,,experiment,1,4,stim\gray.png,stim\gray.png,stim\gray.png,stim\yellow.png,left,,,,,,,,,,,,,0,0,0,10,0,2,2,2,,,,,,,,,,,,,,,,,,,,,,,,,,,,,,,,,,,,,,,,,,,,,,,,,,,,,,,,left,1,230.9106388000073,None,230.9106388000073,None,230.9106388000073,231.91210980003234,230.9106388000073,231.91210980003234,230.9106388000073,231.91210980003234,230.9106388000073,231.91210980003234,230.9106388000073,231.4121089000255,230.9106388000073,231.4121089000255,230.9106388000073,231.4121089000255,230.9106388000073,231.4121089000255,230.9106388000073,None,0.21866210002917796,,,,,11017,001,2024_Jan_04_1531,nback,2021.2.3,59.97681298304538,
1-back,instructions\back-1.png,conditions\13back-e.xlsx,,,experiment,1,3,stim\gray.png,stim\gray.png,stim\yellow.png,stim\gray.png,down,,,,,,,,,,,,,0,0,0,10,0,3,3,3,,,,,,,,,,,,,,,,,,,,,,,,,,,,,,,,,,,,,,,,,,,,,,,,,,,,,,,,down,1,232.41362950007897,None,232.41362950007897,None,232.41362950007897,233.41480160003994,232.41362950007897,233.41480160003994,232.41362950007897,233.41480160003994,232.41362950007897,233.41480160003994,232.41362950007897,232.91360130009707,232.41362950007897,232.91360130009707,232.41362950007897,232.91360130009707,232.41362950007897,232.91360130009707,232.41362950007897,None,0.2120012000668794,,,,,11017,001,2024_Jan_04_1531,nback,2021.2.3,59.97681298304538,
1-back,instructions\back-1.png,conditions\13back-e.xlsx,,,experiment,1,1,stim\yellow.png,stim\gray.png,stim\gray.png,stim\gray.png,right,,,,,,,,,,,,,0,0,0,10,0,4,4,4,,,,,,,,,,,,,,,,,,,,,,,,,,,,,,,,,,,,,,,,,,,,,,,,,,,,,,,,right,1,233.9161742000142,None,233.9161742000142,None,233.9161742000142,234.91664960002527,233.9161742000142,234.91664960002527,233.9161742000142,234.91664960002527,233.9161742000142,234.91664960002527,233.9161742000142,234.4166053000372,233.9161742000142,234.4166053000372,233.9161742000142,234.4166053000372,233.9161742000142,234.4166053000372,233.9161742000142,None,0.22150300000794232,,,,,11017,001,2024_Jan_04_1531,nback,2021.2.3,59.97681298304538,
1-back,instructions\back-1.png,conditions\13back-e.xlsx,,,experiment,1,3,stim\gray.png,stim\gray.png,stim\yellow.png,stim\gray.png,up,,,,,,,,,,,,,0,0,0,10,0,5,5,5,,,,,,,,,,,,,,,,,,,,,,,,,,,,,,,,,,,,,,,,,,,,,,,,,,,,,,,,up,1,235.4172979000723,None,235.4172979000723,None,235.4172979000723,236.4193007000722,235.4172979000723,236.4193007000722,235.4172979000723,236.4193007000722,235.4172979000723,236.4193007000722,235.4172979000723,235.91808790003415,235.4172979000723,235.91808790003415,235.4172979000723,235.91808790003415,235.4172979000723,235.91808790003415,235.4172979000723,None,0.20789780002087355,,,,,11017,001,2024_Jan_04_1531,nback,2021.2.3,59.97681298304538,
1-back,instructions\back-1.png,conditions\13back-e.xlsx,,,experiment,1,2,stim\gray.png,stim\yellow.png,stim\gray.png,stim\gray.png,right,,,,,,,,,,,,,0,0,0,10,0,6,6,6,,,,,,,,,,,,,,,,,,,,,,,,,,,,,,,,,,,,,,,,,,,,,,,,,,,,,,,,right,1,236.90281520003919,None,236.90281520003919,None,236.90281520003919,237.90510570001788,236.90281520003919,237.90510570001788,236.90281520003919,237.90510570001788,236.90281520003919,237.90510570001788,236.90281520003919,237.40414260001853,236.90281520003919,237.40414260001853,236.90281520003919,237.40414260001853,236.90281520003919,237.40414260001853,236.90281520003919,None,0.1869003000902012,,,,,11017,001,2024_Jan_04_1531,nback,2021.2.3,59.97681298304538,
1-back,instructions\back-1.png,conditions\13back-e.xlsx,,,experiment,1,4,stim\gray.png,stim\gray.png,stim\gray.png,stim\yellow.png,left,,,,,,,,,,,,,0,0,0,10,0,7,7,7,,,,,,,,,,,,,,,,,,,,,,,,,,,,,,,,,,,,,,,,,,,,,,,,,,,,,,,,left,1,238.4054780000588,None,238.4054780000588,None,238.4054780000588,239.4075905000791,238.4054780000588,239.4075905000791,238.4054780000588,239.4075905000791,238.4054780000588,239.4075905000791,238.4054780000588,238.90579140000045,238.4054780000588,238.90579140000045,238.4054780000588,238.90579140000045,238.4054780000588,238.90579140000045,238.4054780000588,None,0.1399964999873191,,,,,11017,001,2024_Jan_04_1531,nback,2021.2.3,59.97681298304538,
1-back,instructions\back-1.png,conditions\13back-e.xlsx,,,experiment,1,1,stim\yellow.png,stim\gray.png,stim\gray.png,stim\gray.png,down,,,,,,,,,,,,,0,0,0,10,0,8,8,8,,,,,,,,,,,,,,,,,,,,,,,,,,,,,,,,,,,,,,,,,,,,,,,,,,,,,,,,down,1,239.90786150004715,None,239.90786150004715,None,239.90786150004715,240.9088186000008,239.90786150004715,240.9088186000008,239.90786150004715,240.9088186000008,239.90786150004715,240.9088186000008,239.90786150004715,240.40802560001612,239.90786150004715,240.40802560001612,239.90786150004715,240.40802560001612,239.90786150004715,240.40802560001612,239.90786150004715,None,0.26160499989055097,,,,,11017,001,2024_Jan_04_1531,nback,2021.2.3,59.97681298304538,
1-back,instructions\back-1.png,conditions\13back-e.xlsx,,,experiment,1,2,stim\gray.png,stim\yellow.png,stim\gray.png,stim\gray.png,up,,,,,,,,,,,,,0,0,0,10,0,9,9,9,,,,,,,,,,,,,,,,,,,,,,,,,,,,,,,,,,,,,,,,,,,,,,,,,,,,,,,,up,1,241.4093533999985,None,241.4093533999985,None,241.4093533999985,242.4115720000118,241.4093533999985,242.4115720000118,241.4093533999985,242.4115720000118,241.4093533999985,242.4115720000118,241.4093533999985,241.9110900000669,241.4093533999985,241.9110900000669,241.4093533999985,241.9110900000669,241.4093533999985,241.9110900000669,241.4093533999985,None,0.1759817999554798,,,,,11017,001,2024_Jan_04_1531,nback,2021.2.3,59.97681298304538,
1-back,instructions\back-1.png,conditions\13back-e.xlsx,,,experiment,1,4,stim\gray.png,stim\gray.png,stim\gray.png,stim\yellow.png,left,,,,,,,,,,,,,0,0,0,10,0,10,10,10,,,,,,,,,,,,,,,,,,,,,,,,,,,,,,,,,,,,,,,,,,,,,,,,,,,,,,,,left,1,242.91295480006374,None,242.91295480006374,None,242.91295480006374,243.91415960004088,242.91295480006374,243.91415960004088,242.91295480006374,243.91415960004088,242.91295480006374,243.91415960004088,242.91295480006374,243.41455620003399,242.91295480006374,243.41455620003399,242.91295480006374,243.41455620003399,242.91295480006374,243.41455620003399,242.91295480006374,None,0.2083547000074759,,,,,11017,001,2024_Jan_04_1531,nback,2021.2.3,59.97681298304538,
1-back,instructions\back-1.png,conditions\13back-e.xlsx,,,experiment,1,3,stim\gray.png,stim\gray.png,stim\yellow.png,stim\gray.png,down,,,,,,,,,,,,,0,0,0,10,0,11,11,11,,,,,,,,,,,,,,,,,,,,,,,,,,,,,,,,,,,,,,,,,,,,,,,,,,,,,,,,down,1,244.41469910007436,None,244.41469910007436,None,244.41469910007436,245.41623390000314,244.41469910007436,245.41623390000314,244.41469910007436,245.41623390000314,244.41469910007436,245.41623390000314,244.41469910007436,244.9154220999917,244.41469910007436,244.9154220999917,244.41469910007436,244.9154220999917,244.41469910007436,244.9154220999917,244.41469910007436,None,0.058525400003418326,,,,,11017,001,2024_Jan_04_1531,nback,2021.2.3,59.97681298304538,
1-back,instructions\back-1.png,conditions\13back-e.xlsx,,,experiment,1,2,stim\gray.png,stim\yellow.png,stim\gray.png,stim\gray.png,right,,,,,,,,,,,,,0,0,0,10,0,12,12,12,,,,,,,,,,,,,,,,,,,,,,,,,,,,,,,,,,,,,,,,,,,,,,,,,,,,,,,,right,1,245.91662710008677,None,245.91662710008677,None,245.91662710008677,246.91811020008754,245.91662710008677,246.91811020008754,245.91662710008677,246.91811020008754,245.91662710008677,246.91811020008754,245.91662710008677,246.41768820001744,245.91662710008677,246.41768820001744,245.91662710008677,246.41768820001744,245.91662710008677,246.41768820001744,245.91662710008677,None,0.19659309997223318,,,,,11017,001,2024_Jan_04_1531,nback,2021.2.3,59.97681298304538,
1-back,instructions\back-1.png,conditions\13back-e.xlsx,,,experiment,1,4,stim\gray.png,stim\gray.png,stim\gray.png,stim\yellow.png,left,,,,,,,,,,,,,0,0,0,10,0,13,13,13,,,,,,,,,,,,,,,,,,,,,,,,,,,,,,,,,,,,,,,,,,,,,,,,,,,,,,,,None,0,247.41840890003368,None,247.41840890003368,None,247.41840890003368,248.42065139999613,247.41840890003368,248.42065139999613,247.41840890003368,248.42065139999613,247.41840890003368,248.42065139999613,247.41840890003368,247.91996190010104,247.41840890003368,247.91996190010104,247.41840890003368,247.91996190010104,247.41840890003368,247.91996190010104,247.41840890003368,None,,,,,,11017,001,2024_Jan_04_1531,nback,2021.2.3,59.97681298304538,
1-back,instructions\back-1.png,conditions\13back-e.xlsx,,,experiment,1,1,stim\yellow.png,stim\gray.png,stim\gray.png,stim\gray.png,down,,,,,,,,,,,,,0,0,0,10,0,14,14,14,,,,,,,,,,,,,,,,,,,,,,,,,,,,,,,,,,,,,,,,,,,,,,,,,,,,,,,,down,1,248.90487920003943,None,248.90487920003943,None,248.90487920003943,249.90543750009965,248.90487920003943,249.90543750009965,248.90487920003943,249.90543750009965,248.90487920003943,249.90543750009965,248.90487920003943,249.4049887000583,248.90487920003943,249.4049887000583,248.90487920003943,249.4049887000583,248.90487920003943,249.4049887000583,248.90487920003943,None,0.008458700031042099,,,,,11017,001,2024_Jan_04_1531,nback,2021.2.3,59.97681298304538,
1-back,instructions\back-1.png,conditions\13back-e.xlsx,,,experiment,1,4,stim\gray.png,stim\gray.png,stim\gray.png,stim\yellow.png,up,,,,,,,,,,,,,0,0,0,10,0,15,15,15,,,,,,,,,,,,,,,,,,,,,,,,,,,,,,,,,,,,,,,,,,,,,,,,,,,,,,,,up,1,250.40708410006482,None,250.40708410006482,None,250.40708410006482,251.40832490008324,250.40708410006482,251.40832490008324,250.40708410006482,251.40832490008324,250.40708410006482,251.40832490008324,250.40708410006482,250.90704780002125,250.40708410006482,250.90704780002125,250.40708410006482,250.90704780002125,250.40708410006482,250.90704780002125,250.40708410006482,None,0.050732999923639,,,,,11017,001,2024_Jan_04_1531,nback,2021.2.3,59.97681298304538,
1-back,instructions\back-1.png,conditions\13back-e.xlsx,,,experiment,1,1,stim\yellow.png,stim\gray.png,stim\gray.png,stim\gray.png,down,,,,,,,,,,,,,0,0,0,10,0,16,16,16,,,,,,,,,,,,,,,,,,,,,,,,,,,,,,,,,,,,,,,,,,,,,,,,,,,,,,,,down,1,251.90852000005543,None,251.90852000005543,None,251.90852000005543,252.91047720005736,251.90852000005543,252.91047720005736,251.90852000005543,252.91047720005736,251.90852000005543,252.91047720005736,251.90852000005543,252.4101252000546,251.90852000005543,252.4101252000546,251.90852000005543,252.4101252000546,251.90852000005543,252.4101252000546,251.90852000005543,None,0.14923530002124608,,,,,11017,001,2024_Jan_04_1531,nback,2021.2.3,59.97681298304538,
1-back,instructions\back-1.png,conditions\13back-e.xlsx,,,experiment,1,3,stim\gray.png,stim\gray.png,stim\yellow.png,stim\gray.png,up,,,,,,,,,,,,,0,0,0,10,0,17,17,17,,,,,,,,,,,,,,,,,,,,,,,,,,,,,,,,,,,,,,,,,,,,,,,,,,,,,,,,up,1,253.41071890003514,None,253.41071890003514,None,253.41071890003514,254.41322069999296,253.41071890003514,254.41322069999296,253.41071890003514,254.41322069999296,253.41071890003514,254.41322069999296,253.41071890003514,253.9127236000495,253.41071890003514,253.9127236000495,253.41071890003514,253.9127236000495,253.41071890003514,253.9127236000495,253.41071890003514,None,0.19073090003803372,,,,,11017,001,2024_Jan_04_1531,nback,2021.2.3,59.97681298304538,
1-back,instructions\back-1.png,conditions\13back-e.xlsx,,,experiment,1,2,stim\gray.png,stim\yellow.png,stim\gray.png,stim\gray.png,right,,,,,,,,,,,,,0,0,0,10,0,18,18,18,,,,,,,,,,,,,,,,,,,,,,,,,,,,,,,,,,,,,,,,,,,,,,,,,,,,,,,,right,1,254.91293690004386,None,254.91293690004386,None,254.91293690004386,255.91445210005622,254.91293690004386,255.91445210005622,254.91293690004386,255.91445210005622,254.91293690004386,255.91445210005622,254.91293690004386,255.41368910006713,254.91293690004386,255.41368910006713,254.91293690004386,255.41368910006713,254.91293690004386,255.41368910006713,254.91293690004386,None,0.1923109000781551,,,,,11017,001,2024_Jan_04_1531,nback,2021.2.3,59.97681298304538,
1-back,instructions\back-1.png,conditions\13back-e.xlsx,,,experiment,1,3,stim\gray.png,stim\gray.png,stim\yellow.png,stim\gray.png,left,,,,,,,,,,,,,0,0,0,10,0,19,19,19,,,,,,,,,,,,,,,,,,,,,,,,,,,,,,,,,,,,,,,,,,,,,,,,,,,,,,,,left,1,256.41496429999825,None,256.41496429999825,None,256.41496429999825,257.417932500015,256.41496429999825,257.417932500015,256.41496429999825,257.417932500015,256.41496429999825,257.417932500015,256.41496429999825,256.9162074000342,256.41496429999825,256.9162074000342,256.41496429999825,256.9162074000342,256.41496429999825,256.9162074000342,256.41496429999825,None,0.07454459997825325,,,,,11017,001,2024_Jan_04_1531,nback,2021.2.3,59.97681298304538,
1-back,instructions\back-1.png,conditions\13back-e.xlsx,,,,,,,,,,,,,,,,,,,,,,,0,0,0,10,,,,,,,,,,,,,,,,,,,,,,,,,,,,,,,,,,,,,,,,,,,,,,,,,,,,,,,,,,,,,,,,,,,,,,,,,,,,,,,,,,,,,257.91755960008595,None,,,11017,001,2024_Jan_04_1531,nback,2021.2.3,59.97681298304538,
2-back,instructions\back-2.png,conditions\21back-e.xlsx,,,experiment,2,3,stim\gray.png,stim\gray.png,stim\yellow.png,stim\gray.png,None,,,,,,,,,,,,,0,1,1,3,0,0,0,0,,,,,,,,,,,,,,,259.0689351001056,263.57617770007346,263.50955960003193,None,,,,,,,,,,,,,,,,,,,,,,,,,,,,,,,,,,,,,,None,1,263.92719150008634,None,263.92719150008634,None,263.92719150008634,264.92769260006025,263.92719150008634,264.92769260006025,263.92719150008634,264.92769260006025,263.92719150008634,264.92769260006025,263.92719150008634,264.4273328999989,263.92719150008634,264.4273328999989,263.92719150008634,264.4273328999989,263.92719150008634,264.4273328999989,263.92719150008634,None,,,,,,11017,001,2024_Jan_04_1531,nback,2021.2.3,59.97681298304538,
2-back,instructions\back-2.png,conditions\21back-e.xlsx,,,experiment,2,4,stim\gray.png,stim\gray.png,stim\gray.png,stim\yellow.png,None,,,,,,,,,,,,,0,1,1,3,0,1,1,1,,,,,,,,,,,,,,,,,,,,,,,,,,,,,,,,,,,,,,,,,,,,,,,,,,,,,,,,None,1,265.41164150007535,None,265.41164150007535,None,265.41164150007535,266.41405460005626,265.41164150007535,266.41405460005626,265.41164150007535,266.41405460005626,265.41164150007535,266.41405460005626,265.41164150007535,265.91355940001085,265.41164150007535,265.91355940001085,265.41164150007535,265.91355940001085,265.41164150007535,265.91355940001085,265.41164150007535,None,,,,,,11017,001,2024_Jan_04_1531,nback,2021.2.3,59.97681298304538,
2-back,instructions\back-2.png,conditions\21back-e.xlsx,,,experiment,2,1,stim\yellow.png,stim\gray.png,stim\gray.png,stim\gray.png,right,,,,,,,,,,,,,0,1,1,3,0,2,2,2,,,,,,,,,,,,,,,,,,,,,,,,,,,,,,,,,,,,,,,,,,,,,,,,,,,,,,,,right,1,266.9138785999967,None,266.9138785999967,None,266.9138785999967,267.91553640004713,266.9138785999967,267.91553640004713,266.9138785999967,267.91553640004713,266.9138785999967,267.91553640004713,266.9138785999967,267.4154519001022,266.9138785999967,267.4154519001022,266.9138785999967,267.4154519001022,266.9138785999967,267.4154519001022,266.9138785999967,None,0.22347879991866648,,,,,11017,001,2024_Jan_04_1531,nback,2021.2.3,59.97681298304538,
2-back,instructions\back-2.png,conditions\21back-e.xlsx,,,experiment,2,2,stim\gray.png,stim\yellow.png,stim\gray.png,stim\gray.png,down,,,,,,,,,,,,,0,1,1,3,0,3,3,3,,,,,,,,,,,,,,,,,,,,,,,,,,,,,,,,,,,,,,,,,,,,,,,,,,,,,,,,down,1,268.41608090000227,None,268.41608090000227,None,268.41608090000227,269.4186330999946,268.41608090000227,269.4186330999946,268.41608090000227,269.4186330999946,268.41608090000227,269.4186330999946,268.41608090000227,268.91769700008444,268.41608090000227,268.91769700008444,268.41608090000227,268.91769700008444,268.41608090000227,268.91769700008444,268.41608090000227,None,0.15325179998762906,,,,,11017,001,2024_Jan_04_1531,nback,2021.2.3,59.97681298304538,
2-back,instructions\back-2.png,conditions\21back-e.xlsx,,,experiment,2,1,stim\yellow.png,stim\gray.png,stim\gray.png,stim\gray.png,up,,,,,,,,,,,,,0,1,1,3,0,4,4,4,,,,,,,,,,,,,,,,,,,,,,,,,,,,,,,,,,,,,,,,,,,,,,,,,,,,,,,,up,1,269.91886970005,None,269.91886970005,None,269.91886970005,270.92011510010343,269.91886970005,270.92011510010343,269.91886970005,270.92011510010343,269.91886970005,270.92011510010343,269.91886970005,270.4203566000797,269.91886970005,270.4203566000797,269.91886970005,270.4203566000797,269.91886970005,270.4203566000797,269.91886970005,None,0.05865489994175732,,,,,11017,001,2024_Jan_04_1531,nback,2021.2.3,59.97681298304538,
2-back,instructions\back-2.png,conditions\21back-e.xlsx,,,experiment,2,2,stim\gray.png,stim\yellow.png,stim\gray.png,stim\gray.png,left,,,,,,,,,,,,,0,1,1,3,0,5,5,5,,,,,,,,,,,,,,,,,,,,,,,,,,,,,,,,,,,,,,,,,,,,,,,,,,,,,,,,left,1,271.4045366999926,None,271.4045366999926,None,271.4045366999926,272.4054146000417,271.4045366999926,272.4054146000417,271.4045366999926,272.4054146000417,271.4045366999926,272.4054146000417,271.4045366999926,271.904833800043,271.4045366999926,271.904833800043,271.4045366999926,271.904833800043,271.4045366999926,271.904833800043,271.4045366999926,None,0.12471539992839098,,,,,11017,001,2024_Jan_04_1531,nback,2021.2.3,59.97681298304538,
2-back,instructions\back-2.png,conditions\21back-e.xlsx,,,experiment,2,3,stim\gray.png,stim\gray.png,stim\yellow.png,stim\gray.png,up,,,,,,,,,,,,,0,1,1,3,0,6,6,6,,,,,,,,,,,,,,,,,,,,,,,,,,,,,,,,,,,,,,,,,,,,,,,,,,,,,,,,up,1,272.90639040002134,None,272.90639040002134,None,272.90639040002134,273.90900630003307,272.90639040002134,273.90900630003307,272.90639040002134,273.90900630003307,272.90639040002134,273.90900630003307,272.90639040002134,273.4074554000981,272.90639040002134,273.4074554000981,272.90639040002134,273.4074554000981,272.90639040002134,273.4074554000981,272.90639040002134,None,0.16706769994925708,,,,,11017,001,2024_Jan_04_1531,nback,2021.2.3,59.97681298304538,
2-back,instructions\back-2.png,conditions\21back-e.xlsx,,,experiment,2,4,stim\gray.png,stim\gray.png,stim\gray.png,stim\yellow.png,left,,,,,,,,,,,,,0,1,1,3,0,7,7,7,,,,,,,,,,,,,,,,,,,,,,,,,,,,,,,,,,,,,,,,,,,,,,,,,,,,,,,,left,1,274.40823900001124,None,274.40823900001124,None,274.40823900001124,275.41008810000494,274.40823900001124,275.41008810000494,274.40823900001124,275.41008810000494,274.40823900001124,275.41008810000494,274.40823900001124,274.9099130000686,274.40823900001124,274.9099130000686,274.40823900001124,274.9099130000686,274.40823900001124,274.9099130000686,274.40823900001124,None,0.16122979996725917,,,,,11017,001,2024_Jan_04_1531,nback,2021.2.3,59.97681298304538,
2-back,instructions\back-2.png,conditions\21back-e.xlsx,,,experiment,2,3,stim\gray.png,stim\gray.png,stim\yellow.png,stim\gray.png,right,,,,,,,,,,,,,0,1,1,3,0,8,8,8,,,,,,,,,,,,,,,,,,,,,,,,,,,,,,,,,,,,,,,,,,,,,,,,,,,,,,,,right,1,275.9106628000736,None,275.9106628000736,None,275.9106628000736,276.91326110006776,275.9106628000736,276.91326110006776,275.9106628000736,276.91326110006776,275.9106628000736,276.91326110006776,275.9106628000736,276.41131080000196,275.9106628000736,276.41131080000196,275.9106628000736,276.41131080000196,275.9106628000736,276.41131080000196,275.9106628000736,None,0.21876069996505976,,,,,11017,001,2024_Jan_04_1531,nback,2021.2.3,59.97681298304538,
2-back,instructions\back-2.png,conditions\21back-e.xlsx,,,experiment,2,1,stim\yellow.png,stim\gray.png,stim\gray.png,stim\gray.png,down,,,,,,,,,,,,,0,1,1,3,0,9,9,9,,,,,,,,,,,,,,,,,,,,,,,,,,,,,,,,,,,,,,,,,,,,,,,,,,,,,,,,down,1,277.4128933000611,None,277.4128933000611,None,277.4128933000611,278.4151000001002,277.4128933000611,278.4151000001002,277.4128933000611,278.4151000001002,277.4128933000611,278.4151000001002,277.4128933000611,277.91347430006135,277.4128933000611,277.91347430006135,277.4128933000611,277.91347430006135,277.4128933000611,277.91347430006135,277.4128933000611,None,0.06042450002860278,,,,,11017,001,2024_Jan_04_1531,nback,2021.2.3,59.97681298304538,
2-back,instructions\back-2.png,conditions\21back-e.xlsx,,,experiment,2,4,stim\gray.png,stim\gray.png,stim\gray.png,stim\yellow.png,right,,,,,,,,,,,,,0,1,1,3,0,10,10,10,,,,,,,,,,,,,,,,,,,,,,,,,,,,,,,,,,,,,,,,,,,,,,,,,,,,,,,,None,0,278.91500260005705,None,278.91500260005705,None,278.91500260005705,279.9172105001053,278.91500260005705,279.9172105001053,278.91500260005705,279.9172105001053,278.91500260005705,279.9172105001053,278.91500260005705,279.415979100042,278.91500260005705,279.415979100042,278.91500260005705,279.415979100042,278.91500260005705,279.415979100042,278.91500260005705,None,,,,,,11017,001,2024_Jan_04_1531,nback,2021.2.3,59.97681298304538,
2-back,instructions\back-2.png,conditions\21back-e.xlsx,,,experiment,2,2,stim\gray.png,stim\yellow.png,stim\gray.png,stim\gray.png,up,,,,,,,,,,,,,0,1,1,3,0,11,11,11,,,,,,,,,,,,,,,,,,,,,,,,,,,,,,,,,,,,,,,,,,,,,,,,,,,,,,,,up,1,280.4173343000002,None,280.4173343000002,None,280.4173343000002,281.41993470001034,280.4173343000002,281.41993470001034,280.4173343000002,281.41993470001034,280.4173343000002,281.41993470001034,280.4173343000002,280.91800930001773,280.4173343000002,280.91800930001773,280.4173343000002,280.91800930001773,280.4173343000002,280.91800930001773,280.4173343000002,None,0.08813769998960197,,,,,11017,001,2024_Jan_04_1531,nback,2021.2.3,59.97681298304538,
2-back,instructions\back-2.png,conditions\21back-e.xlsx,,,experiment,2,4,stim\gray.png,stim\gray.png,stim\gray.png,stim\yellow.png,down,,,,,,,,,,,,,0,1,1,3,0,12,12,12,,,,,,,,,,,,,,,,,,,,,,,,,,,,,,,,,,,,,,,,,,,,,,,,,,,,,,,,down,1,281.9028644000646,None,281.9028644000646,None,281.9028644000646,282.90455860004295,281.9028644000646,282.90455860004295,281.9028644000646,282.90455860004295,281.9028644000646,282.90455860004295,281.9028644000646,282.40405640006065,281.9028644000646,282.40405640006065,281.9028644000646,282.40405640006065,281.9028644000646,282.40405640006065,281.9028644000646,None,0.07463190006092191,,,,,11017,001,2024_Jan_04_1531,nback,2021.2.3,59.97681298304538,
2-back,instructions\back-2.png,conditions\21back-e.xlsx,,,experiment,2,3,stim\gray.png,stim\gray.png,stim\yellow.png,stim\gray.png,left,,,,,,,,,,,,,0,1,1,3,0,13,13,13,,,,,,,,,,,,,,,,,,,,,,,,,,,,,,,,,,,,,,,,,,,,,,,,,,,,,,,,down,0,283.4050366000738,None,283.4050366000738,None,283.4050366000738,284.4067480000667,283.4050366000738,284.4067480000667,283.4050366000738,284.4067480000667,283.4050366000738,284.4067480000667,283.4050366000738,283.906572900014,283.4050366000738,283.906572900014,283.4050366000738,283.906572900014,283.4050366000738,283.906572900014,283.4050366000738,None,1.3483363999985158,,,,,11017,001,2024_Jan_04_1531,nback,2021.2.3,59.97681298304538,
2-back,instructions\back-2.png,conditions\21back-e.xlsx,,,experiment,2,1,stim\yellow.png,stim\gray.png,stim\gray.png,stim\gray.png,down,,,,,,,,,,,,,0,1,1,3,0,14,14,14,,,,,,,,,,,,,,,,,,,,,,,,,,,,,,,,,,,,,,,,,,,,,,,,,,,,,,,,None,0,284.9073509000009,None,284.9073509000009,None,284.9073509000009,285.9092020000098,284.9073509000009,285.9092020000098,284.9073509000009,285.9092020000098,284.9073509000009,285.9092020000098,284.9073509000009,285.40891860006377,284.9073509000009,285.40891860006377,284.9073509000009,285.40891860006377,284.9073509000009,285.40891860006377,284.9073509000009,None,,,,,,11017,001,2024_Jan_04_1531,nback,2021.2.3,59.97681298304538,
2-back,instructions\back-2.png,conditions\21back-e.xlsx,,,experiment,2,2,stim\gray.png,stim\yellow.png,stim\gray.png,stim\gray.png,right,,,,,,,,,,,,,0,1,1,3,0,15,15,15,,,,,,,,,,,,,,,,,,,,,,,,,,,,,,,,,,,,,,,,,,,,,,,,,,,,,,,,up,0,286.40924050007015,None,286.40924050007015,None,286.40924050007015,287.4118096000748,286.40924050007015,287.4118096000748,286.40924050007015,287.4118096000748,286.40924050007015,287.4118096000748,286.40924050007015,286.9101307000965,286.40924050007015,286.9101307000965,286.40924050007015,286.9101307000965,286.40924050007015,286.9101307000965,286.40924050007015,None,1.4643423999659717,,,,,11017,001,2024_Jan_04_1531,nback,2021.2.3,59.97681298304538,
2-back,instructions\back-2.png,conditions\21back-e.xlsx,,,experiment,2,2,stim\gray.png,stim\yellow.png,stim\gray.png,stim\gray.png,up,,,,,,,,,,,,,0,1,1,3,0,16,16,16,,,,,,,,,,,,,,,,,,,,,,,,,,,,,,,,,,,,,,,,,,,,,,,,,,,,,,,,left,0,287.9118083000649,None,287.9118083000649,None,287.9118083000649,288.91392940003425,287.9118083000649,288.91392940003425,287.9118083000649,288.91392940003425,287.9118083000649,288.91392940003425,287.9118083000649,288.4144245000789,287.9118083000649,288.4144245000789,287.9118083000649,288.4144245000789,287.9118083000649,288.4144245000789,287.9118083000649,None,1.4659814999904484,,,,,11017,001,2024_Jan_04_1531,nback,2021.2.3,59.97681298304538,
2-back,instructions\back-2.png,conditions\21back-e.xlsx,,,experiment,2,1,stim\yellow.png,stim\gray.png,stim\gray.png,stim\gray.png,left,,,,,,,,,,,,,0,1,1,3,0,17,17,17,,,,,,,,,,,,,,,,,,,,,,,,,,,,,,,,,,,,,,,,,,,,,,,,,,,,,,,,None,0,289.4141057000961,None,289.4141057000961,None,289.4141057000961,290.4161497000605,289.4141057000961,290.4161497000605,289.4141057000961,290.4161497000605,289.4141057000961,290.4161497000605,289.4141057000961,289.91513640002813,289.4141057000961,289.91513640002813,289.4141057000961,289.91513640002813,289.4141057000961,289.91513640002813,289.4141057000961,None,,,,,,11017,001,2024_Jan_04_1531,nback,2021.2.3,59.97681298304538,
2-back,instructions\back-2.png,conditions\21back-e.xlsx,,,experiment,2,4,stim\gray.png,stim\gray.png,stim\gray.png,stim\yellow.png,left,,,,,,,,,,,,,0,1,1,3,0,18,18,18,,,,,,,,,,,,,,,,,,,,,,,,,,,,,,,,,,,,,,,,,,,,,,,,,,,,,,,,left,1,290.91611360001843,None,290.91611360001843,None,290.91611360001843,291.9184193999972,290.91611360001843,291.9184193999972,290.91611360001843,291.9184193999972,290.91611360001843,291.9184193999972,290.91611360001843,291.41774710000027,290.91611360001843,291.41774710000027,290.91611360001843,291.41774710000027,290.91611360001843,291.41774710000027,290.91611360001843,None,0.0612112000817433,,,,,11017,001,2024_Jan_04_1531,nback,2021.2.3,59.97681298304538,
2-back,instructions\back-2.png,conditions\21back-e.xlsx,,,experiment,2,3,stim\gray.png,stim\gray.png,stim\yellow.png,stim\gray.png,up,,,,,,,,,,,,,0,1,1,3,0,19,19,19,,,,,,,,,,,,,,,,,,,,,,,,,,,,,,,,,,,,,,,,,,,,,,,,,,,,,,,,up,1,292.4187780000502,None,292.4187780000502,None,292.4187780000502,293.4199144000886,292.4187780000502,293.4199144000886,292.4187780000502,293.4199144000886,292.4187780000502,293.4199144000886,292.4187780000502,292.92003540007863,292.4187780000502,292.92003540007863,292.4187780000502,292.92003540007863,292.4187780000502,292.92003540007863,292.4187780000502,None,0.17457609996199608,,,,,11017,001,2024_Jan_04_1531,nback,2021.2.3,59.97681298304538,
2-back,instructions\back-2.png,conditions\21back-e.xlsx,,,,,,,,,,,,,,,,,,,,,,,0,1,1,3,,,,,,,,,,,,,,,,,,,,,,,,,,,,,,,,,,,,,,,,,,,,,,,,,,,,,,,,,,,,,,,,,,,,,,,,,,,,,,,,,,,,,293.90583230007906,None,,,11017,001,2024_Jan_04_1531,nback,2021.2.3,59.97681298304538,
1-back,instructions\back-1.png,conditions\11back-e.xlsx,,,experiment,1,3,stim\gray.png,stim\gray.png,stim\yellow.png,stim\gray.png,None,,,,,,,,,,,,,0,2,2,5,0,0,0,0,,,,,,,,,,,,,,,295.05561130004935,299.5633541001007,299.496538800071,None,,,,,,,,,,,,,,,,,,,,,,,,,,,,,,,,,,,,,,None,1,299.9299920001067,None,299.9299920001067,None,299.9299920001067,300.93198700004723,299.9299920001067,300.93198700004723,299.9299920001067,300.93198700004723,299.9299920001067,300.93198700004723,299.9299920001067,300.43100100010633,299.9299920001067,300.43100100010633,299.9299920001067,300.43100100010633,299.9299920001067,300.43100100010633,299.9299920001067,None,,,,,,11017,001,2024_Jan_04_1531,nback,2021.2.3,59.97681298304538,
1-back,instructions\back-1.png,conditions\11back-e.xlsx,,,experiment,1,1,stim\yellow.png,stim\gray.png,stim\gray.png,stim\gray.png,right,,,,,,,,,,,,,0,2,2,5,0,1,1,1,,,,,,,,,,,,,,,,,,,,,,,,,,,,,,,,,,,,,,,,,,,,,,,,,,,,,,,,right,1,301.41495990008116,None,301.41495990008116,None,301.41495990008116,302.4172555000987,301.41495990008116,302.4172555000987,301.41495990008116,302.4172555000987,301.41495990008116,302.4172555000987,301.41495990008116,301.91578989999834,301.41495990008116,301.91578989999834,301.41495990008116,301.91578989999834,301.41495990008116,301.91578989999834,301.41495990008116,None,0.21880210004746914,,,,,11017,001,2024_Jan_04_1531,nback,2021.2.3,59.97681298304538,
1-back,instructions\back-1.png,conditions\11back-e.xlsx,,,experiment,1,4,stim\gray.png,stim\gray.png,stim\gray.png,stim\yellow.png,up,,,,,,,,,,,,,0,2,2,5,0,2,2,2,,,,,,,,,,,,,,,,,,,,,,,,,,,,,,,,,,,,,,,,,,,,,,,,,,,,,,,,up,1,302.91749860008713,None,302.91749860008713,None,302.91749860008713,303.9188280000817,302.91749860008713,303.9188280000817,302.91749860008713,303.9188280000817,302.91749860008713,303.9188280000817,302.91749860008713,303.41813780006487,302.91749860008713,303.41813780006487,302.91749860008713,303.41813780006487,302.91749860008713,303.41813780006487,302.91749860008713,None,0.24399670003913343,,,,,11017,001,2024_Jan_04_1531,nback,2021.2.3,59.97681298304538,
1-back,instructions\back-1.png,conditions\11back-e.xlsx,,,experiment,1,2,stim\gray.png,stim\yellow.png,stim\gray.png,stim\gray.png,down,,,,,,,,,,,,,0,2,2,5,0,3,3,3,,,,,,,,,,,,,,,,,,,,,,,,,,,,,,,,,,,,,,,,,,,,,,,,,,,,,,,,down,1,304.4034998000134,None,304.4034998000134,None,304.4034998000134,305.40416949999053,304.4034998000134,305.40416949999053,304.4034998000134,305.40416949999053,304.4034998000134,305.40416949999053,304.4034998000134,304.9035429999931,304.4034998000134,304.9035429999931,304.4034998000134,304.9035429999931,304.4034998000134,304.9035429999931,304.4034998000134,None,0.21385810000356287,,,,,11017,001,2024_Jan_04_1531,nback,2021.2.3,59.97681298304538,
1-back,instructions\back-1.png,conditions\11back-e.xlsx,,,experiment,1,1,stim\yellow.png,stim\gray.png,stim\gray.png,stim\gray.png,left,,,,,,,,,,,,,0,2,2,5,0,4,4,4,,,,,,,,,,,,,,,,,,,,,,,,,,,,,,,,,,,,,,,,,,,,,,,,,,,,,,,,left,1,305.9051388000371,None,305.9051388000371,None,305.9051388000371,306.90718470001593,305.9051388000371,306.90718470001593,305.9051388000371,306.90718470001593,305.9051388000371,306.90718470001593,305.9051388000371,306.4058604000602,305.9051388000371,306.4058604000602,305.9051388000371,306.4058604000602,305.9051388000371,306.4058604000602,305.9051388000371,None,0.21700950001832098,,,,,11017,001,2024_Jan_04_1531,nback,2021.2.3,59.97681298304538,
1-back,instructions\back-1.png,conditions\11back-e.xlsx,,,experiment,1,2,stim\gray.png,stim\yellow.png,stim\gray.png,stim\gray.png,up,,,,,,,,,,,,,0,2,2,5,0,5,5,5,,,,,,,,,,,,,,,,,,,,,,,,,,,,,,,,,,,,,,,,,,,,,,,,,,,,,,,,up,1,307.4073110000463,None,307.4073110000463,None,307.4073110000463,308.4088740000734,307.4073110000463,308.4088740000734,307.4073110000463,308.4088740000734,307.4073110000463,308.4088740000734,307.4073110000463,307.90845340001397,307.4073110000463,307.90845340001397,307.4073110000463,307.90845340001397,307.4073110000463,307.90845340001397,307.4073110000463,None,0.24212760000955313,,,,,11017,001,2024_Jan_04_1531,nback,2021.2.3,59.97681298304538,
1-back,instructions\back-1.png,conditions\11back-e.xlsx,,,experiment,1,3,stim\gray.png,stim\gray.png,stim\yellow.png,stim\gray.png,left,,,,,,,,,,,,,0,2,2,5,0,6,6,6,,,,,,,,,,,,,,,,,,,,,,,,,,,,,,,,,,,,,,,,,,,,,,,,,,,,,,,,left,1,308.9092660000315,None,308.9092660000315,None,308.9092660000315,309.9119040000951,308.9092660000315,309.9119040000951,308.9092660000315,309.9119040000951,308.9092660000315,309.9119040000951,308.9092660000315,309.41123730002437,308.9092660000315,309.41123730002437,308.9092660000315,309.41123730002437,308.9092660000315,309.41123730002437,308.9092660000315,None,0.1400590999983251,,,,,11017,001,2024_Jan_04_1531,nback,2021.2.3,59.97681298304538,
1-back,instructions\back-1.png,conditions\11back-e.xlsx,,,experiment,1,4,stim\gray.png,stim\gray.png,stim\gray.png,stim\yellow.png,right,,,,,,,,,,,,,0,2,2,5,0,7,7,7,,,,,,,,,,,,,,,,,,,,,,,,,,,,,,,,,,,,,,,,,,,,,,,,,,,,,,,,right,1,310.41193540010136,None,310.41193540010136,None,310.41193540010136,311.4139432000229,310.41193540010136,311.4139432000229,310.41193540010136,311.4139432000229,310.41193540010136,311.4139432000229,310.41193540010136,310.9128828000976,310.41193540010136,310.9128828000976,310.41193540010136,310.9128828000976,310.41193540010136,310.9128828000976,310.41193540010136,None,0.03765199996996671,,,,,11017,001,2024_Jan_04_1531,nback,2021.2.3,59.97681298304538,
1-back,instructions\back-1.png,conditions\11back-e.xlsx,,,experiment,1,4,stim\gray.png,stim\gray.png,stim\gray.png,stim\yellow.png,down,,,,,,,,,,,,,0,2,2,5,0,8,8,8,,,,,,,,,,,,,,,,,,,,,,,,,,,,,,,,,,,,,,,,,,,,,,,,,,,,,,,,down,1,311.9139684000984,None,311.9139684000984,None,311.9139684000984,312.91550940007437,311.9139684000984,312.91550940007437,311.9139684000984,312.91550940007437,311.9139684000984,312.91550940007437,311.9139684000984,312.4154128000373,311.9139684000984,312.4154128000373,311.9139684000984,312.4154128000373,311.9139684000984,312.4154128000373,311.9139684000984,None,0.007547899964265525,,,,,11017,001,2024_Jan_04_1531,nback,2021.2.3,59.97681298304538,
1-back,instructions\back-1.png,conditions\11back-e.xlsx,,,experiment,1,3,stim\gray.png,stim\gray.png,stim\yellow.png,stim\gray.png,down,,,,,,,,,,,,,0,2,2,5,0,9,9,9,,,,,,,,,,,,,,,,,,,,,,,,,,,,,,,,,,,,,,,,,,,,,,,,,,,,,,,,down,1,313.4162314001005,None,313.4162314001005,None,313.4162314001005,314.4177854000591,313.4162314001005,314.4177854000591,313.4162314001005,314.4177854000591,313.4162314001005,314.4177854000591,313.4162314001005,313.9169202001067,313.4162314001005,313.9169202001067,313.4162314001005,313.9169202001067,313.4162314001005,313.9169202001067,313.4162314001005,None,0.025168800028041005,,,,,11017,001,2024_Jan_04_1531,nback,2021.2.3,59.97681298304538,
1-back,instructions\back-1.png,conditions\11back-e.xlsx,,,experiment,1,1,stim\yellow.png,stim\gray.png,stim\gray.png,stim\gray.png,right,,,,,,,,,,,,,0,2,2,5,0,10,10,10,,,,,,,,,,,,,,,,,,,,,,,,,,,,,,,,,,,,,,,,,,,,,,,,,,,,,,,,right,1,314.9185289000161,None,314.9185289000161,None,314.9185289000161,315.91992590005975,314.9185289000161,315.91992590005975,314.9185289000161,315.91992590005975,314.9185289000161,315.91992590005975,314.9185289000161,315.41922870010603,314.9185289000161,315.41922870010603,314.9185289000161,315.41922870010603,314.9185289000161,315.41922870010603,314.9185289000161,None,0.010864799958653748,,,,,11017,001,2024_Jan_04_1531,nback,2021.2.3,59.97681298304538,
1-back,instructions\back-1.png,conditions\11back-e.xlsx,,,experiment,1,2,stim\gray.png,stim\yellow.png,stim\gray.png,stim\gray.png,up,,,,,,,,,,,,,0,2,2,5,0,11,11,11,,,,,,,,,,,,,,,,,,,,,,,,,,,,,,,,,,,,,,,,,,,,,,,,,,,,,,,,up,1,316.4040547000477,None,316.4040547000477,None,316.4040547000477,317.4055448001018,316.4040547000477,317.4055448001018,316.4040547000477,317.4055448001018,316.4040547000477,317.4055448001018,316.4040547000477,316.90482410008553,316.4040547000477,316.90482410008553,316.4040547000477,316.90482410008553,316.4040547000477,316.90482410008553,316.4040547000477,None,0.061473999987356365,,,,,11017,001,2024_Jan_04_1531,nback,2021.2.3,59.97681298304538,
1-back,instructions\back-1.png,conditions\11back-e.xlsx,,,experiment,1,3,stim\gray.png,stim\gray.png,stim\yellow.png,stim\gray.png,left,,,,,,,,,,,,,0,2,2,5,0,12,12,12,,,,,,,,,,,,,,,,,,,,,,,,,,,,,,,,,,,,,,,,,,,,,,,,,,,,,,,,left,1,317.90704650001135,None,317.90704650001135,None,317.90704650001135,318.90832460008096,317.90704650001135,318.90832460008096,317.90704650001135,318.90832460008096,317.90704650001135,318.90832460008096,317.90704650001135,318.40681130008306,317.90704650001135,318.40681130008306,317.90704650001135,318.40681130008306,317.90704650001135,318.40681130008306,317.90704650001135,None,0.09440289996564388,,,,,11017,001,2024_Jan_04_1531,nback,2021.2.3,59.97681298304538,
1-back,instructions\back-1.png,conditions\11back-e.xlsx,,,experiment,1,4,stim\gray.png,stim\gray.png,stim\gray.png,stim\yellow.png,right,,,,,,,,,,,,,0,2,2,5,0,13,13,13,,,,,,,,,,,,,,,,,,,,,,,,,,,,,,,,,,,,,,,,,,,,,,,,,,,,,,,,right,1,319.4084026000928,None,319.4084026000928,None,319.4084026000928,320.4110698000295,319.4084026000928,320.4110698000295,319.4084026000928,320.4110698000295,319.4084026000928,320.4110698000295,319.4084026000928,319.909014300094,319.4084026000928,319.909014300094,319.4084026000928,319.909014300094,319.4084026000928,319.909014300094,319.4084026000928,None,0.17716439999639988,,,,,11017,001,2024_Jan_04_1531,nback,2021.2.3,59.97681298304538,
1-back,instructions\back-1.png,conditions\11back-e.xlsx,,,experiment,1,1,stim\yellow.png,stim\gray.png,stim\gray.png,stim\gray.png,down,,,,,,,,,,,,,0,2,2,5,0,14,14,14,,,,,,,,,,,,,,,,,,,,,,,,,,,,,,,,,,,,,,,,,,,,,,,,,,,,,,,,down,1,320.9111298000207,None,320.9111298000207,None,320.9111298000207,321.9129084000597,320.9111298000207,321.9129084000597,320.9111298000207,321.9129084000597,320.9111298000207,321.9129084000597,320.9111298000207,321.41143189999275,320.9111298000207,321.41143189999275,320.9111298000207,321.41143189999275,320.9111298000207,321.41143189999275,320.9111298000207,None,0.16271770000457764,,,,,11017,001,2024_Jan_04_1531,nback,2021.2.3,59.97681298304538,
1-back,instructions\back-1.png,conditions\11back-e.xlsx,,,experiment,1,2,stim\gray.png,stim\yellow.png,stim\gray.png,stim\gray.png,up,,,,,,,,,,,,,0,2,2,5,0,15,15,15,,,,,,,,,,,,,,,,,,,,,,,,,,,,,,,,,,,,,,,,,,,,,,,,,,,,,,,,up,1,322.4138569000643,None,322.4138569000643,None,322.4138569000643,323.4155583000975,322.4138569000643,323.4155583000975,322.4138569000643,323.4155583000975,322.4138569000643,323.4155583000975,322.4138569000643,322.91443310002796,322.4138569000643,322.91443310002796,322.4138569000643,322.91443310002796,322.4138569000643,322.91443310002796,322.4138569000643,None,0.1559451000066474,,,,,11017,001,2024_Jan_04_1531,nback,2021.2.3,59.97681298304538,
1-back,instructions\back-1.png,conditions\11back-e.xlsx,,,experiment,1,2,stim\gray.png,stim\yellow.png,stim\gray.png,stim\gray.png,left,,,,,,,,,,,,,0,2,2,5,0,16,16,16,,,,,,,,,,,,,,,,,,,,,,,,,,,,,,,,,,,,,,,,,,,,,,,,,,,,,,,,left,1,323.9152447000379,None,323.9152447000379,None,323.9152447000379,324.9169760000659,323.9152447000379,324.9169760000659,323.9152447000379,324.9169760000659,323.9152447000379,324.9169760000659,323.9152447000379,324.4158190001035,323.9152447000379,324.4158190001035,323.9152447000379,324.4158190001035,323.9152447000379,324.4158190001035,323.9152447000379,None,0.26217430003453046,,,,,11017,001,2024_Jan_04_1531,nback,2021.2.3,59.97681298304538,
1-back,instructions\back-1.png,conditions\11back-e.xlsx,,,experiment,1,1,stim\yellow.png,stim\gray.png,stim\gray.png,stim\gray.png,left,,,,,,,,,,,,,0,2,2,5,0,17,17,17,,,,,,,,,,,,,,,,,,,,,,,,,,,,,,,,,,,,,,,,,,,,,,,,,,,,,,,,left,1,325.4181258000899,None,325.4181258000899,None,325.4181258000899,326.4193144000601,325.4181258000899,326.4193144000601,325.4181258000899,326.4193144000601,325.4181258000899,326.4193144000601,325.4181258000899,325.9182354999939,325.4181258000899,325.9182354999939,325.4181258000899,325.9182354999939,325.4181258000899,325.9182354999939,325.4181258000899,None,0.1032405000878498,,,,,11017,001,2024_Jan_04_1531,nback,2021.2.3,59.97681298304538,
1-back,instructions\back-1.png,conditions\11back-e.xlsx,,,experiment,1,4,stim\gray.png,stim\gray.png,stim\gray.png,stim\yellow.png,up,,,,,,,,,,,,,0,2,2,5,0,18,18,18,,,,,,,,,,,,,,,,,,,,,,,,,,,,,,,,,,,,,,,,,,,,,,,,,,,,,,,,up,1,326.90286910010036,None,326.90286910010036,None,326.90286910010036,327.9049758000765,326.90286910010036,327.9049758000765,326.90286910010036,327.9049758000765,326.90286910010036,327.9049758000765,326.90286910010036,327.40365460002795,326.90286910010036,327.40365460002795,326.90286910010036,327.40365460002795,326.90286910010036,327.40365460002795,326.90286910010036,None,0.06660709995776415,,,,,11017,001,2024_Jan_04_1531,nback,2021.2.3,59.97681298304538,
1-back,instructions\back-1.png,conditions\11back-e.xlsx,,,experiment,1,3,stim\gray.png,stim\gray.png,stim\yellow.png,stim\gray.png,down,,,,,,,,,,,,,0,2,2,5,0,19,19,19,,,,,,,,,,,,,,,,,,,,,,,,,,,,,,,,,,,,,,,,,,,,,,,,,,,,,,,,down,1,328.4056950000813,None,328.4056950000813,None,328.4056950000813,329.4066141000949,328.4056950000813,329.4066141000949,328.4056950000813,329.4066141000949,328.4056950000813,329.4066141000949,328.4056950000813,328.906931500067,328.4056950000813,328.906931500067,328.4056950000813,328.906931500067,328.4056950000813,328.906931500067,328.4056950000813,None,0.011787199997343123,,,,,11017,001,2024_Jan_04_1531,nback,2021.2.3,59.97681298304538,
1-back,instructions\back-1.png,conditions\11back-e.xlsx,,,,,,,,,,,,,,,,,,,,,,,0,2,2,5,,,,,,,,,,,,,,,,,,,,,,,,,,,,,,,,,,,,,,,,,,,,,,,,,,,,,,,,,,,,,,,,,,,,,,,,,,,,,,,,,,,,,329.90815830009524,None,,,11017,001,2024_Jan_04_1531,nback,2021.2.3,59.97681298304538,
1-back,instructions\back-1.png,conditions\10back-e.xlsx,,,experiment,1,3,stim\gray.png,stim\gray.png,stim\yellow.png,stim\gray.png,None,,,,,,,,,,,,,0,3,3,1,0,0,0,0,,,,,,,,,,,,,,,331.0424110000022,335.5495617000852,335.51734340004623,None,,,,,,,,,,,,,,,,,,,,,,,,,,,,,,,,,,,,,,None,1,335.9335971000837,None,335.9335971000837,None,335.9335971000837,336.93460010003764,335.9335971000837,336.93460010003764,335.9335971000837,336.93460010003764,335.9335971000837,336.93460010003764,335.9335971000837,336.4344406001037,335.9335971000837,336.4344406001037,335.9335971000837,336.4344406001037,335.9335971000837,336.4344406001037,335.9335971000837,None,,,,,,11017,001,2024_Jan_04_1531,nback,2021.2.3,59.97681298304538,
1-back,instructions\back-1.png,conditions\10back-e.xlsx,,,experiment,1,4,stim\gray.png,stim\gray.png,stim\gray.png,stim\yellow.png,right,,,,,,,,,,,,,0,3,3,1,0,1,1,1,,,,,,,,,,,,,,,,,,,,,,,,,,,,,,,,,,,,,,,,,,,,,,,,,,,,,,,,right,1,337.4016729000723,None,337.4016729000723,None,337.4016729000723,338.4041000000434,337.4016729000723,338.4041000000434,337.4016729000723,338.4041000000434,337.4016729000723,338.4041000000434,337.4016729000723,337.90336480003316,337.4016729000723,337.90336480003316,337.4016729000723,337.90336480003316,337.4016729000723,337.90336480003316,337.4016729000723,None,0.2239270000718534,,,,,11017,001,2024_Jan_04_1531,nback,2021.2.3,59.97681298304538,
1-back,instructions\back-1.png,conditions\10back-e.xlsx,,,experiment,1,4,stim\gray.png,stim\gray.png,stim\gray.png,stim\yellow.png,down,,,,,,,,,,,,,0,3,3,1,0,2,2,2,,,,,,,,,,,,,,,,,,,,,,,,,,,,,,,,,,,,,,,,,,,,,,,,,,,,,,,,down,1,338.9045998000074,None,338.9045998000074,None,338.9045998000074,339.9060265000444,338.9045998000074,339.9060265000444,338.9045998000074,339.9060265000444,338.9045998000074,339.9060265000444,338.9045998000074,339.40498830005527,338.9045998000074,339.40498830005527,338.9045998000074,339.40498830005527,338.9045998000074,339.40498830005527,338.9045998000074,None,0.3050597000401467,,,,,11017,001,2024_Jan_04_1531,nback,2021.2.3,59.97681298304538,
1-back,instructions\back-1.png,conditions\10back-e.xlsx,,,experiment,1,2,stim\gray.png,stim\yellow.png,stim\gray.png,stim\gray.png,down,,,,,,,,,,,,,0,3,3,1,0,3,3,3,,,,,,,,,,,,,,,,,,,,,,,,,,,,,,,,,,,,,,,,,,,,,,,,,,,,,,,,down,1,340.4070197000401,None,340.4070197000401,None,340.4070197000401,341.4079458999913,340.4070197000401,341.4079458999913,340.4070197000401,341.4079458999913,340.4070197000401,341.4079458999913,340.4070197000401,340.9073680000147,340.4070197000401,340.9073680000147,340.4070197000401,340.9073680000147,340.4070197000401,340.9073680000147,340.4070197000401,None,0.2105319999391213,,,,,11017,001,2024_Jan_04_1531,nback,2021.2.3,59.97681298304538,
1-back,instructions\back-1.png,conditions\10back-e.xlsx,,,experiment,1,1,stim\yellow.png,stim\gray.png,stim\gray.png,stim\gray.png,left,,,,,,,,,,,,,0,3,3,1,0,4,4,4,,,,,,,,,,,,,,,,,,,,,,,,,,,,,,,,,,,,,,,,,,,,,,,,,,,,,,,,left,1,341.90822320000734,None,341.90822320000734,None,341.90822320000734,342.91054840001743,341.90822320000734,342.91054840001743,341.90822320000734,342.91054840001743,341.90822320000734,342.91054840001743,341.90822320000734,342.40987440000754,341.90822320000734,342.40987440000754,341.90822320000734,342.40987440000754,341.90822320000734,342.40987440000754,341.90822320000734,None,0.2611703999573365,,,,,11017,001,2024_Jan_04_1531,nback,2021.2.3,59.97681298304538,
1-back,instructions\back-1.png,conditions\10back-e.xlsx,,,experiment,1,2,stim\gray.png,stim\yellow.png,stim\gray.png,stim\gray.png,up,,,,,,,,,,,,,0,3,3,1,0,5,5,5,,,,,,,,,,,,,,,,,,,,,,,,,,,,,,,,,,,,,,,,,,,,,,,,,,,,,,,,up,1,343.41111700003967,None,343.41111700003967,None,343.41111700003967,344.41257190005854,343.41111700003967,344.41257190005854,343.41111700003967,344.41257190005854,343.41111700003967,344.41257190005854,343.41111700003967,343.9121073000133,343.41111700003967,343.9121073000133,343.41111700003967,343.9121073000133,343.41111700003967,343.9121073000133,343.41111700003967,None,0.24697989993728697,,,,,11017,001,2024_Jan_04_1531,nback,2021.2.3,59.97681298304538,
1-back,instructions\back-1.png,conditions\10back-e.xlsx,,,experiment,1,3,stim\gray.png,stim\gray.png,stim\yellow.png,stim\gray.png,left,,,,,,,,,,,,,0,3,3,1,0,6,6,6,,,,,,,,,,,,,,,,,,,,,,,,,,,,,,,,,,,,,,,,,,,,,,,,,,,,,,,,left,1,344.9130987999961,None,344.9130987999961,None,344.9130987999961,345.91435940004885,344.9130987999961,345.91435940004885,344.9130987999961,345.91435940004885,344.9130987999961,345.91435940004885,344.9130987999961,345.41350900009274,344.9130987999961,345.41350900009274,344.9130987999961,345.41350900009274,344.9130987999961,345.41350900009274,344.9130987999961,None,0.265323199913837,,,,,11017,001,2024_Jan_04_1531,nback,2021.2.3,59.97681298304538,
1-back,instructions\back-1.png,conditions\10back-e.xlsx,,,experiment,1,4,stim\gray.png,stim\gray.png,stim\gray.png,stim\yellow.png,right,,,,,,,,,,,,,0,3,3,1,0,7,7,7,,,,,,,,,,,,,,,,,,,,,,,,,,,,,,,,,,,,,,,,,,,,,,,,,,,,,,,,right,1,346.4151009999914,None,346.4151009999914,None,346.4151009999914,347.4173119000625,346.4151009999914,347.4173119000625,346.4151009999914,347.4173119000625,346.4151009999914,347.4173119000625,346.4151009999914,346.91638470010366,346.4151009999914,346.91638470010366,346.4151009999914,346.91638470010366,346.4151009999914,346.91638470010366,346.4151009999914,None,0.36230109992902726,,,,,11017,001,2024_Jan_04_1531,nback,2021.2.3,59.97681298304538,
1-back,instructions\back-1.png,conditions\10back-e.xlsx,,,experiment,1,1,stim\yellow.png,stim\gray.png,stim\gray.png,stim\gray.png,down,,,,,,,,,,,,,0,3,3,1,0,8,8,8,,,,,,,,,,,,,,,,,,,,,,,,,,,,,,,,,,,,,,,,,,,,,,,,,,,,,,,,down,1,347.9173551000422,None,347.9173551000422,None,347.9173551000422,348.91930940002203,347.9173551000422,348.91930940002203,347.9173551000422,348.91930940002203,347.9173551000422,348.91930940002203,347.9173551000422,348.41878850001376,347.9173551000422,348.41878850001376,347.9173551000422,348.41878850001376,347.9173551000422,348.41878850001376,347.9173551000422,None,0.26812800008337945,,,,,11017,001,2024_Jan_04_1531,nback,2021.2.3,59.97681298304538,
1-back,instructions\back-1.png,conditions\10back-e.xlsx,,,experiment,1,3,stim\gray.png,stim\gray.png,stim\yellow.png,stim\gray.png,up,,,,,,,,,,,,,0,3,3,1,0,9,9,9,,,,,,,,,,,,,,,,,,,,,,,,,,,,,,,,,,,,,,,,,,,,,,,,,,,,,,,,up,1,349.4029107000679,None,349.4029107000679,None,349.4029107000679,350.40576290001627,349.4029107000679,350.40576290001627,349.4029107000679,350.40576290001627,349.4029107000679,350.40576290001627,349.4029107000679,349.9036958999932,349.4029107000679,349.9036958999932,349.4029107000679,349.9036958999932,349.4029107000679,349.9036958999932,349.4029107000679,None,0.2944298000074923,,,,,11017,001,2024_Jan_04_1531,nback,2021.2.3,59.97681298304538,
1-back,instructions\back-1.png,conditions\10back-e.xlsx,,,experiment,1,1,stim\yellow.png,stim\gray.png,stim\gray.png,stim\gray.png,right,,,,,,,,,,,,,0,3,3,1,0,10,10,10,,,,,,,,,,,,,,,,,,,,,,,,,,,,,,,,,,,,,,,,,,,,,,,,,,,,,,,,right,1,350.90510140010156,None,350.90510140010156,None,350.90510140010156,351.9067692999961,350.90510140010156,351.9067692999961,350.90510140010156,351.9067692999961,350.90510140010156,351.9067692999961,350.90510140010156,351.40678780002054,350.90510140010156,351.40678780002054,350.90510140010156,351.40678780002054,350.90510140010156,351.40678780002054,350.90510140010156,None,0.2884349999949336,,,,,11017,001,2024_Jan_04_1531,nback,2021.2.3,59.97681298304538,
1-back,instructions\back-1.png,conditions\10back-e.xlsx,,,experiment,1,2,stim\gray.png,stim\yellow.png,stim\gray.png,stim\gray.png,up,,,,,,,,,,,,,0,3,3,1,0,11,11,11,,,,,,,,,,,,,,,,,,,,,,,,,,,,,,,,,,,,,,,,,,,,,,,,,,,,,,,,up,1,352.40733420010656,None,352.40733420010656,None,352.40733420010656,353.4097741000587,352.40733420010656,353.4097741000587,352.40733420010656,353.4097741000587,352.40733420010656,353.4097741000587,352.40733420010656,352.90810730005614,352.40733420010656,352.90810730005614,352.40733420010656,352.90810730005614,352.40733420010656,352.90810730005614,352.40733420010656,None,0.22614239994436502,,,,,11017,001,2024_Jan_04_1531,nback,2021.2.3,59.97681298304538,
1-back,instructions\back-1.png,conditions\10back-e.xlsx,,,experiment,1,4,stim\gray.png,stim\gray.png,stim\gray.png,stim\yellow.png,left,,,,,,,,,,,,,0,3,3,1,0,12,12,12,,,,,,,,,,,,,,,,,,,,,,,,,,,,,,,,,,,,,,,,,,,,,,,,,,,,,,,,left,1,353.90953370009083,None,353.90953370009083,None,353.90953370009083,354.9118458000012,353.90953370009083,354.9118458000012,353.90953370009083,354.9118458000012,353.90953370009083,354.9118458000012,353.90953370009083,354.41061100002844,353.90953370009083,354.41061100002844,353.90953370009083,354.41061100002844,353.90953370009083,354.41061100002844,353.90953370009083,None,0.3009120000060648,,,,,11017,001,2024_Jan_04_1531,nback,2021.2.3,59.97681298304538,
1-back,instructions\back-1.png,conditions\10back-e.xlsx,,,experiment,1,3,stim\gray.png,stim\gray.png,stim\yellow.png,stim\gray.png,down,,,,,,,,,,,,,0,3,3,1,0,13,13,13,,,,,,,,,,,,,,,,,,,,,,,,,,,,,,,,,,,,,,,,,,,,,,,,,,,,,,,,down,1,355.4121417000424,None,355.4121417000424,None,355.4121417000424,356.4141998999985,355.4121417000424,356.4141998999985,355.4121417000424,356.4141998999985,355.4121417000424,356.4141998999985,355.4121417000424,355.9126072000945,355.4121417000424,355.9126072000945,355.4121417000424,355.9126072000945,355.4121417000424,355.9126072000945,355.4121417000424,None,0.18961700005456805,,,,,11017,001,2024_Jan_04_1531,nback,2021.2.3,59.97681298304538,
1-back,instructions\back-1.png,conditions\10back-e.xlsx,,,experiment,1,1,stim\yellow.png,stim\gray.png,stim\gray.png,stim\gray.png,right,,,,,,,,,,,,,0,3,3,1,0,14,14,14,,,,,,,,,,,,,,,,,,,,,,,,,,,,,,,,,,,,,,,,,,,,,,,,,,,,,,,,right,1,356.91408180003054,None,356.91408180003054,None,356.91408180003054,357.9167644000845,356.91408180003054,357.9167644000845,356.91408180003054,357.9167644000845,356.91408180003054,357.9167644000845,356.91408180003054,357.41546829999425,356.91408180003054,357.41546829999425,356.91408180003054,357.41546829999425,356.91408180003054,357.41546829999425,356.91408180003054,None,0.21615100000053644,,,,,11017,001,2024_Jan_04_1531,nback,2021.2.3,59.97681298304538,
1-back,instructions\back-1.png,conditions\10back-e.xlsx,,,experiment,1,2,stim\gray.png,stim\yellow.png,stim\gray.png,stim\gray.png,up,,,,,,,,,,,,,0,3,3,1,0,15,15,15,,,,,,,,,,,,,,,,,,,,,,,,,,,,,,,,,,,,,,,,,,,,,,,,,,,,,,,,up,1,358.4161220000824,None,358.4161220000824,None,358.4161220000824,359.419169700006,358.4161220000824,359.419169700006,358.4161220000824,359.419169700006,358.4161220000824,359.419169700006,358.4161220000824,358.91698880004697,358.4161220000824,358.91698880004697,358.4161220000824,358.91698880004697,358.4161220000824,358.91698880004697,358.4161220000824,None,0.1452521999599412,,,,,11017,001,2024_Jan_04_1531,nback,2021.2.3,59.97681298304538,
1-back,instructions\back-1.png,conditions\10back-e.xlsx,,,experiment,1,3,stim\gray.png,stim\gray.png,stim\yellow.png,stim\gray.png,left,,,,,,,,,,,,,0,3,3,1,0,16,16,16,,,,,,,,,,,,,,,,,,,,,,,,,,,,,,,,,,,,,,,,,,,,,,,,,,,,,,,,left,1,359.9192859000759,None,359.9192859000759,None,359.9192859000759,360.92047470004763,359.9192859000759,360.92047470004763,359.9192859000759,360.92047470004763,359.9192859000759,360.92047470004763,359.9192859000759,360.41908630006947,359.9192859000759,360.41908630006947,359.9192859000759,360.41908630006947,359.9192859000759,360.41908630006947,359.9192859000759,None,0.14641260006465018,,,,,11017,001,2024_Jan_04_1531,nback,2021.2.3,59.97681298304538,
