backseq,backinstr,backfile,instruction,size_in,Trialtype,back,number,P1,P2,P3,P4,corrAns,trials_practice.thisRepN,trials_practice.thisTrialN,trials_practice.thisN,trials_practice.thisIndex,trials.thisRepN,trials.thisTrialN,trials.thisN,trials.thisIndex,trials_3.thisRepN,trials_3.thisTrialN,trials_3.thisN,trials_3.thisIndex,trials_2.thisRepN,trials_2.thisTrialN,trials_2.thisN,trials_2.thisIndex,trials_4.thisRepN,trials_4.thisTrialN,trials_4.thisN,trials_4.thisIndex,image.started,image.stopped,image_2.started,image_2.stopped,key_resp.keys,key_resp.rt,key_resp.started,key_resp.stopped,image_3.started,image_3.stopped,key_resp_2.keys,key_resp_2.rt,key_resp_2.started,key_resp_2.stopped,image_4.started,image_4.stopped,text.started,text.stopped,H1.started,H1.stopped,H2.started,H2.stopped,H3.started,H3.stopped,H4.started,H4.stopped,key_resp_3.keys,key_resp_3.corr,key_resp_3.rt,key_resp_3.started,key_resp_3.stopped,text_4.started,text_4.stopped,F1.started,F1.stopped,F2.started,F2.stopped,F3.started,F3.stopped,F4.started,F4.stopped,image_7.started,image_7.stopped,text_5.started,text_5.stopped,key_resp_6.keys,key_resp_6.rt,key_resp_6.started,key_resp_6.stopped,image_5.started,image_5.stopped,key_resp_4.keys,key_resp_4.rt,key_resp_4.started,key_resp_4.stopped,key_resp_5.keys,key_resp_5.corr,key_resp_5.rt,key_resp_5.started,key_resp_5.stopped,text_3.started,text_3.stopped,H1_2.started,H1_2.stopped,H2_2.started,H2_2.stopped,H3_2.started,H3_2.stopped,H4_2.started,H4_2.stopped,F1_2.started,F1_2.stopped,F2_2.started,F2_2.stopped,F3_2.started,F3_2.stopped,F4_2.started,F4_2.stopped,image_8.started,image_8.stopped,text_2.started,text_2.stopped,image_6.started,image_6.stopped,participant,session,date,expName,psychopyVersion,frameRate,
,,,,,,,,,,,,,,,,,,,,,,,,,,,,,,,,,10.320238500018604,None,11.289275900053326,None,space,37.26697789999889,11.289275900053326,None,,,,,,,,,,,,,,,,,,,,,,,,,,,,,,,,,,,,,,,,,,,,,,,,,,,,,,,,,,,,,,,,,,,,,,,,,,,,,11011,001,2024_Jan_02_1036,nback,2021.2.3,60.0090973715877,
0-back,instructions\back-0.png,conditions\0back-p.xlsx,instructions\0-BACK.png,"(15, 8)",practice,0,1,stim\yellow.png,stim\gray.png,stim\gray.png,stim\gray.png,up,0,0,0,0,0,0,0,0,0,0,0,0,,,,,,,,,,,,,,,,,48.628327500016894,None,space,53.70372670004144,48.628327500016894,None,102.49089330004063,106.99905530002434,106.96553380001569,None,107.38311880000401,108.38321759999963,107.38311880000401,108.38321759999963,107.38311880000401,108.38321759999963,107.38311880000401,108.38321759999963,up,1,0.5335186999873258,107.38311880000401,None,107.38311880000401,None,107.38311880000401,107.88368010002887,107.38311880000401,107.88368010002887,107.38311880000401,107.88368010002887,107.38311880000401,107.88368010002887,107.38311880000401,None,,,,,,,,,,,,,,,,,,,,,,,,,,,,,,,,,,,,,,,,,,11011,001,2024_Jan_02_1036,nback,2021.2.3,60.0090973715877,
0-back,instructions\back-0.png,conditions\0back-p.xlsx,instructions\0-BACK.png,"(15, 8)",practice,0,2,stim\gray.png,stim\yellow.png,stim\gray.png,stim\gray.png,left,0,0,0,0,0,0,0,0,0,1,1,1,,,,,,,,,,,,,,,,,,,,,,,,,,,108.86672990000807,109.86861870001303,108.86672990000807,109.86861870001303,108.86672990000807,109.86861870001303,108.86672990000807,109.86861870001303,left,1,0.40921039995737374,108.86672990000807,None,108.86672990000807,None,108.86672990000807,109.36775790003594,108.86672990000807,109.36775790003594,108.86672990000807,109.36775790003594,108.86672990000807,109.36775790003594,108.86672990000807,None,,,,,,,,,,,,,,,,,,,,,,,,,,,,,,,,,,,,,,,,,,11011,001,2024_Jan_02_1036,nback,2021.2.3,60.0090973715877,
0-back,instructions\back-0.png,conditions\0back-p.xlsx,instructions\0-BACK.png,"(15, 8)",practice,0,3,stim\gray.png,stim\gray.png,stim\yellow.png,stim\gray.png,right,0,0,0,0,0,0,0,0,0,2,2,2,,,,,,,,,,,,,,,,,,,,,,,,,,,110.36935600003926,111.3717561000376,110.36935600003926,111.3717561000376,110.36935600003926,111.3717561000376,110.36935600003926,111.3717561000376,right,1,0.5309108999790624,110.36935600003926,None,110.36935600003926,None,110.36935600003926,110.8714340000297,110.36935600003926,110.8714340000297,110.36935600003926,110.8714340000297,110.36935600003926,110.8714340000297,110.36935600003926,None,,,,,,,,,,,,,,,,,,,,,,,,,,,,,,,,,,,,,,,,,,11011,001,2024_Jan_02_1036,nback,2021.2.3,60.0090973715877,
0-back,instructions\back-0.png,conditions\0back-p.xlsx,instructions\0-BACK.png,"(15, 8)",practice,0,4,stim\gray.png,stim\gray.png,stim\gray.png,stim\yellow.png,down,0,0,0,0,0,0,0,0,0,3,3,3,,,,,,,,,,,,,,,,,,,,,,,,,,,111.87290450005094,112.8730461000232,111.87290450005094,112.8730461000232,111.87290450005094,112.8730461000232,111.87290450005094,112.8730461000232,down,1,0.49103630002355203,111.87290450005094,None,111.87290450005094,None,111.87290450005094,112.37313780002296,111.87290450005094,112.37313780002296,111.87290450005094,112.37313780002296,111.87290450005094,112.37313780002296,111.87290450005094,None,,,,,,,,,,,,,,,,,,,,,,,,,,,,,,,,,,,,,,,,,,11011,001,2024_Jan_02_1036,nback,2021.2.3,60.0090973715877,
0-back,instructions\back-0.png,conditions\0back-p.xlsx,instructions\0-BACK.png,"(15, 8)",practice,0,2,stim\gray.png,stim\yellow.png,stim\gray.png,stim\gray.png,left,0,0,0,0,0,0,0,0,0,4,4,4,,,,,,,,,,,,,,,,,,,,,,,,,,,113.37378050002735,114.37530800001696,113.37378050002735,114.37530800001696,113.37378050002735,114.37530800001696,113.37378050002735,114.37530800001696,left,1,0.3581271999864839,113.37378050002735,None,113.37378050002735,None,113.37378050002735,113.87450640002498,113.37378050002735,113.87450640002498,113.37378050002735,113.87450640002498,113.37378050002735,113.87450640002498,113.37378050002735,None,,,,,,,,,,,,,,,,,,,,,,,,,,,,,,,,,,,,,,,,,,11011,001,2024_Jan_02_1036,nback,2021.2.3,60.0090973715877,
0-back,instructions\back-0.png,conditions\0back-p.xlsx,instructions\0-BACK.png,"(15, 8)",practice,0,1,stim\yellow.png,stim\gray.png,stim\gray.png,stim\gray.png,up,0,0,0,0,0,0,0,0,0,5,5,5,,,,,,,,,,,,,,,,,,,,,,,,,,,114.87596690002829,115.87830660003237,114.87596690002829,115.87830660003237,114.87596690002829,115.87830660003237,114.87596690002829,115.87830660003237,up,1,0.38476709998212755,114.87596690002829,None,114.87596690002829,None,114.87596690002829,115.37677440000698,114.87596690002829,115.37677440000698,114.87596690002829,115.37677440000698,114.87596690002829,115.37677440000698,114.87596690002829,None,,,,,,,,,,,,,,,,,,,,,,,,,,,,,,,,,,,,,,,,,,11011,001,2024_Jan_02_1036,nback,2021.2.3,60.0090973715877,
0-back,instructions\back-0.png,conditions\0back-p.xlsx,instructions\0-BACK.png,"(15, 8)",practice,0,4,stim\gray.png,stim\gray.png,stim\gray.png,stim\yellow.png,down,0,0,0,0,0,0,0,0,0,6,6,6,,,,,,,,,,,,,,,,,,,,,,,,,,,116.37899780005682,117.38041940005496,116.37899780005682,117.38041940005496,116.37899780005682,117.38041940005496,116.37899780005682,117.38041940005496,down,1,0.5695038999547251,116.37899780005682,None,116.37899780005682,None,116.37899780005682,116.87990030000219,116.37899780005682,116.87990030000219,116.37899780005682,116.87990030000219,116.37899780005682,116.87990030000219,116.37899780005682,None,,,,,,,,,,,,,,,,,,,,,,,,,,,,,,,,,,,,,,,,,,11011,001,2024_Jan_02_1036,nback,2021.2.3,60.0090973715877,
0-back,instructions\back-0.png,conditions\0back-p.xlsx,instructions\0-BACK.png,"(15, 8)",practice,0,3,stim\gray.png,stim\gray.png,stim\yellow.png,stim\gray.png,right,0,0,0,0,0,0,0,0,0,7,7,7,,,,,,,,,,,,,,,,,,,,,,,,,,,117.86426060000667,118.86663890001364,117.86426060000667,118.86663890001364,117.86426060000667,118.86663890001364,117.86426060000667,118.86663890001364,right,1,0.39649909996660426,117.86426060000667,None,117.86426060000667,None,117.86426060000667,118.36505290004425,117.86426060000667,118.36505290004425,117.86426060000667,118.36505290004425,117.86426060000667,118.36505290004425,117.86426060000667,None,,,,,,,,,,,,,,,,,,,,,,,,,,,,,,,,,,,,,,,,,,11011,001,2024_Jan_02_1036,nback,2021.2.3,60.0090973715877,
0-back,instructions\back-0.png,conditions\0back-p.xlsx,instructions\0-BACK.png,"(15, 8)",practice,0,3,stim\gray.png,stim\gray.png,stim\yellow.png,stim\gray.png,right,0,0,0,0,0,0,0,0,0,8,8,8,,,,,,,,,,,,,,,,,,,,,,,,,,,119.36643960000947,120.3675285000354,119.36643960000947,120.3675285000354,119.36643960000947,120.3675285000354,119.36643960000947,120.3675285000354,right,1,0.43776689999504015,119.36643960000947,None,119.36643960000947,None,119.36643960000947,119.86667120002676,119.36643960000947,119.86667120002676,119.36643960000947,119.86667120002676,119.36643960000947,119.86667120002676,119.36643960000947,None,,,,,,,,,,,,,,,,,,,,,,,,,,,,,,,,,,,,,,,,,,11011,001,2024_Jan_02_1036,nback,2021.2.3,60.0090973715877,
0-back,instructions\back-0.png,conditions\0back-p.xlsx,instructions\0-BACK.png,"(15, 8)",practice,0,4,stim\gray.png,stim\gray.png,stim\gray.png,stim\yellow.png,down,0,0,0,0,0,0,0,0,0,9,9,9,,,,,,,,,,,,,,,,,,,,,,,,,,,120.86829220002983,121.86980610003229,120.86829220002983,121.86980610003229,120.86829220002983,121.86980610003229,120.86829220002983,121.86980610003229,down,1,0.5518516000011005,120.86829220002983,None,120.86829220002983,None,120.86829220002983,121.36946910002735,120.86829220002983,121.36946910002735,120.86829220002983,121.36946910002735,120.86829220002983,121.36946910002735,120.86829220002983,None,,,,,,,,,,,,,,,,,,,,,,,,,,,,,,,,,,,,,,,,,,11011,001,2024_Jan_02_1036,nback,2021.2.3,60.0090973715877,
0-back,instructions\back-0.png,conditions\0back-p.xlsx,instructions\0-BACK.png,"(15, 8)",practice,0,1,stim\yellow.png,stim\gray.png,stim\gray.png,stim\gray.png,up,0,0,0,0,0,0,0,0,0,10,10,10,,,,,,,,,,,,,,,,,,,,,,,,,,,122.37065880000591,123.37214240001049,122.37065880000591,123.37214240001049,122.37065880000591,123.37214240001049,122.37065880000591,123.37214240001049,up,1,0.40120219998061657,122.37065880000591,None,122.37065880000591,None,122.37065880000591,122.87219190003816,122.37065880000591,122.87219190003816,122.37065880000591,122.87219190003816,122.37065880000591,122.87219190003816,122.37065880000591,None,,,,,,,,,,,,,,,,,,,,,,,,,,,,,,,,,,,,,,,,,,11011,001,2024_Jan_02_1036,nback,2021.2.3,60.0090973715877,
0-back,instructions\back-0.png,conditions\0back-p.xlsx,instructions\0-BACK.png,"(15, 8)",practice,0,2,stim\gray.png,stim\yellow.png,stim\gray.png,stim\gray.png,left,0,0,0,0,0,0,0,0,0,11,11,11,,,,,,,,,,,,,,,,,,,,,,,,,,,123.87264440004947,124.87426270003198,123.87264440004947,124.87426270003198,123.87264440004947,124.87426270003198,123.87264440004947,124.87426270003198,left,1,0.31575040001189336,123.87264440004947,None,123.87264440004947,None,123.87264440004947,124.37327450001612,123.87264440004947,124.37327450001612,123.87264440004947,124.37327450001612,123.87264440004947,124.37327450001612,123.87264440004947,None,,,,,,,,,,,,,,,,,,,,,,,,,,,,,,,,,,,,,,,,,,11011,001,2024_Jan_02_1036,nback,2021.2.3,60.0090973715877,
0-back,instructions\back-0.png,conditions\0back-p.xlsx,instructions\0-BACK.png,"(15, 8)",practice,0,4,stim\gray.png,stim\gray.png,stim\gray.png,stim\yellow.png,down,0,0,0,0,0,0,0,0,0,12,12,12,,,,,,,,,,,,,,,,,,,,,,,,,,,125.37482300004922,126.37732480000705,125.37482300004922,126.37732480000705,125.37482300004922,126.37732480000705,125.37482300004922,126.37732480000705,down,1,0.493220400006976,125.37482300004922,None,125.37482300004922,None,125.37482300004922,125.87557660002494,125.37482300004922,125.87557660002494,125.37482300004922,125.87557660002494,125.37482300004922,125.87557660002494,125.37482300004922,None,,,,,,,,,,,,,,,,,,,,,,,,,,,,,,,,,,,,,,,,,,11011,001,2024_Jan_02_1036,nback,2021.2.3,60.0090973715877,
0-back,instructions\back-0.png,conditions\0back-p.xlsx,instructions\0-BACK.png,"(15, 8)",practice,0,3,stim\gray.png,stim\gray.png,stim\yellow.png,stim\gray.png,right,0,0,0,0,0,0,0,0,0,13,13,13,,,,,,,,,,,,,,,,,,,,,,,,,,,126.87716520001413,127.87867590005044,126.87716520001413,127.87867590005044,126.87716520001413,127.87867590005044,126.87716520001413,127.87867590005044,right,1,0.27937839995138347,126.87716520001413,None,126.87716520001413,None,126.87716520001413,127.37802780000493,126.87716520001413,127.37802780000493,126.87716520001413,127.37802780000493,126.87716520001413,127.37802780000493,126.87716520001413,None,,,,,,,,,,,,,,,,,,,,,,,,,,,,,,,,,,,,,,,,,,11011,001,2024_Jan_02_1036,nback,2021.2.3,60.0090973715877,
0-back,instructions\back-0.png,conditions\0back-p.xlsx,instructions\0-BACK.png,"(15, 8)",practice,0,1,stim\yellow.png,stim\gray.png,stim\gray.png,stim\gray.png,up,0,0,0,0,0,0,0,0,0,14,14,14,,,,,,,,,,,,,,,,,,,,,,,,,,,128.36330160003854,129.36450150003657,128.36330160003854,129.36450150003657,128.36330160003854,129.36450150003657,128.36330160003854,129.36450150003657,up,1,0.30464319995371625,128.36330160003854,None,128.36330160003854,None,128.36330160003854,128.86398300004657,128.36330160003854,128.86398300004657,128.36330160003854,128.86398300004657,128.36330160003854,128.86398300004657,128.36330160003854,None,,,,,,,,,,,,,,,,,,,,,,,,,,,,,,,,,,,,,,,,,,11011,001,2024_Jan_02_1036,nback,2021.2.3,60.0090973715877,
0-back,instructions\back-0.png,conditions\0back-p.xlsx,instructions\0-BACK.png,"(15, 8)",practice,0,2,stim\gray.png,stim\yellow.png,stim\gray.png,stim\gray.png,left,0,0,0,0,0,0,0,0,0,15,15,15,,,,,,,,,,,,,,,,,,,,,,,,,,,129.86550800001714,130.866775100003,129.86550800001714,130.866775100003,129.86550800001714,130.866775100003,129.86550800001714,130.866775100003,left,1,0.3704629999701865,129.86550800001714,None,129.86550800001714,None,129.86550800001714,130.36750930000562,129.86550800001714,130.36750930000562,129.86550800001714,130.36750930000562,129.86550800001714,130.36750930000562,129.86550800001714,None,,,,,,,,,,,,,,,,,,,,,,,,,,,,,,,,,,,,,,,,,,11011,001,2024_Jan_02_1036,nback,2021.2.3,60.0090973715877,
0-back,instructions\back-0.png,conditions\0back-p.xlsx,instructions\0-BACK.png,"(15, 8)",practice,0,3,stim\gray.png,stim\gray.png,stim\yellow.png,stim\gray.png,right,0,0,0,0,0,0,0,0,0,16,16,16,,,,,,,,,,,,,,,,,,,,,,,,,,,131.36734270001762,132.36926620005397,131.36734270001762,132.36926620005397,131.36734270001762,132.36926620005397,131.36734270001762,132.36926620005397,right,1,0.4204573000315577,131.36734270001762,None,131.36734270001762,None,131.36734270001762,131.8679986000061,131.36734270001762,131.8679986000061,131.36734270001762,131.8679986000061,131.36734270001762,131.8679986000061,131.36734270001762,None,,,,,,,,,,,,,,,,,,,,,,,,,,,,,,,,,,,,,,,,,,11011,001,2024_Jan_02_1036,nback,2021.2.3,60.0090973715877,
0-back,instructions\back-0.png,conditions\0back-p.xlsx,instructions\0-BACK.png,"(15, 8)",practice,0,1,stim\yellow.png,stim\gray.png,stim\gray.png,stim\gray.png,up,0,0,0,0,0,0,0,0,0,17,17,17,,,,,,,,,,,,,,,,,,,,,,,,,,,132.8700477000093,133.871226200019,132.8700477000093,133.871226200019,132.8700477000093,133.871226200019,132.8700477000093,133.871226200019,up,1,0.37396269995952025,132.8700477000093,None,132.8700477000093,None,132.8700477000093,133.3710728000151,132.8700477000093,133.3710728000151,132.8700477000093,133.3710728000151,132.8700477000093,133.3710728000151,132.8700477000093,None,,,,,,,,,,,,,,,,,,,,,,,,,,,,,,,,,,,,,,,,,,11011,001,2024_Jan_02_1036,nback,2021.2.3,60.0090973715877,
0-back,instructions\back-0.png,conditions\0back-p.xlsx,instructions\0-BACK.png,"(15, 8)",practice,0,4,stim\gray.png,stim\gray.png,stim\gray.png,stim\yellow.png,down,0,0,0,0,0,0,0,0,0,18,18,18,,,,,,,,,,,,,,,,,,,,,,,,,,,134.37152460002108,135.3744308000314,134.37152460002108,135.3744308000314,134.37152460002108,135.3744308000314,134.37152460002108,135.3744308000314,down,1,0.36835030000656843,134.37152460002108,None,134.37152460002108,None,134.37152460002108,134.87273420003476,134.37152460002108,134.87273420003476,134.37152460002108,134.87273420003476,134.37152460002108,134.87273420003476,134.37152460002108,None,,,,,,,,,,,,,,,,,,,,,,,,,,,,,,,,,,,,,,,,,,11011,001,2024_Jan_02_1036,nback,2021.2.3,60.0090973715877,
0-back,instructions\back-0.png,conditions\0back-p.xlsx,instructions\0-BACK.png,"(15, 8)",practice,0,2,stim\gray.png,stim\yellow.png,stim\gray.png,stim\gray.png,left,0,0,0,0,0,0,0,0,0,19,19,19,,,,,,,,,,,,,,,,,,,,,,,,,,,135.8746895000222,136.87504280003486,135.8746895000222,136.87504280003486,135.8746895000222,136.87504280003486,135.8746895000222,136.87504280003486,left,1,0.2976793000125326,135.8746895000222,None,135.8746895000222,None,135.8746895000222,136.3751141000539,135.8746895000222,136.3751141000539,135.8746895000222,136.3751141000539,135.8746895000222,136.3751141000539,135.8746895000222,None,,,,,,,,,,,,,,,,,,,,,,,,,,,,,,,,,,,,,,,,,,11011,001,2024_Jan_02_1036,nback,2021.2.3,60.0090973715877,
0-back,instructions\back-0.png,conditions\0back-p.xlsx,instructions\0-BACK.png,"(15, 8)",,,,,,,,,0,0,0,0,0,0,0,0,,,,,,,,,,,,,,,,,,,,,,,,,,,,,,,,,,,,,,,,,,,,,,,,,,,,,,,,,,,,,,,,,,,,,,,,,,,,,,,,,,,,,,,,,,,,,,,,,11011,001,2024_Jan_02_1036,nback,2021.2.3,60.0090973715877,
1-back,instructions\back-1.png,conditions\1back-p.xlsx,instructions\1-BACK.png,"(25, 15)",practice,1,1,stim\yellow.png,stim\gray.png,stim\gray.png,stim\gray.png,None,0,0,0,0,0,1,1,1,0,0,0,0,,,,,,,,,,,,,,,,,137.50952780002262,None,space,16.81481170002371,137.50952780002262,None,154.4678186000092,158.9752684000414,158.95871000003535,None,159.37625470000785,160.3768124000053,159.37625470000785,160.3768124000053,159.37625470000785,160.3768124000053,159.37625470000785,160.3768124000053,None,1,,159.37625470000785,None,159.37625470000785,None,159.37625470000785,159.87630200001877,159.37625470000785,159.87630200001877,159.37625470000785,159.87630200001877,159.37625470000785,159.87630200001877,159.37625470000785,None,,,,,,,,,,,,,,,,,,,,,,,,,,,,,,,,,,,,,,,,,,11011,001,2024_Jan_02_1036,nback,2021.2.3,60.0090973715877,
1-back,instructions\back-1.png,conditions\1back-p.xlsx,instructions\1-BACK.png,"(25, 15)",practice,1,2,stim\gray.png,stim\yellow.png,stim\gray.png,stim\gray.png,up,0,0,0,0,0,1,1,1,0,1,1,1,,,,,,,,,,,,,,,,,,,,,,,,,,,160.86122400005115,161.86439320002683,160.86122400005115,161.86439320002683,160.86122400005115,161.86439320002683,160.86122400005115,161.86439320002683,up,1,1.0787835999508388,160.86122400005115,None,160.86122400005115,None,160.86122400005115,161.3621136000147,160.86122400005115,161.3621136000147,160.86122400005115,161.3621136000147,160.86122400005115,161.3621136000147,160.86122400005115,None,,,,,,,,,,,,,,,,,,,,,,,,,,,,,,,,,,,,,,,,,,11011,001,2024_Jan_02_1036,nback,2021.2.3,60.0090973715877,
1-back,instructions\back-1.png,conditions\1back-p.xlsx,instructions\1-BACK.png,"(25, 15)",practice,1,3,stim\gray.png,stim\gray.png,stim\yellow.png,stim\gray.png,left,0,0,0,0,0,1,1,1,0,2,2,2,,,,,,,,,,,,,,,,,,,,,,,,,,,162.36311710003065,163.36511880002217,162.36311710003065,163.36511880002217,162.36311710003065,163.36511880002217,162.36311710003065,163.36511880002217,left,1,1.0731175999972038,162.36311710003065,None,162.36311710003065,None,162.36311710003065,162.86464050004724,162.36311710003065,162.86464050004724,162.36311710003065,162.86464050004724,162.36311710003065,162.86464050004724,162.36311710003065,None,,,,,,,,,,,,,,,,,,,,,,,,,,,,,,,,,,,,,,,,,,11011,001,2024_Jan_02_1036,nback,2021.2.3,60.0090973715877,
1-back,instructions\back-1.png,conditions\1back-p.xlsx,instructions\1-BACK.png,"(25, 15)",practice,1,4,stim\gray.png,stim\gray.png,stim\gray.png,stim\yellow.png,right,0,0,0,0,0,1,1,1,0,3,3,3,,,,,,,,,,,,,,,,,,,,,,,,,,,163.86534600000596,164.86745610000798,163.86534600000596,164.86745610000798,163.86534600000596,164.86745610000798,163.86534600000596,164.86745610000798,right,1,0.8586853999877349,163.86534600000596,None,163.86534600000596,None,163.86534600000596,164.36631420004414,163.86534600000596,164.36631420004414,163.86534600000596,164.36631420004414,163.86534600000596,164.36631420004414,163.86534600000596,None,,,,,,,,,,,,,,,,,,,,,,,,,,,,,,,,,,,,,,,,,,11011,001,2024_Jan_02_1036,nback,2021.2.3,60.0090973715877,
1-back,instructions\back-1.png,conditions\1back-p.xlsx,instructions\1-BACK.png,"(25, 15)",practice,1,2,stim\gray.png,stim\yellow.png,stim\gray.png,stim\gray.png,down,0,0,0,0,0,1,1,1,0,4,4,4,,,,,,,,,,,,,,,,,,,,,,,,,,,165.3673849000479,166.3691080000135,165.3673849000479,166.3691080000135,165.3673849000479,166.3691080000135,165.3673849000479,166.3691080000135,down,1,1.1566816000267863,165.3673849000479,None,165.3673849000479,None,165.3673849000479,165.86838350002654,165.3673849000479,165.86838350002654,165.3673849000479,165.86838350002654,165.3673849000479,165.86838350002654,165.3673849000479,None,,,,,,,,,,,,,,,,,,,,,,,,,,,,,,,,,,,,,,,,,,11011,001,2024_Jan_02_1036,nback,2021.2.3,60.0090973715877,
1-back,instructions\back-1.png,conditions\1back-p.xlsx,instructions\1-BACK.png,"(25, 15)",practice,1,1,stim\yellow.png,stim\gray.png,stim\gray.png,stim\gray.png,left,0,0,0,0,0,1,1,1,0,5,5,5,,,,,,,,,,,,,,,,,,,,,,,,,,,166.87034459999995,167.8712912000483,166.87034459999995,167.8712912000483,166.87034459999995,167.8712912000483,166.87034459999995,167.8712912000483,left,1,0.9417887000017799,166.87034459999995,None,166.87034459999995,None,166.87034459999995,167.3705799000454,166.87034459999995,167.3705799000454,166.87034459999995,167.3705799000454,166.87034459999995,167.3705799000454,166.87034459999995,None,,,,,,,,,,,,,,,,,,,,,,,,,,,,,,,,,,,,,,,,,,11011,001,2024_Jan_02_1036,nback,2021.2.3,60.0090973715877,
1-back,instructions\back-1.png,conditions\1back-p.xlsx,instructions\1-BACK.png,"(25, 15)",practice,1,4,stim\gray.png,stim\gray.png,stim\gray.png,stim\yellow.png,up,0,0,0,0,0,1,1,1,0,6,6,6,,,,,,,,,,,,,,,,,,,,,,,,,,,168.37215629999992,169.37375520000933,168.37215629999992,169.37375520000933,168.37215629999992,169.37375520000933,168.37215629999992,169.37375520000933,up,1,0.8161643999628723,168.37215629999992,None,168.37215629999992,None,168.37215629999992,168.873377800046,168.37215629999992,168.873377800046,168.37215629999992,168.873377800046,168.37215629999992,168.873377800046,168.37215629999992,None,,,,,,,,,,,,,,,,,,,,,,,,,,,,,,,,,,,,,,,,,,11011,001,2024_Jan_02_1036,nback,2021.2.3,60.0090973715877,
1-back,instructions\back-1.png,conditions\1back-p.xlsx,instructions\1-BACK.png,"(25, 15)",practice,1,3,stim\gray.png,stim\gray.png,stim\yellow.png,stim\gray.png,down,0,0,0,0,0,1,1,1,0,7,7,7,,,,,,,,,,,,,,,,,,,,,,,,,,,169.8579238000093,170.8594229000155,169.8579238000093,170.8594229000155,169.8579238000093,170.8594229000155,169.8579238000093,170.8594229000155,down,1,0.9302497999742627,169.8579238000093,None,169.8579238000093,None,169.8579238000093,170.35907500004396,169.8579238000093,170.35907500004396,169.8579238000093,170.35907500004396,169.8579238000093,170.35907500004396,169.8579238000093,None,,,,,,,,,,,,,,,,,,,,,,,,,,,,,,,,,,,,,,,,,,11011,001,2024_Jan_02_1036,nback,2021.2.3,60.0090973715877,
1-back,instructions\back-1.png,conditions\1back-p.xlsx,instructions\1-BACK.png,"(25, 15)",practice,1,3,stim\gray.png,stim\gray.png,stim\yellow.png,stim\gray.png,right,0,0,0,0,0,1,1,1,0,8,8,8,,,,,,,,,,,,,,,,,,,,,,,,,,,171.35966810001992,172.3615703000105,171.35966810001992,172.3615703000105,171.35966810001992,172.3615703000105,171.35966810001992,172.3615703000105,down,0,1.3244602999766357,171.35966810001992,None,171.35966810001992,None,171.35966810001992,171.8617196000414,171.35966810001992,171.8617196000414,171.35966810001992,171.8617196000414,171.35966810001992,171.8617196000414,171.35966810001992,None,,,,,,,,,,,,,,,,,,,,,,,,,,,,,,,,,,,,,,,,,,11011,001,2024_Jan_02_1036,nback,2021.2.3,60.0090973715877,
1-back,instructions\back-1.png,conditions\1back-p.xlsx,instructions\1-BACK.png,"(25, 15)",practice,1,4,stim\gray.png,stim\gray.png,stim\gray.png,stim\yellow.png,right,0,0,0,0,0,1,1,1,0,9,9,9,,,,,,,,,,,,,,,,,,,,,,,,,,,172.8618950000382,173.86403810000047,172.8618950000382,173.86403810000047,172.8618950000382,173.86403810000047,172.8618950000382,173.86403810000047,right,1,1.1819976999540813,172.8618950000382,None,172.8618950000382,None,172.8618950000382,173.36272820003796,172.8618950000382,173.36272820003796,172.8618950000382,173.36272820003796,172.8618950000382,173.36272820003796,172.8618950000382,None,,,,,,,,,,,,,,,,,,,,,,,,,,,,,,,,,,,,,,,,,,11011,001,2024_Jan_02_1036,nback,2021.2.3,60.0090973715877,
1-back,instructions\back-1.png,conditions\1back-p.xlsx,instructions\1-BACK.png,"(25, 15)",practice,1,1,stim\yellow.png,stim\gray.png,stim\gray.png,stim\gray.png,down,0,0,0,0,0,1,1,1,0,10,10,10,,,,,,,,,,,,,,,,,,,,,,,,,,,174.36442910000915,175.36665750003885,174.36442910000915,175.36665750003885,174.36442910000915,175.36665750003885,174.36442910000915,175.36665750003885,down,1,0.8321927000069991,174.36442910000915,None,174.36442910000915,None,174.36442910000915,174.86511340003926,174.36442910000915,174.86511340003926,174.36442910000915,174.86511340003926,174.36442910000915,174.86511340003926,174.36442910000915,None,,,,,,,,,,,,,,,,,,,,,,,,,,,,,,,,,,,,,,,,,,11011,001,2024_Jan_02_1036,nback,2021.2.3,60.0090973715877,
1-back,instructions\back-1.png,conditions\1back-p.xlsx,instructions\1-BACK.png,"(25, 15)",practice,1,2,stim\gray.png,stim\yellow.png,stim\gray.png,stim\gray.png,up,0,0,0,0,0,1,1,1,0,11,11,11,,,,,,,,,,,,,,,,,,,,,,,,,,,175.86696040001698,176.86790140002267,175.86696040001698,176.86790140002267,175.86696040001698,176.86790140002267,175.86696040001698,176.86790140002267,up,1,1.0410026999888942,175.86696040001698,None,175.86696040001698,None,175.86696040001698,176.3672434000182,175.86696040001698,176.3672434000182,175.86696040001698,176.3672434000182,175.86696040001698,176.3672434000182,175.86696040001698,None,,,,,,,,,,,,,,,,,,,,,,,,,,,,,,,,,,,,,,,,,,11011,001,2024_Jan_02_1036,nback,2021.2.3,60.0090973715877,
1-back,instructions\back-1.png,conditions\1back-p.xlsx,instructions\1-BACK.png,"(25, 15)",practice,1,4,stim\gray.png,stim\gray.png,stim\gray.png,stim\yellow.png,left,0,0,0,0,0,1,1,1,0,12,12,12,,,,,,,,,,,,,,,,,,,,,,,,,,,177.36873740004376,178.3704094000277,177.36873740004376,178.3704094000277,177.36873740004376,178.3704094000277,177.36873740004376,178.3704094000277,left,1,0.8432355000404641,177.36873740004376,None,177.36873740004376,None,177.36873740004376,177.87003290001303,177.36873740004376,177.87003290001303,177.36873740004376,177.87003290001303,177.36873740004376,177.87003290001303,177.36873740004376,None,,,,,,,,,,,,,,,,,,,,,,,,,,,,,,,,,,,,,,,,,,11011,001,2024_Jan_02_1036,nback,2021.2.3,60.0090973715877,
1-back,instructions\back-1.png,conditions\1back-p.xlsx,instructions\1-BACK.png,"(25, 15)",practice,1,3,stim\gray.png,stim\gray.png,stim\yellow.png,stim\gray.png,down,0,0,0,0,0,1,1,1,0,13,13,13,,,,,,,,,,,,,,,,,,,,,,,,,,,178.87072210002225,179.87279520003358,178.87072210002225,179.87279520003358,178.87072210002225,179.87279520003358,178.87072210002225,179.87279520003358,down,1,0.702231600007508,178.87072210002225,None,178.87072210002225,None,178.87072210002225,179.37232670001686,178.87072210002225,179.37232670001686,178.87072210002225,179.37232670001686,178.87072210002225,179.37232670001686,178.87072210002225,None,,,,,,,,,,,,,,,,,,,,,,,,,,,,,,,,,,,,,,,,,,11011,001,2024_Jan_02_1036,nback,2021.2.3,60.0090973715877,
1-back,instructions\back-1.png,conditions\1back-p.xlsx,instructions\1-BACK.png,"(25, 15)",practice,1,1,stim\yellow.png,stim\gray.png,stim\gray.png,stim\gray.png,right,0,0,0,0,0,1,1,1,0,14,14,14,,,,,,,,,,,,,,,,,,,,,,,,,,,180.356386200001,181.35818340000696,180.356386200001,181.35818340000696,180.356386200001,181.35818340000696,180.356386200001,181.35818340000696,right,1,0.6557918000034988,180.356386200001,None,180.356386200001,None,180.356386200001,180.85770610003965,180.356386200001,180.85770610003965,180.356386200001,180.85770610003965,180.356386200001,180.85770610003965,180.356386200001,None,,,,,,,,,,,,,,,,,,,,,,,,,,,,,,,,,,,,,,,,,,11011,001,2024_Jan_02_1036,nback,2021.2.3,60.0090973715877,
1-back,instructions\back-1.png,conditions\1back-p.xlsx,instructions\1-BACK.png,"(25, 15)",practice,1,2,stim\gray.png,stim\yellow.png,stim\gray.png,stim\gray.png,up,0,0,0,0,0,1,1,1,0,15,15,15,,,,,,,,,,,,,,,,,,,,,,,,,,,181.85858800000278,182.8604151000036,181.85858800000278,182.8604151000036,181.85858800000278,182.8604151000036,181.85858800000278,182.8604151000036,up,1,1.0819058999768458,181.85858800000278,None,181.85858800000278,None,181.85858800000278,182.36007660004543,181.85858800000278,182.36007660004543,181.85858800000278,182.36007660004543,181.85858800000278,182.36007660004543,181.85858800000278,None,,,,,,,,,,,,,,,,,,,,,,,,,,,,,,,,,,,,,,,,,,11011,001,2024_Jan_02_1036,nback,2021.2.3,60.0090973715877,
1-back,instructions\back-1.png,conditions\1back-p.xlsx,instructions\1-BACK.png,"(25, 15)",practice,1,3,stim\gray.png,stim\gray.png,stim\yellow.png,stim\gray.png,left,0,0,0,0,0,1,1,1,0,16,16,16,,,,,,,,,,,,,,,,,,,,,,,,,,,183.36082330002682,184.36304260004545,183.36082330002682,184.36304260004545,183.36082330002682,184.36304260004545,183.36082330002682,184.36304260004545,left,1,1.0110935000120662,183.36082330002682,None,183.36082330002682,None,183.36082330002682,183.8615118000307,183.36082330002682,183.8615118000307,183.36082330002682,183.8615118000307,183.36082330002682,183.8615118000307,183.36082330002682,None,,,,,,,,,,,,,,,,,,,,,,,,,,,,,,,,,,,,,,,,,,11011,001,2024_Jan_02_1036,nback,2021.2.3,60.0090973715877,
1-back,instructions\back-1.png,conditions\1back-p.xlsx,instructions\1-BACK.png,"(25, 15)",practice,1,1,stim\yellow.png,stim\gray.png,stim\gray.png,stim\gray.png,right,0,0,0,0,0,1,1,1,0,17,17,17,,,,,,,,,,,,,,,,,,,,,,,,,,,184.86360150005203,185.86475380003685,184.86360150005203,185.86475380003685,184.86360150005203,185.86475380003685,184.86360150005203,185.86475380003685,right,1,1.0289278000127524,184.86360150005203,None,184.86360150005203,None,184.86360150005203,185.36427900003036,184.86360150005203,185.36427900003036,184.86360150005203,185.36427900003036,184.86360150005203,185.36427900003036,184.86360150005203,None,,,,,,,,,,,,,,,,,,,,,,,,,,,,,,,,,,,,,,,,,,11011,001,2024_Jan_02_1036,nback,2021.2.3,60.0090973715877,
1-back,instructions\back-1.png,conditions\1back-p.xlsx,instructions\1-BACK.png,"(25, 15)",practice,1,4,stim\gray.png,stim\gray.png,stim\gray.png,stim\yellow.png,up,0,0,0,0,0,1,1,1,0,18,18,18,,,,,,,,,,,,,,,,,,,,,,,,,,,186.36512630002107,187.36695240001427,186.36512630002107,187.36695240001427,186.36512630002107,187.36695240001427,186.36512630002107,187.36695240001427,up,1,0.8472305000177585,186.36512630002107,None,186.36512630002107,None,186.36512630002107,186.86618490004912,186.36512630002107,186.86618490004912,186.36512630002107,186.86618490004912,186.36512630002107,186.86618490004912,186.36512630002107,None,,,,,,,,,,,,,,,,,,,,,,,,,,,,,,,,,,,,,,,,,,11011,001,2024_Jan_02_1036,nback,2021.2.3,60.0090973715877,
1-back,instructions\back-1.png,conditions\1back-p.xlsx,instructions\1-BACK.png,"(25, 15)",practice,1,2,stim\gray.png,stim\yellow.png,stim\gray.png,stim\gray.png,down,0,0,0,0,0,1,1,1,0,19,19,19,,,,,,,,,,,,,,,,,,,,,,,,,,,187.86810940003488,188.86970690003363,187.86810940003488,188.86970690003363,187.86810940003488,188.86970690003363,187.86810940003488,188.86970690003363,down,1,1.264069099968765,187.86810940003488,None,187.86810940003488,None,187.86810940003488,188.3683246000437,187.86810940003488,188.3683246000437,187.86810940003488,188.3683246000437,187.86810940003488,188.3683246000437,187.86810940003488,None,,,,,,,,,,,,,,,,,,,,,,,,,,,,,,,,,,,,,,,,,,11011,001,2024_Jan_02_1036,nback,2021.2.3,60.0090973715877,
1-back,instructions\back-1.png,conditions\1back-p.xlsx,instructions\1-BACK.png,"(25, 15)",,,,,,,,,0,0,0,0,0,1,1,1,,,,,,,,,,,,,,,,,,,,,,,,,,,,,,,,,,,,,,,,,,,,,,,,,,,,,,,,,,,,,,,,,,,,,,,,,,,,,,,,,,,,,,,,,,,,,,,,,11011,001,2024_Jan_02_1036,nback,2021.2.3,60.0090973715877,
2-back,instructions\back-2.png,conditions\2back-p.xlsx,instructions\2-BACK.png,"(25, 15)",practice,2,1,stim\yellow.png,stim\gray.png,stim\gray.png,stim\gray.png,None,0,0,0,0,0,2,2,2,0,0,0,0,,,,,,,,,,,,,,,,,189.503984400013,None,space,54.24453009996796,189.503984400013,None,243.9172526000184,248.42581470002187,248.37455950002186,None,248.79279320000205,249.79272190004122,248.79279320000205,249.79272190004122,248.79279320000205,249.79272190004122,248.79279320000205,249.79272190004122,None,1,,248.79279320000205,None,248.79279320000205,None,248.79279320000205,249.29294450004818,248.79279320000205,249.29294450004818,248.79279320000205,249.29294450004818,248.79279320000205,249.29294450004818,248.79279320000205,None,,,,,,,,,,,,,,,,,,,,,,,,,,,,,,,,,,,,,,,,,,11011,001,2024_Jan_02_1036,nback,2021.2.3,60.0090973715877,
2-back,instructions\back-2.png,conditions\2back-p.xlsx,instructions\2-BACK.png,"(25, 15)",practice,2,2,stim\gray.png,stim\yellow.png,stim\gray.png,stim\gray.png,None,0,0,0,0,0,2,2,2,0,1,1,1,,,,,,,,,,,,,,,,,,,,,,,,,,,250.27707100001862,251.2788992000278,250.27707100001862,251.2788992000278,250.27707100001862,251.2788992000278,250.27707100001862,251.2788992000278,None,1,,250.27707100001862,None,250.27707100001862,None,250.27707100001862,250.7785321000265,250.27707100001862,250.7785321000265,250.27707100001862,250.7785321000265,250.27707100001862,250.7785321000265,250.27707100001862,None,,,,,,,,,,,,,,,,,,,,,,,,,,,,,,,,,,,,,,,,,,11011,001,2024_Jan_02_1036,nback,2021.2.3,60.0090973715877,
2-back,instructions\back-2.png,conditions\2back-p.xlsx,instructions\2-BACK.png,"(25, 15)",practice,2,3,stim\gray.png,stim\gray.png,stim\yellow.png,stim\gray.png,up,0,0,0,0,0,2,2,2,0,2,2,2,,,,,,,,,,,,,,,,,,,,,,,,,,,251.7788917000289,252.78143150004325,251.7788917000289,252.78143150004325,251.7788917000289,252.78143150004325,251.7788917000289,252.78143150004325,up,1,0.9136839000275359,251.7788917000289,None,251.7788917000289,None,251.7788917000289,252.28024000005098,251.7788917000289,252.28024000005098,251.7788917000289,252.28024000005098,251.7788917000289,252.28024000005098,251.7788917000289,None,,,,,,,,,,,,,,,,,,,,,,,,,,,,,,,,,,,,,,,,,,11011,001,2024_Jan_02_1036,nback,2021.2.3,60.0090973715877,
2-back,instructions\back-2.png,conditions\2back-p.xlsx,instructions\2-BACK.png,"(25, 15)",practice,2,4,stim\gray.png,stim\gray.png,stim\gray.png,stim\yellow.png,left,0,0,0,0,0,2,2,2,0,3,3,3,,,,,,,,,,,,,,,,,,,,,,,,,,,253.28189110005042,254.28247550001834,253.28189110005042,254.28247550001834,253.28189110005042,254.28247550001834,253.28189110005042,254.28247550001834,left,1,0.9700212000170723,253.28189110005042,None,253.28189110005042,None,253.28189110005042,253.78257670003222,253.28189110005042,253.78257670003222,253.28189110005042,253.78257670003222,253.28189110005042,253.78257670003222,253.28189110005042,None,,,,,,,,,,,,,,,,,,,,,,,,,,,,,,,,,,,,,,,,,,11011,001,2024_Jan_02_1036,nback,2021.2.3,60.0090973715877,
2-back,instructions\back-2.png,conditions\2back-p.xlsx,instructions\2-BACK.png,"(25, 15)",practice,2,2,stim\gray.png,stim\yellow.png,stim\gray.png,stim\gray.png,right,0,0,0,0,0,2,2,2,0,4,4,4,,,,,,,,,,,,,,,,,,,,,,,,,,,254.7834073000122,255.78561120002996,254.7834073000122,255.78561120002996,254.7834073000122,255.78561120002996,254.7834073000122,255.78561120002996,right,1,1.0369842000072822,254.7834073000122,None,254.7834073000122,None,254.7834073000122,255.28411920001963,254.7834073000122,255.28411920001963,254.7834073000122,255.28411920001963,254.7834073000122,255.28411920001963,254.7834073000122,None,,,,,,,,,,,,,,,,,,,,,,,,,,,,,,,,,,,,,,,,,,11011,001,2024_Jan_02_1036,nback,2021.2.3,60.0090973715877,
2-back,instructions\back-2.png,conditions\2back-p.xlsx,instructions\2-BACK.png,"(25, 15)",practice,2,1,stim\yellow.png,stim\gray.png,stim\gray.png,stim\gray.png,down,0,0,0,0,0,2,2,2,0,5,5,5,,,,,,,,,,,,,,,,,,,,,,,,,,,256.2854771000566,257.2878675000393,256.2854771000566,257.2878675000393,256.2854771000566,257.2878675000393,256.2854771000566,257.2878675000393,down,1,1.367211899952963,256.2854771000566,None,256.2854771000566,None,256.2854771000566,256.786461300042,256.2854771000566,256.786461300042,256.2854771000566,256.786461300042,256.2854771000566,256.786461300042,256.2854771000566,None,,,,,,,,,,,,,,,,,,,,,,,,,,,,,,,,,,,,,,,,,,11011,001,2024_Jan_02_1036,nback,2021.2.3,60.0090973715877,
2-back,instructions\back-2.png,conditions\2back-p.xlsx,instructions\2-BACK.png,"(25, 15)",practice,2,4,stim\gray.png,stim\gray.png,stim\gray.png,stim\yellow.png,left,0,0,0,0,0,2,2,2,0,6,6,6,,,,,,,,,,,,,,,,,,,,,,,,,,,257.7710673000547,258.7735744000529,257.7710673000547,258.7735744000529,257.7710673000547,258.7735744000529,257.7710673000547,258.7735744000529,left,1,1.1610005999682471,257.7710673000547,None,257.7710673000547,None,257.7710673000547,258.27167700004065,257.7710673000547,258.27167700004065,257.7710673000547,258.27167700004065,257.7710673000547,258.27167700004065,257.7710673000547,None,,,,,,,,,,,,,,,,,,,,,,,,,,,,,,,,,,,,,,,,,,11011,001,2024_Jan_02_1036,nback,2021.2.3,60.0090973715877,
2-back,instructions\back-2.png,conditions\2back-p.xlsx,instructions\2-BACK.png,"(25, 15)",practice,2,3,stim\gray.png,stim\gray.png,stim\yellow.png,stim\gray.png,up,0,0,0,0,0,2,2,2,0,7,7,7,,,,,,,,,,,,,,,,,,,,,,,,,,,259.27330360002816,260.27474710001843,259.27330360002816,260.27474710001843,259.27330360002816,260.27474710001843,259.27330360002816,260.27474710001843,down,0,1.0108181000105105,259.27330360002816,None,259.27330360002816,None,259.27330360002816,259.77439600002253,259.27330360002816,259.77439600002253,259.27330360002816,259.77439600002253,259.27330360002816,259.77439600002253,259.27330360002816,None,,,,,,,,,,,,,,,,,,,,,,,,,,,,,,,,,,,,,,,,,,11011,001,2024_Jan_02_1036,nback,2021.2.3,60.0090973715877,
2-back,instructions\back-2.png,conditions\2back-p.xlsx,instructions\2-BACK.png,"(25, 15)",practice,2,3,stim\gray.png,stim\gray.png,stim\yellow.png,stim\gray.png,down,0,0,0,0,0,2,2,2,0,8,8,8,,,,,,,,,,,,,,,,,,,,,,,,,,,260.7762990000192,261.7779694000492,260.7762990000192,261.7779694000492,260.7762990000192,261.7779694000492,260.7762990000192,261.7779694000492,up,0,0.9323960999608971,260.7762990000192,None,260.7762990000192,None,260.7762990000192,261.27770270005567,260.7762990000192,261.27770270005567,260.7762990000192,261.27770270005567,260.7762990000192,261.27770270005567,260.7762990000192,None,,,,,,,,,,,,,,,,,,,,,,,,,,,,,,,,,,,,,,,,,,11011,001,2024_Jan_02_1036,nback,2021.2.3,60.0090973715877,
2-back,instructions\back-2.png,conditions\2back-p.xlsx,instructions\2-BACK.png,"(25, 15)",practice,2,4,stim\gray.png,stim\gray.png,stim\gray.png,stim\yellow.png,right,0,0,0,0,0,2,2,2,0,9,9,9,,,,,,,,,,,,,,,,,,,,,,,,,,,262.2781186000211,263.2796073000063,262.2781186000211,263.2796073000063,262.2781186000211,263.2796073000063,262.2781186000211,263.2796073000063,right,1,1.0309302000096068,262.2781186000211,None,262.2781186000211,None,262.2781186000211,262.7785936000291,262.2781186000211,262.7785936000291,262.2781186000211,262.7785936000291,262.2781186000211,262.7785936000291,262.2781186000211,None,,,,,,,,,,,,,,,,,,,,,,,,,,,,,,,,,,,,,,,,,,11011,001,2024_Jan_02_1036,nback,2021.2.3,60.0090973715877,
2-back,instructions\back-2.png,conditions\2back-p.xlsx,instructions\2-BACK.png,"(25, 15)",practice,2,1,stim\yellow.png,stim\gray.png,stim\gray.png,stim\gray.png,right,0,0,0,0,0,2,2,2,0,10,10,10,,,,,,,,,,,,,,,,,,,,,,,,,,,263.78118230000837,264.78143180004554,263.78118230000837,264.78143180004554,263.78118230000837,264.78143180004554,263.78118230000837,264.78143180004554,None,0,,263.78118230000837,None,263.78118230000837,None,263.78118230000837,264.2808291000547,263.78118230000837,264.2808291000547,263.78118230000837,264.2808291000547,263.78118230000837,264.2808291000547,263.78118230000837,None,,,,,,,,,,,,,,,,,,,,,,,,,,,,,,,,,,,,,,,,,,11011,001,2024_Jan_02_1036,nback,2021.2.3,60.0090973715877,
2-back,instructions\back-2.png,conditions\2back-p.xlsx,instructions\2-BACK.png,"(25, 15)",practice,2,2,stim\gray.png,stim\yellow.png,stim\gray.png,stim\gray.png,down,0,0,0,0,0,2,2,2,0,11,11,11,,,,,,,,,,,,,,,,,,,,,,,,,,,265.28328920004424,266.2841262000147,265.28328920004424,266.2841262000147,265.28328920004424,266.2841262000147,265.28328920004424,266.2841262000147,left,0,0.2889248999999836,265.28328920004424,None,265.28328920004424,None,265.28328920004424,265.7829944000114,265.28328920004424,265.7829944000114,265.28328920004424,265.7829944000114,265.28328920004424,265.7829944000114,265.28328920004424,None,,,,,,,,,,,,,,,,,,,,,,,,,,,,,,,,,,,,,,,,,,11011,001,2024_Jan_02_1036,nback,2021.2.3,60.0090973715877,
2-back,instructions\back-2.png,conditions\2back-p.xlsx,instructions\2-BACK.png,"(25, 15)",practice,2,4,stim\gray.png,stim\gray.png,stim\gray.png,stim\yellow.png,up,0,0,0,0,0,2,2,2,0,12,12,12,,,,,,,,,,,,,,,,,,,,,,,,,,,266.78448730002856,267.7858545000199,266.78448730002856,267.7858545000199,266.78448730002856,267.7858545000199,266.78448730002856,267.7858545000199,None,0,,266.78448730002856,None,266.78448730002856,None,266.78448730002856,267.2861868000473,266.78448730002856,267.2861868000473,266.78448730002856,267.2861868000473,266.78448730002856,267.2861868000473,266.78448730002856,None,,,,,,,,,,,,,,,,,,,,,,,,,,,,,,,,,,,,,,,,,,11011,001,2024_Jan_02_1036,nback,2021.2.3,60.0090973715877,
2-back,instructions\back-2.png,conditions\2back-p.xlsx,instructions\2-BACK.png,"(25, 15)",practice,2,3,stim\gray.png,stim\gray.png,stim\yellow.png,stim\gray.png,left,0,0,0,0,0,2,2,2,0,13,13,13,,,,,,,,,,,,,,,,,,,,,,,,,,,268.28670799999963,269.28826600004686,268.28670799999963,269.28826600004686,268.28670799999963,269.28826600004686,268.28670799999963,269.28826600004686,right,0,0.40549340000143275,268.28670799999963,None,268.28670799999963,None,268.28670799999963,268.7878726000199,268.28670799999963,268.7878726000199,268.28670799999963,268.7878726000199,268.28670799999963,268.7878726000199,268.28670799999963,None,,,,,,,,,,,,,,,,,,,,,,,,,,,,,,,,,,,,,,,,,,11011,001,2024_Jan_02_1036,nback,2021.2.3,60.0090973715877,
2-back,instructions\back-2.png,conditions\2back-p.xlsx,instructions\2-BACK.png,"(25, 15)",practice,2,1,stim\yellow.png,stim\gray.png,stim\gray.png,stim\gray.png,down,0,0,0,0,0,2,2,2,0,14,14,14,,,,,,,,,,,,,,,,,,,,,,,,,,,269.7722787000239,270.7748709000298,269.7722787000239,270.7748709000298,269.7722787000239,270.7748709000298,269.7722787000239,270.7748709000298,None,0,,269.7722787000239,None,269.7722787000239,None,269.7722787000239,270.2735878000385,269.7722787000239,270.2735878000385,269.7722787000239,270.2735878000385,269.7722787000239,270.2735878000385,269.7722787000239,None,,,,,,,,,,,,,,,,,,,,,,,,,,,,,,,,,,,,,,,,,,11011,001,2024_Jan_02_1036,nback,2021.2.3,60.0090973715877,
2-back,instructions\back-2.png,conditions\2back-p.xlsx,instructions\2-BACK.png,"(25, 15)",practice,2,2,stim\gray.png,stim\yellow.png,stim\gray.png,stim\gray.png,right,0,0,0,0,0,2,2,2,0,15,15,15,,,,,,,,,,,,,,,,,,,,,,,,,,,271.2751335000503,272.2762512000045,271.2751335000503,272.2762512000045,271.2751335000503,272.2762512000045,271.2751335000503,272.2762512000045,None,0,,271.2751335000503,None,271.2751335000503,None,271.2751335000503,271.775961700012,271.2751335000503,271.775961700012,271.2751335000503,271.775961700012,271.2751335000503,271.775961700012,271.2751335000503,None,,,,,,,,,,,,,,,,,,,,,,,,,,,,,,,,,,,,,,,,,,11011,001,2024_Jan_02_1036,nback,2021.2.3,60.0090973715877,
2-back,instructions\back-2.png,conditions\2back-p.xlsx,instructions\2-BACK.png,"(25, 15)",practice,2,3,stim\gray.png,stim\gray.png,stim\yellow.png,stim\gray.png,up,0,0,0,0,0,2,2,2,0,16,16,16,,,,,,,,,,,,,,,,,,,,,,,,,,,272.7774395000306,273.7788617000333,272.7774395000306,273.7788617000333,272.7774395000306,273.7788617000333,272.7774395000306,273.7788617000333,up,1,0.2186074000201188,272.7774395000306,None,272.7774395000306,None,272.7774395000306,273.2782420000294,272.7774395000306,273.2782420000294,272.7774395000306,273.2782420000294,272.7774395000306,273.2782420000294,272.7774395000306,None,,,,,,,,,,,,,,,,,,,,,,,,,,,,,,,,,,,,,,,,,,11011,001,2024_Jan_02_1036,nback,2021.2.3,60.0090973715877,
2-back,instructions\back-2.png,conditions\2back-p.xlsx,instructions\2-BACK.png,"(25, 15)",practice,2,1,stim\yellow.png,stim\gray.png,stim\gray.png,stim\gray.png,left,0,0,0,0,0,2,2,2,0,17,17,17,,,,,,,,,,,,,,,,,,,,,,,,,,,274.2795238000108,275.2811287000077,274.2795238000108,275.2811287000077,274.2795238000108,275.2811287000077,274.2795238000108,275.2811287000077,left,1,0.6765699999523349,274.2795238000108,None,274.2795238000108,None,274.2795238000108,274.78101130004507,274.2795238000108,274.78101130004507,274.2795238000108,274.78101130004507,274.2795238000108,274.78101130004507,274.2795238000108,None,,,,,,,,,,,,,,,,,,,,,,,,,,,,,,,,,,,,,,,,,,11011,001,2024_Jan_02_1036,nback,2021.2.3,60.0090973715877,
2-back,instructions\back-2.png,conditions\2back-p.xlsx,instructions\2-BACK.png,"(25, 15)",practice,2,4,stim\gray.png,stim\gray.png,stim\gray.png,stim\yellow.png,right,0,0,0,0,0,2,2,2,0,18,18,18,,,,,,,,,,,,,,,,,,,,,,,,,,,275.78171629999997,276.78311660001054,275.78171629999997,276.78311660001054,275.78171629999997,276.78311660001054,275.78171629999997,276.78311660001054,right,1,0.5515234999475069,275.78171629999997,None,275.78171629999997,None,275.78171629999997,276.2820489000296,275.78171629999997,276.2820489000296,275.78171629999997,276.2820489000296,275.78171629999997,276.2820489000296,275.78171629999997,None,,,,,,,,,,,,,,,,,,,,,,,,,,,,,,,,,,,,,,,,,,11011,001,2024_Jan_02_1036,nback,2021.2.3,60.0090973715877,
2-back,instructions\back-2.png,conditions\2back-p.xlsx,instructions\2-BACK.png,"(25, 15)",practice,2,2,stim\gray.png,stim\yellow.png,stim\gray.png,stim\gray.png,up,0,0,0,0,0,2,2,2,0,19,19,19,,,,,,,,,,,,,,,,,,,,,,,,,,,277.283557900053,278.2857845000108,277.283557900053,278.2857845000108,277.283557900053,278.2857845000108,277.283557900053,278.2857845000108,up,1,0.39251380000496283,277.283557900053,None,277.283557900053,None,277.283557900053,277.7847040000488,277.283557900053,277.7847040000488,277.283557900053,277.7847040000488,277.283557900053,277.7847040000488,277.283557900053,None,,,,,,,,,,,,,,,,,,,,,,,,,,,,,,,,,,,,,,,,,,11011,001,2024_Jan_02_1036,nback,2021.2.3,60.0090973715877,
2-back,instructions\back-2.png,conditions\2back-p.xlsx,instructions\2-BACK.png,"(25, 15)",,,,,,,,,0,0,0,0,0,2,2,2,,,,,,,,,,,,,,,,,,,,,,,,,,,,,,,,,,,,,,,,,,,,,,,,,,,,,,,,,,,,,,,,,,,,,,,,,,,,,,,,,,,,,,,,,,,,,,,,,11011,001,2024_Jan_02_1036,nback,2021.2.3,60.0090973715877,
,,,,,,,,,,,,,0,0,0,0,,,,,,,,,,,,,,,,,,,,,,,,,,,,,,,,,,,,,,,,,,,,,,,,,,,,,,,,,,,,278.7859694000217,None,space,25.81862799997907,278.7859694000217,None,,,,,,,,,,,,,,,,,,,,,,,,,,,,,,,,,,,,11011,001,2024_Jan_02_1036,nback,2021.2.3,60.0090973715877,
,,,,,,,,,,,,,,,,,,,,,,,,,,,,,,,,,,,,,,,,,,,,,,,,,,,,,,,,,,,,,,,,,,,,,,,,,,,,,,,,,,304.6245149000315,None,space,9.77182119997451,304.6245149000315,None,,,,,,,,,,,,,,,,,,,,,,,,,,,,,,11011,001,2024_Jan_02_1036,nback,2021.2.3,60.0090973715877,
0-back,instructions\back-0.png,conditions\03back-e.xlsx,,,experiment,0,1,stim\yellow.png,stim\gray.png,stim\gray.png,stim\gray.png,up,,,,,,,,,,,,,0,0,0,11,0,0,0,0,,,,,,,,,,,,,,,314.5884301000042,319.09730740002124,319.0296524000005,None,,,,,,,,,,,,,,,,,,,,,,,,,,,,,,,,,,,,,,up,1,0.3904052000143565,319.4459151000483,None,319.4459151000483,None,319.4459151000483,320.44807660003426,319.4459151000483,320.44807660003426,319.4459151000483,320.44807660003426,319.4459151000483,320.44807660003426,319.4459151000483,319.94677620002767,319.4459151000483,319.94677620002767,319.4459151000483,319.94677620002767,319.4459151000483,319.94677620002767,319.4459151000483,None,,,,,11011,001,2024_Jan_02_1036,nback,2021.2.3,60.0090973715877,
0-back,instructions\back-0.png,conditions\03back-e.xlsx,,,experiment,0,2,stim\gray.png,stim\yellow.png,stim\gray.png,stim\gray.png,left,,,,,,,,,,,,,0,0,0,11,0,1,1,1,,,,,,,,,,,,,,,,,,,,,,,,,,,,,,,,,,,,,,,,,,,,,,,,,,,,,,,,left,1,0.39311439997982234,320.9311447000364,None,320.9311447000364,None,320.9311447000364,321.9328595000552,320.9311447000364,321.9328595000552,320.9311447000364,321.9328595000552,320.9311447000364,321.9328595000552,320.9311447000364,321.432191400032,320.9311447000364,321.432191400032,320.9311447000364,321.432191400032,320.9311447000364,321.432191400032,320.9311447000364,None,,,,,11011,001,2024_Jan_02_1036,nback,2021.2.3,60.0090973715877,
0-back,instructions\back-0.png,conditions\03back-e.xlsx,,,experiment,0,4,stim\gray.png,stim\gray.png,stim\gray.png,stim\yellow.png,down,,,,,,,,,,,,,0,0,0,11,0,2,2,2,,,,,,,,,,,,,,,,,,,,,,,,,,,,,,,,,,,,,,,,,,,,,,,,,,,,,,,,down,1,0.5626680999994278,322.43365030002315,None,322.43365030002315,None,322.43365030002315,323.43582360004075,322.43365030002315,323.43582360004075,322.43365030002315,323.43582360004075,322.43365030002315,323.43582360004075,322.43365030002315,322.9345969000133,322.43365030002315,322.9345969000133,322.43365030002315,322.9345969000133,322.43365030002315,322.9345969000133,322.43365030002315,None,,,,,11011,001,2024_Jan_02_1036,nback,2021.2.3,60.0090973715877,
0-back,instructions\back-0.png,conditions\03back-e.xlsx,,,experiment,0,3,stim\gray.png,stim\gray.png,stim\yellow.png,stim\gray.png,right,,,,,,,,,,,,,0,0,0,11,0,3,3,3,,,,,,,,,,,,,,,,,,,,,,,,,,,,,,,,,,,,,,,,,,,,,,,,,,,,,,,,right,1,0.30716470000334084,323.9372405000031,None,323.9372405000031,None,323.9372405000031,324.9375381000573,323.9372405000031,324.9375381000573,323.9372405000031,324.9375381000573,323.9372405000031,324.9375381000573,323.9372405000031,324.4369052000111,323.9372405000031,324.4369052000111,323.9372405000031,324.4369052000111,323.9372405000031,324.4369052000111,323.9372405000031,None,,,,,11011,001,2024_Jan_02_1036,nback,2021.2.3,60.0090973715877,
0-back,instructions\back-0.png,conditions\03back-e.xlsx,,,experiment,0,3,stim\gray.png,stim\gray.png,stim\yellow.png,stim\gray.png,right,,,,,,,,,,,,,0,0,0,11,0,4,4,4,,,,,,,,,,,,,,,,,,,,,,,,,,,,,,,,,,,,,,,,,,,,,,,,,,,,,,,,right,1,0.4464416999835521,325.4378681000089,None,325.4378681000089,None,325.4378681000089,326.44007530005183,325.4378681000089,326.44007530005183,325.4378681000089,326.44007530005183,325.4378681000089,326.44007530005183,325.4378681000089,325.93929570005275,325.4378681000089,325.93929570005275,325.4378681000089,325.93929570005275,325.4378681000089,325.93929570005275,325.4378681000089,None,,,,,11011,001,2024_Jan_02_1036,nback,2021.2.3,60.0090973715877,
0-back,instructions\back-0.png,conditions\03back-e.xlsx,,,experiment,0,1,stim\yellow.png,stim\gray.png,stim\gray.png,stim\gray.png,up,,,,,,,,,,,,,0,0,0,11,0,5,5,5,,,,,,,,,,,,,,,,,,,,,,,,,,,,,,,,,,,,,,,,,,,,,,,,,,,,,,,,up,1,0.32002210000064224,326.94015340000624,None,326.94015340000624,None,326.94015340000624,327.94258260005154,326.94015340000624,327.94258260005154,326.94015340000624,327.94258260005154,326.94015340000624,327.94258260005154,326.94015340000624,327.44115180004155,326.94015340000624,327.44115180004155,326.94015340000624,327.44115180004155,326.94015340000624,327.44115180004155,326.94015340000624,None,,,,,11011,001,2024_Jan_02_1036,nback,2021.2.3,60.0090973715877,
0-back,instructions\back-0.png,conditions\03back-e.xlsx,,,experiment,0,2,stim\gray.png,stim\yellow.png,stim\gray.png,stim\gray.png,left,,,,,,,,,,,,,0,0,0,11,0,6,6,6,,,,,,,,,,,,,,,,,,,,,,,,,,,,,,,,,,,,,,,,,,,,,,,,,,,,,,,,left,1,0.2422616999829188,328.42584220005665,None,328.42584220005665,None,328.42584220005665,329.4270619000308,328.42584220005665,329.4270619000308,328.42584220005665,329.4270619000308,328.42584220005665,329.4270619000308,328.42584220005665,328.9271148000262,328.42584220005665,328.9271148000262,328.42584220005665,328.9271148000262,328.42584220005665,328.9271148000262,328.42584220005665,None,,,,,11011,001,2024_Jan_02_1036,nback,2021.2.3,60.0090973715877,
0-back,instructions\back-0.png,conditions\03back-e.xlsx,,,experiment,0,3,stim\gray.png,stim\gray.png,stim\yellow.png,stim\gray.png,right,,,,,,,,,,,,,0,0,0,11,0,7,7,7,,,,,,,,,,,,,,,,,,,,,,,,,,,,,,,,,,,,,,,,,,,,,,,,,,,,,,,,right,1,0.3319187999586575,329.92870290001156,None,329.92870290001156,None,329.92870290001156,330.9306345000514,329.92870290001156,330.9306345000514,329.92870290001156,330.9306345000514,329.92870290001156,330.9306345000514,329.92870290001156,330.4287501000217,329.92870290001156,330.4287501000217,329.92870290001156,330.4287501000217,329.92870290001156,330.4287501000217,329.92870290001156,None,,,,,11011,001,2024_Jan_02_1036,nback,2021.2.3,60.0090973715877,
0-back,instructions\back-0.png,conditions\03back-e.xlsx,,,experiment,0,4,stim\gray.png,stim\gray.png,stim\gray.png,stim\yellow.png,down,,,,,,,,,,,,,0,0,0,11,0,8,8,8,,,,,,,,,,,,,,,,,,,,,,,,,,,,,,,,,,,,,,,,,,,,,,,,,,,,,,,,down,1,0.4541165999835357,331.43026950000785,None,331.43026950000785,None,331.43026950000785,332.43175460002385,331.43026950000785,332.43175460002385,331.43026950000785,332.43175460002385,331.43026950000785,332.43175460002385,331.43026950000785,331.9310140000307,331.43026950000785,331.9310140000307,331.43026950000785,331.9310140000307,331.43026950000785,331.9310140000307,331.43026950000785,None,,,,,11011,001,2024_Jan_02_1036,nback,2021.2.3,60.0090973715877,
0-back,instructions\back-0.png,conditions\03back-e.xlsx,,,experiment,0,4,stim\gray.png,stim\gray.png,stim\gray.png,stim\yellow.png,down,,,,,,,,,,,,,0,0,0,11,0,9,9,9,,,,,,,,,,,,,,,,,,,,,,,,,,,,,,,,,,,,,,,,,,,,,,,,,,,,,,,,down,1,0.4802118000225164,332.9324153000489,None,332.9324153000489,None,332.9324153000489,333.9340059000533,332.9324153000489,333.9340059000533,332.9324153000489,333.9340059000533,332.9324153000489,333.9340059000533,332.9324153000489,333.4341094000265,332.9324153000489,333.4341094000265,332.9324153000489,333.4341094000265,332.9324153000489,333.4341094000265,332.9324153000489,None,,,,,11011,001,2024_Jan_02_1036,nback,2021.2.3,60.0090973715877,
0-back,instructions\back-0.png,conditions\03back-e.xlsx,,,experiment,0,1,stim\yellow.png,stim\gray.png,stim\gray.png,stim\gray.png,up,,,,,,,,,,,,,0,0,0,11,0,10,10,10,,,,,,,,,,,,,,,,,,,,,,,,,,,,,,,,,,,,,,,,,,,,,,,,,,,,,,,,up,1,0.44060549995629117,334.4354269000469,None,334.4354269000469,None,334.4354269000469,335.4368902000133,334.4354269000469,335.4368902000133,334.4354269000469,335.4368902000133,334.4354269000469,335.4368902000133,334.4354269000469,334.93563190003624,334.4354269000469,334.93563190003624,334.4354269000469,334.93563190003624,334.4354269000469,334.93563190003624,334.4354269000469,None,,,,,11011,001,2024_Jan_02_1036,nback,2021.2.3,60.0090973715877,
0-back,instructions\back-0.png,conditions\03back-e.xlsx,,,experiment,0,4,stim\gray.png,stim\gray.png,stim\gray.png,stim\yellow.png,down,,,,,,,,,,,,,0,0,0,11,0,11,11,11,,,,,,,,,,,,,,,,,,,,,,,,,,,,,,,,,,,,,,,,,,,,,,,,,,,,,,,,down,1,0.3956828999798745,335.9370227000327,None,335.9370227000327,None,335.9370227000327,336.9390412000357,335.9370227000327,336.9390412000357,335.9370227000327,336.9390412000357,335.9370227000327,336.9390412000357,335.9370227000327,336.43767060001846,335.9370227000327,336.43767060001846,335.9370227000327,336.43767060001846,335.9370227000327,336.43767060001846,335.9370227000327,None,,,,,11011,001,2024_Jan_02_1036,nback,2021.2.3,60.0090973715877,
0-back,instructions\back-0.png,conditions\03back-e.xlsx,,,experiment,0,3,stim\gray.png,stim\gray.png,stim\yellow.png,stim\gray.png,right,,,,,,,,,,,,,0,0,0,11,0,12,12,12,,,,,,,,,,,,,,,,,,,,,,,,,,,,,,,,,,,,,,,,,,,,,,,,,,,,,,,,right,1,0.32512579998001456,337.4391955000465,None,337.4391955000465,None,337.4391955000465,338.4419576000073,337.4391955000465,338.4419576000073,337.4391955000465,338.4419576000073,337.4391955000465,338.4419576000073,337.4391955000465,337.94017670000903,337.4391955000465,337.94017670000903,337.4391955000465,337.94017670000903,337.4391955000465,337.94017670000903,337.4391955000465,None,,,,,11011,001,2024_Jan_02_1036,nback,2021.2.3,60.0090973715877,
0-back,instructions\back-0.png,conditions\03back-e.xlsx,,,experiment,0,1,stim\yellow.png,stim\gray.png,stim\gray.png,stim\gray.png,up,,,,,,,,,,,,,0,0,0,11,0,13,13,13,,,,,,,,,,,,,,,,,,,,,,,,,,,,,,,,,,,,,,,,,,,,,,,,,,,,,,,,up,1,0.3906044999603182,338.9254894000478,None,338.9254894000478,None,338.9254894000478,339.92730450001545,338.9254894000478,339.92730450001545,338.9254894000478,339.92730450001545,338.9254894000478,339.92730450001545,338.9254894000478,339.4254542000126,338.9254894000478,339.4254542000126,338.9254894000478,339.4254542000126,338.9254894000478,339.4254542000126,338.9254894000478,None,,,,,11011,001,2024_Jan_02_1036,nback,2021.2.3,60.0090973715877,
0-back,instructions\back-0.png,conditions\03back-e.xlsx,,,experiment,0,2,stim\gray.png,stim\yellow.png,stim\gray.png,stim\gray.png,left,,,,,,,,,,,,,0,0,0,11,0,14,14,14,,,,,,,,,,,,,,,,,,,,,,,,,,,,,,,,,,,,,,,,,,,,,,,,,,,,,,,,left,1,0.38536409998778254,340.4274304000428,None,340.4274304000428,None,340.4274304000428,341.4286104000057,340.4274304000428,341.4286104000057,340.4274304000428,341.4286104000057,340.4274304000428,341.4286104000057,340.4274304000428,340.92771150002955,340.4274304000428,340.92771150002955,340.4274304000428,340.92771150002955,340.4274304000428,340.92771150002955,340.4274304000428,None,,,,,11011,001,2024_Jan_02_1036,nback,2021.2.3,60.0090973715877,
0-back,instructions\back-0.png,conditions\03back-e.xlsx,,,experiment,0,1,stim\yellow.png,stim\gray.png,stim\gray.png,stim\gray.png,up,,,,,,,,,,,,,0,0,0,11,0,15,15,15,,,,,,,,,,,,,,,,,,,,,,,,,,,,,,,,,,,,,,,,,,,,,,,,,,,,,,,,up,1,0.44240320002427325,341.92974590003723,None,341.92974590003723,None,341.92974590003723,342.9312486000126,341.92974590003723,342.9312486000126,341.92974590003723,342.9312486000126,341.92974590003723,342.9312486000126,341.92974590003723,342.4295874000527,341.92974590003723,342.4295874000527,341.92974590003723,342.4295874000527,341.92974590003723,342.4295874000527,341.92974590003723,None,,,,,11011,001,2024_Jan_02_1036,nback,2021.2.3,60.0090973715877,
0-back,instructions\back-0.png,conditions\03back-e.xlsx,,,experiment,0,3,stim\gray.png,stim\gray.png,stim\yellow.png,stim\gray.png,right,,,,,,,,,,,,,0,0,0,11,0,16,16,16,,,,,,,,,,,,,,,,,,,,,,,,,,,,,,,,,,,,,,,,,,,,,,,,,,,,,,,,right,1,0.39654450002126396,343.4320597000187,None,343.4320597000187,None,343.4320597000187,344.4331940000411,343.4320597000187,344.4331940000411,343.4320597000187,344.4331940000411,343.4320597000187,344.4331940000411,343.4320597000187,343.9323689000448,343.4320597000187,343.9323689000448,343.4320597000187,343.9323689000448,343.4320597000187,343.9323689000448,343.4320597000187,None,,,,,11011,001,2024_Jan_02_1036,nback,2021.2.3,60.0090973715877,
0-back,instructions\back-0.png,conditions\03back-e.xlsx,,,experiment,0,4,stim\gray.png,stim\gray.png,stim\gray.png,stim\yellow.png,down,,,,,,,,,,,,,0,0,0,11,0,17,17,17,,,,,,,,,,,,,,,,,,,,,,,,,,,,,,,,,,,,,,,,,,,,,,,,,,,,,,,,down,1,0.31070079997880384,344.9335840000422,None,344.9335840000422,None,344.9335840000422,345.9356713000452,344.9335840000422,345.9356713000452,344.9335840000422,345.9356713000452,344.9335840000422,345.9356713000452,344.9335840000422,345.4343744000071,344.9335840000422,345.4343744000071,344.9335840000422,345.4343744000071,344.9335840000422,345.4343744000071,344.9335840000422,None,,,,,11011,001,2024_Jan_02_1036,nback,2021.2.3,60.0090973715877,
0-back,instructions\back-0.png,conditions\03back-e.xlsx,,,experiment,0,2,stim\gray.png,stim\yellow.png,stim\gray.png,stim\gray.png,left,,,,,,,,,,,,,0,0,0,11,0,18,18,18,,,,,,,,,,,,,,,,,,,,,,,,,,,,,,,,,,,,,,,,,,,,,,,,,,,,,,,,left,1,0.31987850001314655,346.4362817000365,None,346.4362817000365,None,346.4362817000365,347.4379910000134,346.4362817000365,347.4379910000134,346.4362817000365,347.4379910000134,346.4362817000365,347.4379910000134,346.4362817000365,346.9371391000459,346.4362817000365,346.9371391000459,346.4362817000365,346.9371391000459,346.4362817000365,346.9371391000459,346.4362817000365,None,,,,,11011,001,2024_Jan_02_1036,nback,2021.2.3,60.0090973715877,
0-back,instructions\back-0.png,conditions\03back-e.xlsx,,,experiment,0,2,stim\gray.png,stim\yellow.png,stim\gray.png,stim\gray.png,left,,,,,,,,,,,,,0,0,0,11,0,19,19,19,,,,,,,,,,,,,,,,,,,,,,,,,,,,,,,,,,,,,,,,,,,,,,,,,,,,,,,,left,1,0.4186822999618016,347.9383988000336,None,347.9383988000336,None,347.9383988000336,348.9411877000239,347.9383988000336,348.9411877000239,347.9383988000336,348.9411877000239,347.9383988000336,348.9411877000239,347.9383988000336,348.43940510001266,347.9383988000336,348.43940510001266,347.9383988000336,348.43940510001266,347.9383988000336,348.43940510001266,347.9383988000336,None,,,,,11011,001,2024_Jan_02_1036,nback,2021.2.3,60.0090973715877,
0-back,instructions\back-0.png,conditions\03back-e.xlsx,,,,,,,,,,,,,,,,,,,,,,,0,0,0,11,,,,,,,,,,,,,,,,,,,,,,,,,,,,,,,,,,,,,,,,,,,,,,,,,,,,,,,,,,,,,,,,,,,,,,,,,,,,,,,,,,,,,349.44078980002087,None,,,11011,001,2024_Jan_02_1036,nback,2021.2.3,60.0090973715877,
0-back,instructions\back-0.png,conditions\02back-e.xlsx,,,experiment,0,4,stim\gray.png,stim\gray.png,stim\gray.png,stim\yellow.png,down,,,,,,,,,,,,,0,1,1,7,0,0,0,0,,,,,,,,,,,,,,,350.5420612000162,355.0497846000362,355.0151621000259,None,,,,,,,,,,,,,,,,,,,,,,,,,,,,,,,,,,,,,,down,1,0.6900474000140093,355.4502430000575,None,355.4502430000575,None,355.4502430000575,356.4509551000083,355.4502430000575,356.4509551000083,355.4502430000575,356.4509551000083,355.4502430000575,356.4509551000083,355.4502430000575,355.9507041000179,355.4502430000575,355.9507041000179,355.4502430000575,355.9507041000179,355.4502430000575,355.9507041000179,355.4502430000575,None,,,,,11011,001,2024_Jan_02_1036,nback,2021.2.3,60.0090973715877,
0-back,instructions\back-0.png,conditions\02back-e.xlsx,,,experiment,0,2,stim\gray.png,stim\yellow.png,stim\gray.png,stim\gray.png,left,,,,,,,,,,,,,0,1,1,7,0,1,1,1,,,,,,,,,,,,,,,,,,,,,,,,,,,,,,,,,,,,,,,,,,,,,,,,,,,,,,,,left,1,0.3173020000103861,356.93525600002613,None,356.93525600002613,None,356.93525600002613,357.9370187000022,356.93525600002613,357.9370187000022,356.93525600002613,357.9370187000022,356.93525600002613,357.9370187000022,356.93525600002613,357.4359402000555,356.93525600002613,357.4359402000555,356.93525600002613,357.4359402000555,356.93525600002613,357.4359402000555,356.93525600002613,None,,,,,11011,001,2024_Jan_02_1036,nback,2021.2.3,60.0090973715877,
0-back,instructions\back-0.png,conditions\02back-e.xlsx,,,experiment,0,1,stim\yellow.png,stim\gray.png,stim\gray.png,stim\gray.png,up,,,,,,,,,,,,,0,1,1,7,0,2,2,2,,,,,,,,,,,,,,,,,,,,,,,,,,,,,,,,,,,,,,,,,,,,,,,,,,,,,,,,up,1,0.33511189999990165,358.4371194000123,None,358.4371194000123,None,358.4371194000123,359.4389564000303,358.4371194000123,359.4389564000303,358.4371194000123,359.4389564000303,358.4371194000123,359.4389564000303,358.4371194000123,358.93830190005247,358.4371194000123,358.93830190005247,358.4371194000123,358.93830190005247,358.4371194000123,358.93830190005247,358.4371194000123,None,,,,,11011,001,2024_Jan_02_1036,nback,2021.2.3,60.0090973715877,
0-back,instructions\back-0.png,conditions\02back-e.xlsx,,,experiment,0,2,stim\gray.png,stim\yellow.png,stim\gray.png,stim\gray.png,left,,,,,,,,,,,,,0,1,1,7,0,3,3,3,,,,,,,,,,,,,,,,,,,,,,,,,,,,,,,,,,,,,,,,,,,,,,,,,,,,,,,,left,1,0.3929352999548428,359.9393621000345,None,359.9393621000345,None,359.9393621000345,360.94144360005157,359.9393621000345,360.94144360005157,359.9393621000345,360.94144360005157,359.9393621000345,360.94144360005157,359.9393621000345,360.43980490003014,359.9393621000345,360.43980490003014,359.9393621000345,360.43980490003014,359.9393621000345,360.43980490003014,359.9393621000345,None,,,,,11011,001,2024_Jan_02_1036,nback,2021.2.3,60.0090973715877,
0-back,instructions\back-0.png,conditions\02back-e.xlsx,,,experiment,0,3,stim\gray.png,stim\gray.png,stim\yellow.png,stim\gray.png,right,,,,,,,,,,,,,0,1,1,7,0,4,4,4,,,,,,,,,,,,,,,,,,,,,,,,,,,,,,,,,,,,,,,,,,,,,,,,,,,,,,,,right,1,0.41147360001923516,361.42500340001425,None,361.42500340001425,None,361.42500340001425,362.4271458000294,361.42500340001425,362.4271458000294,361.42500340001425,362.4271458000294,361.42500340001425,362.4271458000294,361.42500340001425,361.92544070002623,361.42500340001425,361.92544070002623,361.42500340001425,361.92544070002623,361.42500340001425,361.92544070002623,361.42500340001425,None,,,,,11011,001,2024_Jan_02_1036,nback,2021.2.3,60.0090973715877,
0-back,instructions\back-0.png,conditions\02back-e.xlsx,,,experiment,0,1,stim\yellow.png,stim\gray.png,stim\gray.png,stim\gray.png,up,,,,,,,,,,,,,0,1,1,7,0,5,5,5,,,,,,,,,,,,,,,,,,,,,,,,,,,,,,,,,,,,,,,,,,,,,,,,,,,,,,,,up,1,0.3328138000215404,362.9276327000116,None,362.9276327000116,None,362.9276327000116,363.92900510004256,362.9276327000116,363.92900510004256,362.9276327000116,363.92900510004256,362.9276327000116,363.92900510004256,362.9276327000116,363.4277422000305,362.9276327000116,363.4277422000305,362.9276327000116,363.4277422000305,362.9276327000116,363.4277422000305,362.9276327000116,None,,,,,11011,001,2024_Jan_02_1036,nback,2021.2.3,60.0090973715877,
0-back,instructions\back-0.png,conditions\02back-e.xlsx,,,experiment,0,2,stim\gray.png,stim\yellow.png,stim\gray.png,stim\gray.png,left,,,,,,,,,,,,,0,1,1,7,0,6,6,6,,,,,,,,,,,,,,,,,,,,,,,,,,,,,,,,,,,,,,,,,,,,,,,,,,,,,,,,left,1,0.3430042999680154,364.4292163000209,None,364.4292163000209,None,364.4292163000209,365.4317853000248,364.4292163000209,365.4317853000248,364.4292163000209,365.4317853000248,364.4292163000209,365.4317853000248,364.4292163000209,364.93048370000906,364.4292163000209,364.93048370000906,364.4292163000209,364.93048370000906,364.4292163000209,364.93048370000906,364.4292163000209,None,,,,,11011,001,2024_Jan_02_1036,nback,2021.2.3,60.0090973715877,
0-back,instructions\back-0.png,conditions\02back-e.xlsx,,,experiment,0,3,stim\gray.png,stim\gray.png,stim\yellow.png,stim\gray.png,right,,,,,,,,,,,,,0,1,1,7,0,7,7,7,,,,,,,,,,,,,,,,,,,,,,,,,,,,,,,,,,,,,,,,,,,,,,,,,,,,,,,,right,1,0.27297639998141676,365.93135310005164,None,365.93135310005164,None,365.93135310005164,366.93343270005425,365.93135310005164,366.93343270005425,365.93135310005164,366.93343270005425,365.93135310005164,366.93343270005425,365.93135310005164,366.43189640005585,365.93135310005164,366.43189640005585,365.93135310005164,366.43189640005585,365.93135310005164,366.43189640005585,365.93135310005164,None,,,,,11011,001,2024_Jan_02_1036,nback,2021.2.3,60.0090973715877,
0-back,instructions\back-0.png,conditions\02back-e.xlsx,,,experiment,0,4,stim\gray.png,stim\gray.png,stim\gray.png,stim\yellow.png,down,,,,,,,,,,,,,0,1,1,7,0,8,8,8,,,,,,,,,,,,,,,,,,,,,,,,,,,,,,,,,,,,,,,,,,,,,,,,,,,,,,,,left,0,0.18463770003290847,367.4357110000565,None,367.4357110000565,None,367.4357110000565,368.4358503000112,367.4357110000565,368.4358503000112,367.4357110000565,368.4358503000112,367.4357110000565,368.4358503000112,367.4357110000565,367.9510355000384,367.4357110000565,367.9510355000384,367.4357110000565,367.9510355000384,367.4357110000565,367.9510355000384,367.4357110000565,None,,,,,11011,001,2024_Jan_02_1036,nback,2021.2.3,60.0090973715877,
0-back,instructions\back-0.png,conditions\02back-e.xlsx,,,experiment,0,3,stim\gray.png,stim\gray.png,stim\yellow.png,stim\gray.png,right,,,,,,,,,,,,,0,1,1,7,0,9,9,9,,,,,,,,,,,,,,,,,,,,,,,,,,,,,,,,,,,,,,,,,,,,,,,,,,,,,,,,right,1,0.3724240000010468,368.9361220000428,None,368.9361220000428,None,368.9361220000428,369.93758470000466,368.9361220000428,369.93758470000466,368.9361220000428,369.93758470000466,368.9361220000428,369.93758470000466,368.9361220000428,369.43672890000744,368.9361220000428,369.43672890000744,368.9361220000428,369.43672890000744,368.9361220000428,369.43672890000744,368.9361220000428,None,,,,,11011,001,2024_Jan_02_1036,nback,2021.2.3,60.0090973715877,
0-back,instructions\back-0.png,conditions\02back-e.xlsx,,,experiment,0,1,stim\yellow.png,stim\gray.png,stim\gray.png,stim\gray.png,up,,,,,,,,,,,,,0,1,1,7,0,10,10,10,,,,,,,,,,,,,,,,,,,,,,,,,,,,,,,,,,,,,,,,,,,,,,,,,,,,,,,,up,1,0.4059226000099443,370.43831150000915,None,370.43831150000915,None,370.43831150000915,371.43975400005,370.43831150000915,371.43975400005,370.43831150000915,371.43975400005,370.43831150000915,371.43975400005,370.43831150000915,370.9388692000066,370.43831150000915,370.9388692000066,370.43831150000915,370.9388692000066,370.43831150000915,370.9388692000066,370.43831150000915,None,,,,,11011,001,2024_Jan_02_1036,nback,2021.2.3,60.0090973715877,
0-back,instructions\back-0.png,conditions\02back-e.xlsx,,,experiment,0,4,stim\gray.png,stim\gray.png,stim\gray.png,stim\yellow.png,down,,,,,,,,,,,,,0,1,1,7,0,11,11,11,,,,,,,,,,,,,,,,,,,,,,,,,,,,,,,,,,,,,,,,,,,,,,,,,,,,,,,,down,1,0.3685840999823995,371.9407938000513,None,371.9407938000513,None,371.9407938000513,372.94172440003604,371.9407938000513,372.94172440003604,371.9407938000513,372.94172440003604,371.9407938000513,372.94172440003604,371.9407938000513,372.4414841000107,371.9407938000513,372.4414841000107,371.9407938000513,372.4414841000107,371.9407938000513,372.4414841000107,371.9407938000513,None,,,,,11011,001,2024_Jan_02_1036,nback,2021.2.3,60.0090973715877,
0-back,instructions\back-0.png,conditions\02back-e.xlsx,,,experiment,0,3,stim\gray.png,stim\gray.png,stim\yellow.png,stim\gray.png,right,,,,,,,,,,,,,0,1,1,7,0,12,12,12,,,,,,,,,,,,,,,,,,,,,,,,,,,,,,,,,,,,,,,,,,,,,,,,,,,,,,,,right,1,0.3225578000419773,373.4256400000304,None,373.4256400000304,None,373.4256400000304,374.4279631000245,373.4256400000304,374.4279631000245,373.4256400000304,374.4279631000245,373.4256400000304,374.4279631000245,373.4256400000304,373.9272922000382,373.4256400000304,373.9272922000382,373.4256400000304,373.9272922000382,373.4256400000304,373.9272922000382,373.4256400000304,None,,,,,11011,001,2024_Jan_02_1036,nback,2021.2.3,60.0090973715877,
0-back,instructions\back-0.png,conditions\02back-e.xlsx,,,experiment,0,1,stim\yellow.png,stim\gray.png,stim\gray.png,stim\gray.png,up,,,,,,,,,,,,,0,1,1,7,0,13,13,13,,,,,,,,,,,,,,,,,,,,,,,,,,,,,,,,,,,,,,,,,,,,,,,,,,,,,,,,up,1,0.4206263000378385,374.92786570003955,None,374.92786570003955,None,374.92786570003955,375.9301247000112,374.92786570003955,375.9301247000112,374.92786570003955,375.9301247000112,374.92786570003955,375.9301247000112,374.92786570003955,375.4294846000266,374.92786570003955,375.4294846000266,374.92786570003955,375.4294846000266,374.92786570003955,375.4294846000266,374.92786570003955,None,,,,,11011,001,2024_Jan_02_1036,nback,2021.2.3,60.0090973715877,
0-back,instructions\back-0.png,conditions\02back-e.xlsx,,,experiment,0,2,stim\gray.png,stim\yellow.png,stim\gray.png,stim\gray.png,left,,,,,,,,,,,,,0,1,1,7,0,14,14,14,,,,,,,,,,,,,,,,,,,,,,,,,,,,,,,,,,,,,,,,,,,,,,,,,,,,,,,,left,1,0.4702470999909565,376.4301175000146,None,376.4301175000146,None,376.4301175000146,377.4322455000365,376.4301175000146,377.4322455000365,376.4301175000146,377.4322455000365,376.4301175000146,377.4322455000365,376.4301175000146,376.9321850000415,376.4301175000146,376.9321850000415,376.4301175000146,376.9321850000415,376.4301175000146,376.9321850000415,376.4301175000146,None,,,,,11011,001,2024_Jan_02_1036,nback,2021.2.3,60.0090973715877,
0-back,instructions\back-0.png,conditions\02back-e.xlsx,,,experiment,0,1,stim\yellow.png,stim\gray.png,stim\gray.png,stim\gray.png,up,,,,,,,,,,,,,0,1,1,7,0,15,15,15,,,,,,,,,,,,,,,,,,,,,,,,,,,,,,,,,,,,,,,,,,,,,,,,,,,,,,,,up,1,0.4155685000005178,377.9328553000232,None,377.9328553000232,None,377.9328553000232,378.9343780000345,377.9328553000232,378.9343780000345,377.9328553000232,378.9343780000345,377.9328553000232,378.9343780000345,377.9328553000232,378.4344538000296,377.9328553000232,378.4344538000296,377.9328553000232,378.4344538000296,377.9328553000232,378.4344538000296,377.9328553000232,None,,,,,11011,001,2024_Jan_02_1036,nback,2021.2.3,60.0090973715877,
0-back,instructions\back-0.png,conditions\02back-e.xlsx,,,experiment,0,3,stim\gray.png,stim\gray.png,stim\yellow.png,stim\gray.png,right,,,,,,,,,,,,,0,1,1,7,0,16,16,16,,,,,,,,,,,,,,,,,,,,,,,,,,,,,,,,,,,,,,,,,,,,,,,,,,,,,,,,right,1,0.32109979999950156,379.4354124000529,None,379.4354124000529,None,379.4354124000529,380.43603600002825,379.4354124000529,380.43603600002825,379.4354124000529,380.43603600002825,379.4354124000529,380.43603600002825,379.4354124000529,379.9357084000367,379.4354124000529,379.9357084000367,379.4354124000529,379.9357084000367,379.4354124000529,379.9357084000367,379.4354124000529,None,,,,,11011,001,2024_Jan_02_1036,nback,2021.2.3,60.0090973715877,
0-back,instructions\back-0.png,conditions\02back-e.xlsx,,,experiment,0,4,stim\gray.png,stim\gray.png,stim\gray.png,stim\yellow.png,down,,,,,,,,,,,,,0,1,1,7,0,17,17,17,,,,,,,,,,,,,,,,,,,,,,,,,,,,,,,,,,,,,,,,,,,,,,,,,,,,,,,,down,1,0.28394150000531226,380.9370490000001,None,380.9370490000001,None,380.9370490000001,381.93865560000995,380.9370490000001,381.93865560000995,380.9370490000001,381.93865560000995,380.9370490000001,381.93865560000995,380.9370490000001,381.4377347000409,380.9370490000001,381.4377347000409,380.9370490000001,381.4377347000409,380.9370490000001,381.4377347000409,380.9370490000001,None,,,,,11011,001,2024_Jan_02_1036,nback,2021.2.3,60.0090973715877,
0-back,instructions\back-0.png,conditions\02back-e.xlsx,,,experiment,0,4,stim\gray.png,stim\gray.png,stim\gray.png,stim\yellow.png,down,,,,,,,,,,,,,0,1,1,7,0,18,18,18,,,,,,,,,,,,,,,,,,,,,,,,,,,,,,,,,,,,,,,,,,,,,,,,,,,,,,,,down,1,0.5089503999915905,382.43926570005715,None,382.43926570005715,None,382.43926570005715,383.44112800003495,382.43926570005715,383.44112800003495,382.43926570005715,383.44112800003495,382.43926570005715,383.44112800003495,382.43926570005715,382.9400418000296,382.43926570005715,382.9400418000296,382.43926570005715,382.9400418000296,382.43926570005715,382.9400418000296,382.43926570005715,None,,,,,11011,001,2024_Jan_02_1036,nback,2021.2.3,60.0090973715877,
0-back,instructions\back-0.png,conditions\02back-e.xlsx,,,experiment,0,2,stim\gray.png,stim\yellow.png,stim\gray.png,stim\gray.png,left,,,,,,,,,,,,,0,1,1,7,0,19,19,19,,,,,,,,,,,,,,,,,,,,,,,,,,,,,,,,,,,,,,,,,,,,,,,,,,,,,,,,left,1,0.32758909999392927,383.9245942000416,None,383.9245942000416,None,383.9245942000416,384.92619380005635,383.9245942000416,384.92619380005635,383.9245942000416,384.92619380005635,383.9245942000416,384.92619380005635,383.9245942000416,384.425842800003,383.9245942000416,384.425842800003,383.9245942000416,384.425842800003,383.9245942000416,384.425842800003,383.9245942000416,None,,,,,11011,001,2024_Jan_02_1036,nback,2021.2.3,60.0090973715877,
0-back,instructions\back-0.png,conditions\02back-e.xlsx,,,,,,,,,,,,,,,,,,,,,,,0,1,1,7,,,,,,,,,,,,,,,,,,,,,,,,,,,,,,,,,,,,,,,,,,,,,,,,,,,,,,,,,,,,,,,,,,,,,,,,,,,,,,,,,,,,,385.42838550003944,None,,,11011,001,2024_Jan_02_1036,nback,2021.2.3,60.0090973715877,
2-back,instructions\back-2.png,conditions\22back-e.xlsx,,,experiment,2,2,stim\gray.png,stim\yellow.png,stim\gray.png,stim\gray.png,None,,,,,,,,,,,,,0,2,2,8,0,0,0,0,,,,,,,,,,,,,,,386.5618861000403,391.0701485000318,391.00229480001144,None,,,,,,,,,,,,,,,,,,,,,,,,,,,,,,,,,,,,,,None,1,,391.4524286000524,None,391.4524286000524,None,391.4524286000524,392.454472900019,391.4524286000524,392.454472900019,391.4524286000524,392.454472900019,391.4524286000524,392.454472900019,391.4524286000524,391.9538155000191,391.4524286000524,391.9538155000191,391.4524286000524,391.9538155000191,391.4524286000524,391.9538155000191,391.4524286000524,None,,,,,11011,001,2024_Jan_02_1036,nback,2021.2.3,60.0090973715877,
2-back,instructions\back-2.png,conditions\22back-e.xlsx,,,experiment,2,3,stim\gray.png,stim\gray.png,stim\yellow.png,stim\gray.png,None,,,,,,,,,,,,,0,2,2,8,0,1,1,1,,,,,,,,,,,,,,,,,,,,,,,,,,,,,,,,,,,,,,,,,,,,,,,,,,,,,,,,left,0,0.8345275999745354,392.9387924000039,None,392.9387924000039,None,392.9387924000039,393.94043590000365,392.9387924000039,393.94043590000365,392.9387924000039,393.94043590000365,392.9387924000039,393.94043590000365,392.9387924000039,393.43884810002055,392.9387924000039,393.43884810002055,392.9387924000039,393.43884810002055,392.9387924000039,393.43884810002055,392.9387924000039,None,,,,,11011,001,2024_Jan_02_1036,nback,2021.2.3,60.0090973715877,
2-back,instructions\back-2.png,conditions\22back-e.xlsx,,,experiment,2,1,stim\yellow.png,stim\gray.png,stim\gray.png,stim\gray.png,left,,,,,,,,,,,,,0,2,2,8,0,2,2,2,,,,,,,,,,,,,,,,,,,,,,,,,,,,,,,,,,,,,,,,,,,,,,,,,,,,,,,,up,0,0.7558793000061996,394.4404130000039,None,394.4404130000039,None,394.4404130000039,395.44237760000397,394.4404130000039,395.44237760000397,394.4404130000039,395.44237760000397,394.4404130000039,395.44237760000397,394.4404130000039,394.9409905000357,394.4404130000039,394.9409905000357,394.4404130000039,394.9409905000357,394.4404130000039,394.9409905000357,394.4404130000039,None,,,,,11011,001,2024_Jan_02_1036,nback,2021.2.3,60.0090973715877,
2-back,instructions\back-2.png,conditions\22back-e.xlsx,,,experiment,2,2,stim\gray.png,stim\yellow.png,stim\gray.png,stim\gray.png,right,,,,,,,,,,,,,0,2,2,8,0,3,3,3,,,,,,,,,,,,,,,,,,,,,,,,,,,,,,,,,,,,,,,,,,,,,,,,,,,,,,,,right,1,0.9424288000445813,395.9259471000405,None,395.9259471000405,None,395.9259471000405,396.9287571000168,395.9259471000405,396.9287571000168,395.9259471000405,396.9287571000168,395.9259471000405,396.9287571000168,395.9259471000405,396.42691180005204,395.9259471000405,396.42691180005204,395.9259471000405,396.42691180005204,395.9259471000405,396.42691180005204,395.9259471000405,None,,,,,11011,001,2024_Jan_02_1036,nback,2021.2.3,60.0090973715877,
2-back,instructions\back-2.png,conditions\22back-e.xlsx,,,experiment,2,1,stim\yellow.png,stim\gray.png,stim\gray.png,stim\gray.png,up,,,,,,,,,,,,,0,2,2,8,0,4,4,4,,,,,,,,,,,,,,,,,,,,,,,,,,,,,,,,,,,,,,,,,,,,,,,,,,,,,,,,left,0,1.3679191000410356,397.4288950000191,None,397.4288950000191,None,397.4288950000191,398.4304246000247,397.4288950000191,398.4304246000247,397.4288950000191,398.4304246000247,397.4288950000191,398.4304246000247,397.4288950000191,397.9288145000464,397.4288950000191,397.9288145000464,397.4288950000191,397.9288145000464,397.4288950000191,397.9288145000464,397.4288950000191,None,,,,,11011,001,2024_Jan_02_1036,nback,2021.2.3,60.0090973715877,
2-back,instructions\back-2.png,conditions\22back-e.xlsx,,,experiment,2,4,stim\gray.png,stim\gray.png,stim\gray.png,stim\yellow.png,left,,,,,,,,,,,,,0,2,2,8,0,5,5,5,,,,,,,,,,,,,,,,,,,,,,,,,,,,,,,,,,,,,,,,,,,,,,,,,,,,,,,,up,0,1.2735643000341952,398.93096760002663,None,398.93096760002663,None,398.93096760002663,399.9332289000158,398.93096760002663,399.9332289000158,398.93096760002663,399.9332289000158,398.93096760002663,399.9332289000158,398.93096760002663,399.4314257000224,398.93096760002663,399.4314257000224,398.93096760002663,399.4314257000224,398.93096760002663,399.4314257000224,398.93096760002663,None,,,,,11011,001,2024_Jan_02_1036,nback,2021.2.3,60.0090973715877,
2-back,instructions\back-2.png,conditions\22back-e.xlsx,,,experiment,2,3,stim\gray.png,stim\gray.png,stim\yellow.png,stim\gray.png,up,,,,,,,,,,,,,0,2,2,8,0,6,6,6,,,,,,,,,,,,,,,,,,,,,,,,,,,,,,,,,,,,,,,,,,,,,,,,,,,,,,,,down,0,1.1558557000244036,400.43269660003716,None,400.43269660003716,None,400.43269660003716,401.43473380000796,400.43269660003716,401.43473380000796,400.43269660003716,401.43473380000796,400.43269660003716,401.43473380000796,400.43269660003716,400.93429790000664,400.43269660003716,400.93429790000664,400.43269660003716,400.93429790000664,400.43269660003716,400.93429790000664,400.43269660003716,None,,,,,11011,001,2024_Jan_02_1036,nback,2021.2.3,60.0090973715877,
2-back,instructions\back-2.png,conditions\22back-e.xlsx,,,experiment,2,1,stim\yellow.png,stim\gray.png,stim\gray.png,stim\gray.png,down,,,,,,,,,,,,,0,2,2,8,0,7,7,7,,,,,,,,,,,,,,,,,,,,,,,,,,,,,,,,,,,,,,,,,,,,,,,,,,,,,,,,None,0,,401.93477090005763,None,401.93477090005763,None,401.93477090005763,402.93683960003546,401.93477090005763,402.93683960003546,401.93477090005763,402.93683960003546,401.93477090005763,402.93683960003546,401.93477090005763,402.43586270004744,401.93477090005763,402.43586270004744,401.93477090005763,402.43586270004744,401.93477090005763,402.43586270004744,401.93477090005763,None,,,,,11011,001,2024_Jan_02_1036,nback,2021.2.3,60.0090973715877,
2-back,instructions\back-2.png,conditions\22back-e.xlsx,,,experiment,2,2,stim\gray.png,stim\yellow.png,stim\gray.png,stim\gray.png,right,,,,,,,,,,,,,0,2,2,8,0,8,8,8,,,,,,,,,,,,,,,,,,,,,,,,,,,,,,,,,,,,,,,,,,,,,,,,,,,,,,,,None,0,,403.4369965000078,None,403.4369965000078,None,403.4369965000078,404.43868750002,403.4369965000078,404.43868750002,403.4369965000078,404.43868750002,403.4369965000078,404.43868750002,403.4369965000078,403.93823590001557,403.4369965000078,403.93823590001557,403.4369965000078,403.93823590001557,403.4369965000078,403.93823590001557,403.4369965000078,None,,,,,11011,001,2024_Jan_02_1036,nback,2021.2.3,60.0090973715877,
2-back,instructions\back-2.png,conditions\22back-e.xlsx,,,experiment,2,1,stim\yellow.png,stim\gray.png,stim\gray.png,stim\gray.png,up,,,,,,,,,,,,,0,2,2,8,0,9,9,9,,,,,,,,,,,,,,,,,,,,,,,,,,,,,,,,,,,,,,,,,,,,,,,,,,,,,,,,up,1,0.19224419997772202,404.9399814000353,None,404.9399814000353,None,404.9399814000353,405.9413341000327,404.9399814000353,405.9413341000327,404.9399814000353,405.9413341000327,404.9399814000353,405.9413341000327,404.9399814000353,405.44127880001906,404.9399814000353,405.44127880001906,404.9399814000353,405.44127880001906,404.9399814000353,405.44127880001906,404.9399814000353,None,,,,,11011,001,2024_Jan_02_1036,nback,2021.2.3,60.0090973715877,
2-back,instructions\back-2.png,conditions\22back-e.xlsx,,,experiment,2,4,stim\gray.png,stim\gray.png,stim\gray.png,stim\yellow.png,left,,,,,,,,,,,,,0,2,2,8,0,10,10,10,,,,,,,,,,,,,,,,,,,,,,,,,,,,,,,,,,,,,,,,,,,,,,,,,,,,,,,,left,1,0.3233057999750599,406.44138360000215,None,406.44138360000215,None,406.44138360000215,407.4442833000212,406.44138360000215,407.4442833000212,406.44138360000215,407.4442833000212,406.44138360000215,407.4442833000212,406.44138360000215,406.94322470005136,406.44138360000215,406.94322470005136,406.44138360000215,406.94322470005136,406.44138360000215,406.94322470005136,406.44138360000215,None,,,,,11011,001,2024_Jan_02_1036,nback,2021.2.3,60.0090973715877,
2-back,instructions\back-2.png,conditions\22back-e.xlsx,,,experiment,2,2,stim\gray.png,stim\yellow.png,stim\gray.png,stim\gray.png,up,,,,,,,,,,,,,0,2,2,8,0,11,11,11,,,,,,,,,,,,,,,,,,,,,,,,,,,,,,,,,,,,,,,,,,,,,,,,,,,,,,,,up,1,0.2930601999978535,407.92741550004575,None,407.92741550004575,None,407.92741550004575,408.9289035000256,407.92741550004575,408.9289035000256,407.92741550004575,408.9289035000256,407.92741550004575,408.9289035000256,407.92741550004575,408.42780980002135,407.92741550004575,408.42780980002135,407.92741550004575,408.42780980002135,407.92741550004575,408.42780980002135,407.92741550004575,None,,,,,11011,001,2024_Jan_02_1036,nback,2021.2.3,60.0090973715877,
2-back,instructions\back-2.png,conditions\22back-e.xlsx,,,experiment,2,4,stim\gray.png,stim\gray.png,stim\gray.png,stim\yellow.png,down,,,,,,,,,,,,,0,2,2,8,0,12,12,12,,,,,,,,,,,,,,,,,,,,,,,,,,,,,,,,,,,,,,,,,,,,,,,,,,,,,,,,None,0,,409.42916580004385,None,409.42916580004385,None,409.42916580004385,410.4307904000161,409.42916580004385,410.4307904000161,409.42916580004385,410.4307904000161,409.42916580004385,410.4307904000161,409.42916580004385,409.9306689000223,409.42916580004385,409.9306689000223,409.42916580004385,409.9306689000223,409.42916580004385,409.9306689000223,409.42916580004385,None,,,,,11011,001,2024_Jan_02_1036,nback,2021.2.3,60.0090973715877,
2-back,instructions\back-2.png,conditions\22back-e.xlsx,,,experiment,2,3,stim\gray.png,stim\gray.png,stim\yellow.png,stim\gray.png,left,,,,,,,,,,,,,0,2,2,8,0,13,13,13,,,,,,,,,,,,,,,,,,,,,,,,,,,,,,,,,,,,,,,,,,,,,,,,,,,,,,,,left,1,0.30505650001578033,410.9313770000008,None,410.9313770000008,None,410.9313770000008,411.9338082000031,410.9313770000008,411.9338082000031,410.9313770000008,411.9338082000031,410.9313770000008,411.9338082000031,410.9313770000008,411.43290770001477,410.9313770000008,411.43290770001477,410.9313770000008,411.43290770001477,410.9313770000008,411.43290770001477,410.9313770000008,None,,,,,11011,001,2024_Jan_02_1036,nback,2021.2.3,60.0090973715877,
2-back,instructions\back-2.png,conditions\22back-e.xlsx,,,experiment,2,3,stim\gray.png,stim\gray.png,stim\yellow.png,stim\gray.png,down,,,,,,,,,,,,,0,2,2,8,0,14,14,14,,,,,,,,,,,,,,,,,,,,,,,,,,,,,,,,,,,,,,,,,,,,,,,,,,,,,,,,down,1,0.2586011000094004,412.433697200031,None,412.433697200031,None,412.433697200031,413.43591550004203,412.433697200031,413.43591550004203,412.433697200031,413.43591550004203,412.433697200031,413.43591550004203,412.433697200031,412.9354377000127,412.433697200031,412.9354377000127,412.433697200031,412.9354377000127,412.433697200031,412.9354377000127,412.433697200031,None,,,,,11011,001,2024_Jan_02_1036,nback,2021.2.3,60.0090973715877,
2-back,instructions\back-2.png,conditions\22back-e.xlsx,,,experiment,2,4,stim\gray.png,stim\gray.png,stim\gray.png,stim\yellow.png,right,,,,,,,,,,,,,0,2,2,8,0,15,15,15,,,,,,,,,,,,,,,,,,,,,,,,,,,,,,,,,,,,,,,,,,,,,,,,,,,,,,,,right,1,0.14835820003645495,413.9362299000495,None,413.9362299000495,None,413.9362299000495,414.93821910000406,413.9362299000495,414.93821910000406,413.9362299000495,414.93821910000406,413.9362299000495,414.93821910000406,413.9362299000495,414.43738990003476,413.9362299000495,414.43738990003476,413.9362299000495,414.43738990003476,413.9362299000495,414.43738990003476,413.9362299000495,None,,,,,11011,001,2024_Jan_02_1036,nback,2021.2.3,60.0090973715877,
2-back,instructions\back-2.png,conditions\22back-e.xlsx,,,experiment,2,2,stim\gray.png,stim\yellow.png,stim\gray.png,stim\gray.png,right,,,,,,,,,,,,,0,2,2,8,0,16,16,16,,,,,,,,,,,,,,,,,,,,,,,,,,,,,,,,,,,,,,,,,,,,,,,,,,,,,,,,right,1,0.5175902000046335,415.4387072000536,None,415.4387072000536,None,415.4387072000536,416.44074590003584,415.4387072000536,416.44074590003584,415.4387072000536,416.44074590003584,415.4387072000536,416.44074590003584,415.4387072000536,415.9393690000288,415.4387072000536,415.9393690000288,415.4387072000536,415.9393690000288,415.4387072000536,415.9393690000288,415.4387072000536,None,,,,,11011,001,2024_Jan_02_1036,nback,2021.2.3,60.0090973715877,
2-back,instructions\back-2.png,conditions\22back-e.xlsx,,,experiment,2,1,stim\yellow.png,stim\gray.png,stim\gray.png,stim\gray.png,down,,,,,,,,,,,,,0,2,2,8,0,17,17,17,,,,,,,,,,,,,,,,,,,,,,,,,,,,,,,,,,,,,,,,,,,,,,,,,,,,,,,,down,1,0.311354500008747,416.9410008000559,None,416.9410008000559,None,416.9410008000559,417.9426235000137,416.9410008000559,417.9426235000137,416.9410008000559,417.9426235000137,416.9410008000559,417.9426235000137,416.9410008000559,417.4416091000312,416.9410008000559,417.4416091000312,416.9410008000559,417.4416091000312,416.9410008000559,417.4416091000312,416.9410008000559,None,,,,,11011,001,2024_Jan_02_1036,nback,2021.2.3,60.0090973715877,
2-back,instructions\back-2.png,conditions\22back-e.xlsx,,,experiment,2,4,stim\gray.png,stim\gray.png,stim\gray.png,stim\yellow.png,left,,,,,,,,,,,,,0,2,2,8,0,18,18,18,,,,,,,,,,,,,,,,,,,,,,,,,,,,,,,,,,,,,,,,,,,,,,,,,,,,,,,,left,1,0.27449959999648854,418.4256920000189,None,418.4256920000189,None,418.4256920000189,419.42750970000634,418.4256920000189,419.42750970000634,418.4256920000189,419.42750970000634,418.4256920000189,419.42750970000634,418.4256920000189,418.92666520003695,418.4256920000189,418.92666520003695,418.4256920000189,418.92666520003695,418.4256920000189,418.92666520003695,418.4256920000189,None,,,,,11011,001,2024_Jan_02_1036,nback,2021.2.3,60.0090973715877,
2-back,instructions\back-2.png,conditions\22back-e.xlsx,,,experiment,2,3,stim\gray.png,stim\gray.png,stim\yellow.png,stim\gray.png,up,,,,,,,,,,,,,0,2,2,8,0,19,19,19,,,,,,,,,,,,,,,,,,,,,,,,,,,,,,,,,,,,,,,,,,,,,,,,,,,,,,,,up,1,0.25211289996514097,419.9281592000043,None,419.9281592000043,None,419.9281592000043,420.9297196000116,419.9281592000043,420.9297196000116,419.9281592000043,420.9297196000116,419.9281592000043,420.9297196000116,419.9281592000043,420.42961650004145,419.9281592000043,420.42961650004145,419.9281592000043,420.42961650004145,419.9281592000043,420.42961650004145,419.9281592000043,None,,,,,11011,001,2024_Jan_02_1036,nback,2021.2.3,60.0090973715877,
2-back,instructions\back-2.png,conditions\22back-e.xlsx,,,,,,,,,,,,,,,,,,,,,,,0,2,2,8,,,,,,,,,,,,,,,,,,,,,,,,,,,,,,,,,,,,,,,,,,,,,,,,,,,,,,,,,,,,,,,,,,,,,,,,,,,,,,,,,,,,,421.4303294000565,None,,,11011,001,2024_Jan_02_1036,nback,2021.2.3,60.0090973715877,
0-back,instructions\back-0.png,conditions\00back-e.xlsx,,,experiment,0,3,stim\gray.png,stim\gray.png,stim\yellow.png,stim\gray.png,right,,,,,,,,,,,,,0,3,3,0,0,0,0,0,,,,,,,,,,,,,,,422.5986154000275,427.105990800017,427.0553017000202,None,,,,,,,,,,,,,,,,,,,,,,,,,,,,,,,,,,,,,,right,1,0.7876197000150569,427.4566817000159,None,427.4566817000159,None,427.4566817000159,428.45744560001185,427.4566817000159,428.45744560001185,427.4566817000159,428.45744560001185,427.4566817000159,428.45744560001185,427.4566817000159,427.95719330001157,427.4566817000159,427.95719330001157,427.4566817000159,427.95719330001157,427.4566817000159,427.95719330001157,427.4566817000159,None,,,,,11011,001,2024_Jan_02_1036,nback,2021.2.3,60.0090973715877,
0-back,instructions\back-0.png,conditions\00back-e.xlsx,,,experiment,0,4,stim\gray.png,stim\gray.png,stim\gray.png,stim\yellow.png,down,,,,,,,,,,,,,0,3,3,0,0,1,1,1,,,,,,,,,,,,,,,,,,,,,,,,,,,,,,,,,,,,,,,,,,,,,,,,,,,,,,,,down,1,0.5753053000080399,428.925057400018,None,428.925057400018,None,428.925057400018,429.92718210001476,428.925057400018,429.92718210001476,428.925057400018,429.92718210001476,428.925057400018,429.92718210001476,428.925057400018,429.4253577000345,428.925057400018,429.4253577000345,428.925057400018,429.4253577000345,428.925057400018,429.4253577000345,428.925057400018,None,,,,,11011,001,2024_Jan_02_1036,nback,2021.2.3,60.0090973715877,
0-back,instructions\back-0.png,conditions\00back-e.xlsx,,,experiment,0,1,stim\yellow.png,stim\gray.png,stim\gray.png,stim\gray.png,up,,,,,,,,,,,,,0,3,3,0,0,2,2,2,,,,,,,,,,,,,,,,,,,,,,,,,,,,,,,,,,,,,,,,,,,,,,,,,,,,,,,,up,1,0.3366987999761477,430.4277002000017,None,430.4277002000017,None,430.4277002000017,431.42826260003494,430.4277002000017,431.42826260003494,430.4277002000017,431.42826260003494,430.4277002000017,431.42826260003494,430.4277002000017,430.9289828000474,430.4277002000017,430.9289828000474,430.4277002000017,430.9289828000474,430.4277002000017,430.9289828000474,430.4277002000017,None,,,,,11011,001,2024_Jan_02_1036,nback,2021.2.3,60.0090973715877,
0-back,instructions\back-0.png,conditions\00back-e.xlsx,,,experiment,0,2,stim\gray.png,stim\yellow.png,stim\gray.png,stim\gray.png,left,,,,,,,,,,,,,0,3,3,0,0,3,3,3,,,,,,,,,,,,,,,,,,,,,,,,,,,,,,,,,,,,,,,,,,,,,,,,,,,,,,,,left,1,0.3070587000111118,431.9292805000441,None,431.9292805000441,None,431.9292805000441,432.9307240000344,431.9292805000441,432.9307240000344,431.9292805000441,432.9307240000344,431.9292805000441,432.9307240000344,431.9292805000441,432.43000410002423,431.9292805000441,432.43000410002423,431.9292805000441,432.43000410002423,431.9292805000441,432.43000410002423,431.9292805000441,None,,,,,11011,001,2024_Jan_02_1036,nback,2021.2.3,60.0090973715877,
0-back,instructions\back-0.png,conditions\00back-e.xlsx,,,experiment,0,2,stim\gray.png,stim\yellow.png,stim\gray.png,stim\gray.png,left,,,,,,,,,,,,,0,3,3,0,0,4,4,4,,,,,,,,,,,,,,,,,,,,,,,,,,,,,,,,,,,,,,,,,,,,,,,,,,,,,,,,left,1,0.42153809999581426,433.4313625000068,None,433.4313625000068,None,433.4313625000068,434.43358870001975,433.4313625000068,434.43358870001975,433.4313625000068,434.43358870001975,433.4313625000068,434.43358870001975,433.4313625000068,433.93295350001426,433.4313625000068,433.93295350001426,433.4313625000068,433.93295350001426,433.4313625000068,433.93295350001426,433.4313625000068,None,,,,,11011,001,2024_Jan_02_1036,nback,2021.2.3,60.0090973715877,
0-back,instructions\back-0.png,conditions\00back-e.xlsx,,,experiment,0,1,stim\yellow.png,stim\gray.png,stim\gray.png,stim\gray.png,up,,,,,,,,,,,,,0,3,3,0,0,5,5,5,,,,,,,,,,,,,,,,,,,,,,,,,,,,,,,,,,,,,,,,,,,,,,,,,,,,,,,,up,1,0.3673280000220984,434.9336763000465,None,434.9336763000465,None,434.9336763000465,435.9351981000509,434.9336763000465,435.9351981000509,434.9336763000465,435.9351981000509,434.9336763000465,435.9351981000509,434.9336763000465,435.434496700007,434.9336763000465,435.434496700007,434.9336763000465,435.434496700007,434.9336763000465,435.434496700007,434.9336763000465,None,,,,,11011,001,2024_Jan_02_1036,nback,2021.2.3,60.0090973715877,
0-back,instructions\back-0.png,conditions\00back-e.xlsx,,,experiment,0,4,stim\gray.png,stim\gray.png,stim\gray.png,stim\yellow.png,down,,,,,,,,,,,,,0,3,3,0,0,6,6,6,,,,,,,,,,,,,,,,,,,,,,,,,,,,,,,,,,,,,,,,,,,,,,,,,,,,,,,,down,1,0.27182229998288676,436.4371935000527,None,436.4371935000527,None,436.4371935000527,437.4375037000282,436.4371935000527,437.4375037000282,436.4371935000527,437.4375037000282,436.4371935000527,437.4375037000282,436.4371935000527,436.9376798000303,436.4371935000527,436.9376798000303,436.4371935000527,436.9376798000303,436.4371935000527,436.9376798000303,436.4371935000527,None,,,,,11011,001,2024_Jan_02_1036,nback,2021.2.3,60.0090973715877,
0-back,instructions\back-0.png,conditions\00back-e.xlsx,,,experiment,0,3,stim\gray.png,stim\gray.png,stim\yellow.png,stim\gray.png,right,,,,,,,,,,,,,0,3,3,0,0,7,7,7,,,,,,,,,,,,,,,,,,,,,,,,,,,,,,,,,,,,,,,,,,,,,,,,,,,,,,,,right,1,0.27461589995073155,437.9380361000076,None,437.9380361000076,None,437.9380361000076,438.94049770000856,437.9380361000076,438.94049770000856,437.9380361000076,438.94049770000856,437.9380361000076,438.94049770000856,437.9380361000076,438.4402629000251,437.9380361000076,438.4402629000251,437.9380361000076,438.4402629000251,437.9380361000076,438.4402629000251,437.9380361000076,None,,,,,11011,001,2024_Jan_02_1036,nback,2021.2.3,60.0090973715877,
0-back,instructions\back-0.png,conditions\00back-e.xlsx,,,experiment,0,4,stim\gray.png,stim\gray.png,stim\gray.png,stim\yellow.png,down,,,,,,,,,,,,,0,3,3,0,0,8,8,8,,,,,,,,,,,,,,,,,,,,,,,,,,,,,,,,,,,,,,,,,,,,,,,,,,,,,,,,down,1,0.5800734999938868,439.4409053000272,None,439.4409053000272,None,439.4409053000272,440.4429896000074,439.4409053000272,440.4429896000074,439.4409053000272,440.4429896000074,439.4409053000272,440.4429896000074,439.4409053000272,439.94124240003293,439.4409053000272,439.94124240003293,439.4409053000272,439.94124240003293,439.4409053000272,439.94124240003293,439.4409053000272,None,,,,,11011,001,2024_Jan_02_1036,nback,2021.2.3,60.0090973715877,
0-back,instructions\back-0.png,conditions\00back-e.xlsx,,,experiment,0,3,stim\gray.png,stim\gray.png,stim\yellow.png,stim\gray.png,right,,,,,,,,,,,,,0,3,3,0,0,9,9,9,,,,,,,,,,,,,,,,,,,,,,,,,,,,,,,,,,,,,,,,,,,,,,,,,,,,,,,,right,1,0.40591269999276847,440.9266705000191,None,440.9266705000191,None,440.9266705000191,441.9274234000477,440.9266705000191,441.9274234000477,440.9266705000191,441.9274234000477,440.9266705000191,441.9274234000477,440.9266705000191,441.42664970003534,440.9266705000191,441.42664970003534,440.9266705000191,441.42664970003534,440.9266705000191,441.42664970003534,440.9266705000191,None,,,,,11011,001,2024_Jan_02_1036,nback,2021.2.3,60.0090973715877,
0-back,instructions\back-0.png,conditions\00back-e.xlsx,,,experiment,0,1,stim\yellow.png,stim\gray.png,stim\gray.png,stim\gray.png,up,,,,,,,,,,,,,0,3,3,0,0,10,10,10,,,,,,,,,,,,,,,,,,,,,,,,,,,,,,,,,,,,,,,,,,,,,,,,,,,,,,,,up,1,0.27232360001653433,442.4285338000045,None,442.4285338000045,None,442.4285338000045,443.43030420003925,442.4285338000045,443.43030420003925,442.4285338000045,443.43030420003925,442.4285338000045,443.43030420003925,442.4285338000045,442.9289344000281,442.4285338000045,442.9289344000281,442.4285338000045,442.9289344000281,442.4285338000045,442.9289344000281,442.4285338000045,None,,,,,11011,001,2024_Jan_02_1036,nback,2021.2.3,60.0090973715877,
0-back,instructions\back-0.png,conditions\00back-e.xlsx,,,experiment,0,2,stim\gray.png,stim\yellow.png,stim\gray.png,stim\gray.png,left,,,,,,,,,,,,,0,3,3,0,0,11,11,11,,,,,,,,,,,,,,,,,,,,,,,,,,,,,,,,,,,,,,,,,,,,,,,,,,,,,,,,left,1,0.21703790000174195,443.93125940003665,None,443.93125940003665,None,443.93125940003665,444.93239490000997,443.93125940003665,444.93239490000997,443.93125940003665,444.93239490000997,443.93125940003665,444.93239490000997,443.93125940003665,444.43112000002293,443.93125940003665,444.43112000002293,443.93125940003665,444.43112000002293,443.93125940003665,444.43112000002293,443.93125940003665,None,,,,,11011,001,2024_Jan_02_1036,nback,2021.2.3,60.0090973715877,
0-back,instructions\back-0.png,conditions\00back-e.xlsx,,,experiment,0,3,stim\gray.png,stim\gray.png,stim\yellow.png,stim\gray.png,right,,,,,,,,,,,,,0,3,3,0,0,12,12,12,,,,,,,,,,,,,,,,,,,,,,,,,,,,,,,,,,,,,,,,,,,,,,,,,,,,,,,,right,1,0.33998370001791045,445.4326235000044,None,445.4326235000044,None,445.4326235000044,446.4341779000242,445.4326235000044,446.4341779000242,445.4326235000044,446.4341779000242,445.4326235000044,446.4341779000242,445.4326235000044,445.9332799000549,445.4326235000044,445.9332799000549,445.4326235000044,445.9332799000549,445.4326235000044,445.9332799000549,445.4326235000044,None,,,,,11011,001,2024_Jan_02_1036,nback,2021.2.3,60.0090973715877,
0-back,instructions\back-0.png,conditions\00back-e.xlsx,,,experiment,0,1,stim\yellow.png,stim\gray.png,stim\gray.png,stim\gray.png,up,,,,,,,,,,,,,0,3,3,0,0,13,13,13,,,,,,,,,,,,,,,,,,,,,,,,,,,,,,,,,,,,,,,,,,,,,,,,,,,,,,,,up,1,0.4221180999884382,446.9347937000566,None,446.9347937000566,None,446.9347937000566,447.93728180002654,446.9347937000566,447.93728180002654,446.9347937000566,447.93728180002654,446.9347937000566,447.93728180002654,446.9347937000566,447.4354915000149,446.9347937000566,447.4354915000149,446.9347937000566,447.4354915000149,446.9347937000566,447.4354915000149,446.9347937000566,None,,,,,11011,001,2024_Jan_02_1036,nback,2021.2.3,60.0090973715877,
0-back,instructions\back-0.png,conditions\00back-e.xlsx,,,experiment,0,4,stim\gray.png,stim\gray.png,stim\gray.png,stim\yellow.png,down,,,,,,,,,,,,,0,3,3,0,0,14,14,14,,,,,,,,,,,,,,,,,,,,,,,,,,,,,,,,,,,,,,,,,,,,,,,,,,,,,,,,down,1,0.48755769996205345,448.4370685000322,None,448.4370685000322,None,448.4370685000322,449.43848360003904,448.4370685000322,449.43848360003904,448.4370685000322,449.43848360003904,448.4370685000322,449.43848360003904,448.4370685000322,448.93780550005613,448.4370685000322,448.93780550005613,448.4370685000322,448.93780550005613,448.4370685000322,448.93780550005613,448.4370685000322,None,,,,,11011,001,2024_Jan_02_1036,nback,2021.2.3,60.0090973715877,
0-back,instructions\back-0.png,conditions\00back-e.xlsx,,,experiment,0,2,stim\gray.png,stim\yellow.png,stim\gray.png,stim\gray.png,left,,,,,,,,,,,,,0,3,3,0,0,15,15,15,,,,,,,,,,,,,,,,,,,,,,,,,,,,,,,,,,,,,,,,,,,,,,,,,,,,,,,,left,1,0.3528019999503158,449.93951950001065,None,449.93951950001065,None,449.93951950001065,450.9414838000084,449.93951950001065,450.9414838000084,449.93951950001065,450.9414838000084,449.93951950001065,450.9414838000084,449.93951950001065,450.4409561000066,449.93951950001065,450.4409561000066,449.93951950001065,450.4409561000066,449.93951950001065,450.4409561000066,449.93951950001065,None,,,,,11011,001,2024_Jan_02_1036,nback,2021.2.3,60.0090973715877,
0-back,instructions\back-0.png,conditions\00back-e.xlsx,,,experiment,0,1,stim\yellow.png,stim\gray.png,stim\gray.png,stim\gray.png,up,,,,,,,,,,,,,0,3,3,0,0,16,16,16,,,,,,,,,,,,,,,,,,,,,,,,,,,,,,,,,,,,,,,,,,,,,,,,,,,,,,,,up,1,0.2911939999903552,451.4413268000353,None,451.4413268000353,None,451.4413268000353,452.44370980001986,451.4413268000353,452.44370980001986,451.4413268000353,452.44370980001986,451.4413268000353,452.44370980001986,451.4413268000353,451.9423338000197,451.4413268000353,451.9423338000197,451.4413268000353,451.9423338000197,451.4413268000353,451.9423338000197,451.4413268000353,None,,,,,11011,001,2024_Jan_02_1036,nback,2021.2.3,60.0090973715877,
0-back,instructions\back-0.png,conditions\00back-e.xlsx,,,experiment,0,2,stim\gray.png,stim\yellow.png,stim\gray.png,stim\gray.png,left,,,,,,,,,,,,,0,3,3,0,0,17,17,17,,,,,,,,,,,,,,,,,,,,,,,,,,,,,,,,,,,,,,,,,,,,,,,,,,,,,,,,left,1,0.4128912999876775,452.927628000034,None,452.927628000034,None,452.927628000034,453.92943250003736,452.927628000034,453.92943250003736,452.927628000034,453.92943250003736,452.927628000034,453.92943250003736,452.927628000034,453.4284353000112,452.927628000034,453.4284353000112,452.927628000034,453.4284353000112,452.927628000034,453.4284353000112,452.927628000034,None,,,,,11011,001,2024_Jan_02_1036,nback,2021.2.3,60.0090973715877,
