backseq,backinstr,backfile,instruction,size_in,Trialtype,back,number,P1,P2,P3,P4,corrAns,trials_practice.thisRepN,trials_practice.thisTrialN,trials_practice.thisN,trials_practice.thisIndex,trials.thisRepN,trials.thisTrialN,trials.thisN,trials.thisIndex,trials_3.thisRepN,trials_3.thisTrialN,trials_3.thisN,trials_3.thisIndex,trials_2.thisRepN,trials_2.thisTrialN,trials_2.thisN,trials_2.thisIndex,trials_4.thisRepN,trials_4.thisTrialN,trials_4.thisN,trials_4.thisIndex,image.started,image.stopped,image_2.started,image_2.stopped,key_resp.keys,key_resp.rt,key_resp.started,key_resp.stopped,image_3.started,image_3.stopped,key_resp_2.keys,key_resp_2.rt,key_resp_2.started,key_resp_2.stopped,image_4.started,image_4.stopped,text.started,text.stopped,H1.started,H1.stopped,H2.started,H2.stopped,H3.started,H3.stopped,H4.started,H4.stopped,key_resp_3.keys,key_resp_3.corr,key_resp_3.rt,key_resp_3.started,key_resp_3.stopped,text_4.started,text_4.stopped,F1.started,F1.stopped,F2.started,F2.stopped,F3.started,F3.stopped,F4.started,F4.stopped,image_7.started,image_7.stopped,text_5.started,text_5.stopped,key_resp_6.keys,key_resp_6.rt,key_resp_6.started,key_resp_6.stopped,image_5.started,image_5.stopped,key_resp_4.keys,key_resp_4.rt,key_resp_4.started,key_resp_4.stopped,key_resp_5.keys,key_resp_5.corr,key_resp_5.started,key_resp_5.stopped,text_3.started,text_3.stopped,H1_2.started,H1_2.stopped,H2_2.started,H2_2.stopped,H3_2.started,H3_2.stopped,H4_2.started,H4_2.stopped,F1_2.started,F1_2.stopped,F2_2.started,F2_2.stopped,F3_2.started,F3_2.stopped,F4_2.started,F4_2.stopped,image_8.started,image_8.stopped,key_resp_5.rt,text_2.started,text_2.stopped,image_6.started,image_6.stopped,participant,session,date,expName,psychopyVersion,frameRate,
,,,,,,,,,,,,,,,,,,,,,,,,,,,,,,,,,13.260304600000381,None,14.212338499957696,None,space,3.53818739997223,14.212338499957696,None,,,,,,,,,,,,,,,,,,,,,,,,,,,,,,,,,,,,,,,,,,,,,,,,,,,,,,,,,,,,,,,,,,,,,,,,,,,,,11027,001,2024_Jan_10_1123,nback,2021.2.3,59.949666239870176,
0-back,instructions\back-0.png,conditions\0back-p.xlsx,instructions\0-BACK.png,"(15, 8)",practice,0,1,stim\yellow.png,stim\gray.png,stim\gray.png,stim\gray.png,up,0,0,0,0,0,0,0,0,0,0,0,0,,,,,,,,,,,,,,,,,17.81773929996416,None,space,3.9796741001773626,17.81773929996416,None,21.973665499826893,26.481724799843505,26.429915599990636,None,26.848101099953055,27.848726499825716,26.848101099953055,27.848726499825716,26.848101099953055,27.848726499825716,26.848101099953055,27.848726499825716,up,1,0.4532329000066966,26.848101099953055,None,26.848101099953055,None,26.848101099953055,27.34838439989835,26.848101099953055,27.34838439989835,26.848101099953055,27.34838439989835,26.848101099953055,27.34838439989835,26.848101099953055,None,,,,,,,,,,,,,,,,,,,,,,,,,,,,,,,,,,,,,,,,,,11027,001,2024_Jan_10_1123,nback,2021.2.3,59.949666239870176,
0-back,instructions\back-0.png,conditions\0back-p.xlsx,instructions\0-BACK.png,"(15, 8)",practice,0,2,stim\gray.png,stim\yellow.png,stim\gray.png,stim\gray.png,left,0,0,0,0,0,0,0,0,0,1,1,1,,,,,,,,,,,,,,,,,,,,,,,,,,,28.332641599932685,29.334867500001565,28.332641599932685,29.334867500001565,28.332641599932685,29.334867500001565,28.332641599932685,29.334867500001565,left,1,0.3444865997880697,28.332641599932685,None,28.332641599932685,None,28.332641599932685,28.8343775998801,28.332641599932685,28.8343775998801,28.332641599932685,28.8343775998801,28.332641599932685,28.8343775998801,28.332641599932685,None,,,,,,,,,,,,,,,,,,,,,,,,,,,,,,,,,,,,,,,,,,11027,001,2024_Jan_10_1123,nback,2021.2.3,59.949666239870176,
0-back,instructions\back-0.png,conditions\0back-p.xlsx,instructions\0-BACK.png,"(15, 8)",practice,0,3,stim\gray.png,stim\gray.png,stim\yellow.png,stim\gray.png,right,0,0,0,0,0,0,0,0,0,2,2,2,,,,,,,,,,,,,,,,,,,,,,,,,,,29.83738989988342,30.836958799976856,29.83738989988342,30.836958799976856,29.83738989988342,30.836958799976856,29.83738989988342,30.836958799976856,right,1,0.27165879984386265,29.83738989988342,None,29.83738989988342,None,29.83738989988342,30.35260759992525,29.83738989988342,30.35260759992525,29.83738989988342,30.35260759992525,29.83738989988342,30.35260759992525,29.83738989988342,None,,,,,,,,,,,,,,,,,,,,,,,,,,,,,,,,,,,,,,,,,,11027,001,2024_Jan_10_1123,nback,2021.2.3,59.949666239870176,
0-back,instructions\back-0.png,conditions\0back-p.xlsx,instructions\0-BACK.png,"(15, 8)",practice,0,4,stim\gray.png,stim\gray.png,stim\gray.png,stim\yellow.png,down,0,0,0,0,0,0,0,0,0,3,3,3,,,,,,,,,,,,,,,,,,,,,,,,,,,31.337126299971715,32.33940289984457,31.337126299971715,32.33940289984457,31.337126299971715,32.33940289984457,31.337126299971715,32.33940289984457,down,1,0.3401389999780804,31.337126299971715,None,31.337126299971715,None,31.337126299971715,31.83883689995855,31.337126299971715,31.83883689995855,31.337126299971715,31.83883689995855,31.337126299971715,31.83883689995855,31.337126299971715,None,,,,,,,,,,,,,,,,,,,,,,,,,,,,,,,,,,,,,,,,,,11027,001,2024_Jan_10_1123,nback,2021.2.3,59.949666239870176,
0-back,instructions\back-0.png,conditions\0back-p.xlsx,instructions\0-BACK.png,"(15, 8)",practice,0,2,stim\gray.png,stim\yellow.png,stim\gray.png,stim\gray.png,left,0,0,0,0,0,0,0,0,0,4,4,4,,,,,,,,,,,,,,,,,,,,,,,,,,,32.83995409985073,33.84166929987259,32.83995409985073,33.84166929987259,32.83995409985073,33.84166929987259,32.83995409985073,33.84166929987259,left,1,0.2612793000880629,32.83995409985073,None,32.83995409985073,None,32.83995409985073,33.340979899978265,32.83995409985073,33.340979899978265,32.83995409985073,33.340979899978265,32.83995409985073,33.340979899978265,32.83995409985073,None,,,,,,,,,,,,,,,,,,,,,,,,,,,,,,,,,,,,,,,,,,11027,001,2024_Jan_10_1123,nback,2021.2.3,59.949666239870176,
0-back,instructions\back-0.png,conditions\0back-p.xlsx,instructions\0-BACK.png,"(15, 8)",practice,0,1,stim\yellow.png,stim\gray.png,stim\gray.png,stim\gray.png,up,0,0,0,0,0,0,0,0,0,5,5,5,,,,,,,,,,,,,,,,,,,,,,,,,,,34.342202299972996,35.34387609991245,34.342202299972996,35.34387609991245,34.342202299972996,35.34387609991245,34.342202299972996,35.34387609991245,up,1,0.28719979990273714,34.342202299972996,None,34.342202299972996,None,34.342202299972996,34.84304769989103,34.342202299972996,34.84304769989103,34.342202299972996,34.84304769989103,34.342202299972996,34.84304769989103,34.342202299972996,None,,,,,,,,,,,,,,,,,,,,,,,,,,,,,,,,,,,,,,,,,,11027,001,2024_Jan_10_1123,nback,2021.2.3,59.949666239870176,
0-back,instructions\back-0.png,conditions\0back-p.xlsx,instructions\0-BACK.png,"(15, 8)",practice,0,4,stim\gray.png,stim\gray.png,stim\gray.png,stim\yellow.png,down,0,0,0,0,0,0,0,0,0,6,6,6,,,,,,,,,,,,,,,,,,,,,,,,,,,35.843936499906704,36.845202500000596,35.843936499906704,36.845202500000596,35.843936499906704,36.845202500000596,35.843936499906704,36.845202500000596,down,1,0.2731019000057131,35.843936499906704,None,35.843936499906704,None,35.843936499906704,36.34537609992549,35.843936499906704,36.34537609992549,35.843936499906704,36.34537609992549,35.843936499906704,36.34537609992549,35.843936499906704,None,,,,,,,,,,,,,,,,,,,,,,,,,,,,,,,,,,,,,,,,,,11027,001,2024_Jan_10_1123,nback,2021.2.3,59.949666239870176,
0-back,instructions\back-0.png,conditions\0back-p.xlsx,instructions\0-BACK.png,"(15, 8)",practice,0,3,stim\gray.png,stim\gray.png,stim\yellow.png,stim\gray.png,right,0,0,0,0,0,0,0,0,0,7,7,7,,,,,,,,,,,,,,,,,,,,,,,,,,,37.32993140001781,38.33186259982176,37.32993140001781,38.33186259982176,37.32993140001781,38.33186259982176,37.32993140001781,38.33186259982176,right,1,0.3232148999813944,37.32993140001781,None,37.32993140001781,None,37.32993140001781,37.830180699937046,37.32993140001781,37.830180699937046,37.32993140001781,37.830180699937046,37.32993140001781,37.830180699937046,37.32993140001781,None,,,,,,,,,,,,,,,,,,,,,,,,,,,,,,,,,,,,,,,,,,11027,001,2024_Jan_10_1123,nback,2021.2.3,59.949666239870176,
0-back,instructions\back-0.png,conditions\0back-p.xlsx,instructions\0-BACK.png,"(15, 8)",practice,0,3,stim\gray.png,stim\gray.png,stim\yellow.png,stim\gray.png,right,0,0,0,0,0,0,0,0,0,8,8,8,,,,,,,,,,,,,,,,,,,,,,,,,,,38.8313558998052,39.83333099982701,38.8313558998052,39.83333099982701,38.8313558998052,39.83333099982701,38.8313558998052,39.83333099982701,right,1,0.3338525998406112,38.8313558998052,None,38.8313558998052,None,38.8313558998052,39.33311999985017,38.8313558998052,39.33311999985017,38.8313558998052,39.33311999985017,38.8313558998052,39.33311999985017,38.8313558998052,None,,,,,,,,,,,,,,,,,,,,,,,,,,,,,,,,,,,,,,,,,,11027,001,2024_Jan_10_1123,nback,2021.2.3,59.949666239870176,
0-back,instructions\back-0.png,conditions\0back-p.xlsx,instructions\0-BACK.png,"(15, 8)",practice,0,4,stim\gray.png,stim\gray.png,stim\gray.png,stim\yellow.png,down,0,0,0,0,0,0,0,0,0,9,9,9,,,,,,,,,,,,,,,,,,,,,,,,,,,40.33378949994221,41.33609059988521,40.33378949994221,41.33609059988521,40.33378949994221,41.33609059988521,40.33378949994221,41.33609059988521,down,1,0.3033712001051754,40.33378949994221,None,40.33378949994221,None,40.33378949994221,40.83434609998949,40.33378949994221,40.83434609998949,40.33378949994221,40.83434609998949,40.33378949994221,40.83434609998949,40.33378949994221,None,,,,,,,,,,,,,,,,,,,,,,,,,,,,,,,,,,,,,,,,,,11027,001,2024_Jan_10_1123,nback,2021.2.3,59.949666239870176,
0-back,instructions\back-0.png,conditions\0back-p.xlsx,instructions\0-BACK.png,"(15, 8)",practice,0,1,stim\yellow.png,stim\gray.png,stim\gray.png,stim\gray.png,up,0,0,0,0,0,0,0,0,0,10,10,10,,,,,,,,,,,,,,,,,,,,,,,,,,,41.83594789984636,42.839409299893305,41.83594789984636,42.839409299893305,41.83594789984636,42.839409299893305,41.83594789984636,42.839409299893305,up,1,0.35370160010643303,41.83594789984636,None,41.83594789984636,None,41.83594789984636,42.337967299856246,41.83594789984636,42.337967299856246,41.83594789984636,42.337967299856246,41.83594789984636,42.337967299856246,41.83594789984636,None,,,,,,,,,,,,,,,,,,,,,,,,,,,,,,,,,,,,,,,,,,11027,001,2024_Jan_10_1123,nback,2021.2.3,59.949666239870176,
0-back,instructions\back-0.png,conditions\0back-p.xlsx,instructions\0-BACK.png,"(15, 8)",practice,0,2,stim\gray.png,stim\yellow.png,stim\gray.png,stim\gray.png,left,0,0,0,0,0,0,0,0,0,11,11,11,,,,,,,,,,,,,,,,,,,,,,,,,,,43.33859099983238,44.340559399919584,43.33859099983238,44.340559399919584,43.33859099983238,44.340559399919584,43.33859099983238,44.340559399919584,left,1,0.30677520018070936,43.33859099983238,None,43.33859099983238,None,43.33859099983238,43.83946379995905,43.33859099983238,43.83946379995905,43.33859099983238,43.83946379995905,43.33859099983238,43.83946379995905,43.33859099983238,None,,,,,,,,,,,,,,,,,,,,,,,,,,,,,,,,,,,,,,,,,,11027,001,2024_Jan_10_1123,nback,2021.2.3,59.949666239870176,
0-back,instructions\back-0.png,conditions\0back-p.xlsx,instructions\0-BACK.png,"(15, 8)",practice,0,4,stim\gray.png,stim\gray.png,stim\gray.png,stim\yellow.png,down,0,0,0,0,0,0,0,0,0,12,12,12,,,,,,,,,,,,,,,,,,,,,,,,,,,44.84119149995968,45.84210200002417,44.84119149995968,45.84210200002417,44.84119149995968,45.84210200002417,44.84119149995968,45.84210200002417,down,1,0.33995240018703043,44.84119149995968,None,44.84119149995968,None,44.84119149995968,45.341776999877766,44.84119149995968,45.341776999877766,44.84119149995968,45.341776999877766,44.84119149995968,45.341776999877766,44.84119149995968,None,,,,,,,,,,,,,,,,,,,,,,,,,,,,,,,,,,,,,,,,,,11027,001,2024_Jan_10_1123,nback,2021.2.3,59.949666239870176,
0-back,instructions\back-0.png,conditions\0back-p.xlsx,instructions\0-BACK.png,"(15, 8)",practice,0,3,stim\gray.png,stim\gray.png,stim\yellow.png,stim\gray.png,right,0,0,0,0,0,0,0,0,0,13,13,13,,,,,,,,,,,,,,,,,,,,,,,,,,,46.34290499985218,47.34480049996637,46.34290499985218,47.34480049996637,46.34290499985218,47.34480049996637,46.34290499985218,47.34480049996637,right,1,0.29429120011627674,46.34290499985218,None,46.34290499985218,None,46.34290499985218,46.84428650001064,46.34290499985218,46.84428650001064,46.34290499985218,46.84428650001064,46.34290499985218,46.84428650001064,46.34290499985218,None,,,,,,,,,,,,,,,,,,,,,,,,,,,,,,,,,,,,,,,,,,11027,001,2024_Jan_10_1123,nback,2021.2.3,59.949666239870176,
0-back,instructions\back-0.png,conditions\0back-p.xlsx,instructions\0-BACK.png,"(15, 8)",practice,0,1,stim\yellow.png,stim\gray.png,stim\gray.png,stim\gray.png,up,0,0,0,0,0,0,0,0,0,14,14,14,,,,,,,,,,,,,,,,,,,,,,,,,,,47.828166199848056,48.83019259991124,47.828166199848056,48.83019259991124,47.828166199848056,48.83019259991124,47.828166199848056,48.83019259991124,up,1,0.3049836999271065,47.828166199848056,None,47.828166199848056,None,47.828166199848056,48.32955319993198,47.828166199848056,48.32955319993198,47.828166199848056,48.32955319993198,47.828166199848056,48.32955319993198,47.828166199848056,None,,,,,,,,,,,,,,,,,,,,,,,,,,,,,,,,,,,,,,,,,,11027,001,2024_Jan_10_1123,nback,2021.2.3,59.949666239870176,
0-back,instructions\back-0.png,conditions\0back-p.xlsx,instructions\0-BACK.png,"(15, 8)",practice,0,2,stim\gray.png,stim\yellow.png,stim\gray.png,stim\gray.png,left,0,0,0,0,0,0,0,0,0,15,15,15,,,,,,,,,,,,,,,,,,,,,,,,,,,49.33040829980746,50.332451900001615,49.33040829980746,50.332451900001615,49.33040829980746,50.332451900001615,49.33040829980746,50.332451900001615,left,1,0.25885729980655015,49.33040829980746,None,49.33040829980746,None,49.33040829980746,49.831224999856204,49.33040829980746,49.831224999856204,49.33040829980746,49.831224999856204,49.33040829980746,49.831224999856204,49.33040829980746,None,,,,,,,,,,,,,,,,,,,,,,,,,,,,,,,,,,,,,,,,,,11027,001,2024_Jan_10_1123,nback,2021.2.3,59.949666239870176,
0-back,instructions\back-0.png,conditions\0back-p.xlsx,instructions\0-BACK.png,"(15, 8)",practice,0,3,stim\gray.png,stim\gray.png,stim\yellow.png,stim\gray.png,right,0,0,0,0,0,0,0,0,0,16,16,16,,,,,,,,,,,,,,,,,,,,,,,,,,,50.83260409999639,51.83477779990062,50.83260409999639,51.83477779990062,50.83260409999639,51.83477779990062,50.83260409999639,51.83477779990062,right,1,0.2526273999828845,50.83260409999639,None,50.83260409999639,None,50.83260409999639,51.333521199878305,50.83260409999639,51.333521199878305,50.83260409999639,51.333521199878305,50.83260409999639,51.333521199878305,50.83260409999639,None,,,,,,,,,,,,,,,,,,,,,,,,,,,,,,,,,,,,,,,,,,11027,001,2024_Jan_10_1123,nback,2021.2.3,59.949666239870176,
0-back,instructions\back-0.png,conditions\0back-p.xlsx,instructions\0-BACK.png,"(15, 8)",practice,0,1,stim\yellow.png,stim\gray.png,stim\gray.png,stim\gray.png,up,0,0,0,0,0,0,0,0,0,17,17,17,,,,,,,,,,,,,,,,,,,,,,,,,,,52.334947400027886,53.336634299950674,52.334947400027886,53.336634299950674,52.334947400027886,53.336634299950674,52.334947400027886,53.336634299950674,up,1,0.3344263001345098,52.334947400027886,None,52.334947400027886,None,52.334947400027886,52.83594539994374,52.334947400027886,52.83594539994374,52.334947400027886,52.83594539994374,52.334947400027886,52.83594539994374,52.334947400027886,None,,,,,,,,,,,,,,,,,,,,,,,,,,,,,,,,,,,,,,,,,,11027,001,2024_Jan_10_1123,nback,2021.2.3,59.949666239870176,
0-back,instructions\back-0.png,conditions\0back-p.xlsx,instructions\0-BACK.png,"(15, 8)",practice,0,4,stim\gray.png,stim\gray.png,stim\gray.png,stim\yellow.png,down,0,0,0,0,0,0,0,0,0,18,18,18,,,,,,,,,,,,,,,,,,,,,,,,,,,53.837184799835086,54.83865219983272,53.837184799835086,54.83865219983272,53.837184799835086,54.83865219983272,53.837184799835086,54.83865219983272,down,1,0.35260419989936054,53.837184799835086,None,53.837184799835086,None,53.837184799835086,54.33842569985427,53.837184799835086,54.33842569985427,53.837184799835086,54.33842569985427,53.837184799835086,54.33842569985427,53.837184799835086,None,,,,,,,,,,,,,,,,,,,,,,,,,,,,,,,,,,,,,,,,,,11027,001,2024_Jan_10_1123,nback,2021.2.3,59.949666239870176,
0-back,instructions\back-0.png,conditions\0back-p.xlsx,instructions\0-BACK.png,"(15, 8)",practice,0,2,stim\gray.png,stim\yellow.png,stim\gray.png,stim\gray.png,left,0,0,0,0,0,0,0,0,0,19,19,19,,,,,,,,,,,,,,,,,,,,,,,,,,,55.339363399893045,56.34116389998235,55.339363399893045,56.34116389998235,55.339363399893045,56.34116389998235,55.339363399893045,56.34116389998235,left,1,0.30662130005657673,55.339363399893045,None,55.339363399893045,None,55.339363399893045,55.840213999850675,55.339363399893045,55.840213999850675,55.339363399893045,55.840213999850675,55.339363399893045,55.840213999850675,55.339363399893045,None,,,,,,,,,,,,,,,,,,,,,,,,,,,,,,,,,,,,,,,,,,11027,001,2024_Jan_10_1123,nback,2021.2.3,59.949666239870176,
0-back,instructions\back-0.png,conditions\0back-p.xlsx,instructions\0-BACK.png,"(15, 8)",,,,,,,,,0,0,0,0,0,0,0,0,,,,,,,,,,,,,,,,,,,,,,,,,,,,,,,,,,,,,,,,,,,,,,,,,,,,,,,,,,,,,,,,,,,,,,,,,,,,,,,,,,,,,,,,,,,,,,,,,11027,001,2024_Jan_10_1123,nback,2021.2.3,59.949666239870176,
1-back,instructions\back-1.png,conditions\1back-p.xlsx,instructions\1-BACK.png,"(25, 15)",practice,1,1,stim\yellow.png,stim\gray.png,stim\gray.png,stim\gray.png,None,0,0,0,0,0,1,1,1,0,0,0,0,,,,,,,,,,,,,,,,,56.992649799911305,None,space,2.8685621998738497,56.992649799911305,None,60.01341199991293,64.52105439989828,64.48610939993523,None,64.90430990001187,65.9055852999445,64.90430990001187,65.9055852999445,64.90430990001187,65.9055852999445,64.90430990001187,65.9055852999445,up,0,0.3817261999938637,64.90430990001187,None,64.90430990001187,None,64.90430990001187,65.40492429980077,64.90430990001187,65.40492429980077,64.90430990001187,65.40492429980077,64.90430990001187,65.40492429980077,64.90430990001187,None,,,,,,,,,,,,,,,,,,,,,,,,,,,,,,,,,,,,,,,,,,11027,001,2024_Jan_10_1123,nback,2021.2.3,59.949666239870176,
1-back,instructions\back-1.png,conditions\1back-p.xlsx,instructions\1-BACK.png,"(25, 15)",practice,1,2,stim\gray.png,stim\yellow.png,stim\gray.png,stim\gray.png,up,0,0,0,0,0,1,1,1,0,1,1,1,,,,,,,,,,,,,,,,,,,,,,,,,,,66.38938419986516,67.39068700000644,66.38938419986516,67.39068700000644,66.38938419986516,67.39068700000644,66.38938419986516,67.39068700000644,up,1,0.519752100110054,66.38938419986516,None,66.38938419986516,None,66.38938419986516,66.8895840998739,66.38938419986516,66.8895840998739,66.38938419986516,66.8895840998739,66.38938419986516,66.8895840998739,66.38938419986516,None,,,,,,,,,,,,,,,,,,,,,,,,,,,,,,,,,,,,,,,,,,11027,001,2024_Jan_10_1123,nback,2021.2.3,59.949666239870176,
1-back,instructions\back-1.png,conditions\1back-p.xlsx,instructions\1-BACK.png,"(25, 15)",practice,1,3,stim\gray.png,stim\gray.png,stim\yellow.png,stim\gray.png,left,0,0,0,0,0,1,1,1,0,2,2,2,,,,,,,,,,,,,,,,,,,,,,,,,,,67.89128330000676,68.89329359983094,67.89128330000676,68.89329359983094,67.89128330000676,68.89329359983094,67.89128330000676,68.89329359983094,left,1,0.8340750001370907,67.89128330000676,None,67.89128330000676,None,67.89128330000676,68.3930944998283,67.89128330000676,68.3930944998283,67.89128330000676,68.3930944998283,67.89128330000676,68.3930944998283,67.89128330000676,None,,,,,,,,,,,,,,,,,,,,,,,,,,,,,,,,,,,,,,,,,,11027,001,2024_Jan_10_1123,nback,2021.2.3,59.949666239870176,
1-back,instructions\back-1.png,conditions\1back-p.xlsx,instructions\1-BACK.png,"(25, 15)",practice,1,4,stim\gray.png,stim\gray.png,stim\gray.png,stim\yellow.png,right,0,0,0,0,0,1,1,1,0,3,3,3,,,,,,,,,,,,,,,,,,,,,,,,,,,69.39430159982294,70.3957183000166,69.39430159982294,70.3957183000166,69.39430159982294,70.3957183000166,69.39430159982294,70.3957183000166,right,1,0.4269983998965472,69.39430159982294,None,69.39430159982294,None,69.39430159982294,69.89445879985578,69.39430159982294,69.89445879985578,69.39430159982294,69.89445879985578,69.39430159982294,69.89445879985578,69.39430159982294,None,,,,,,,,,,,,,,,,,,,,,,,,,,,,,,,,,,,,,,,,,,11027,001,2024_Jan_10_1123,nback,2021.2.3,59.949666239870176,
1-back,instructions\back-1.png,conditions\1back-p.xlsx,instructions\1-BACK.png,"(25, 15)",practice,1,2,stim\gray.png,stim\yellow.png,stim\gray.png,stim\gray.png,down,0,0,0,0,0,1,1,1,0,4,4,4,,,,,,,,,,,,,,,,,,,,,,,,,,,70.89581929985434,71.89714999985881,70.89581929985434,71.89714999985881,70.89581929985434,71.89714999985881,70.89581929985434,71.89714999985881,down,1,0.3335868001449853,70.89581929985434,None,70.89581929985434,None,70.89581929985434,71.39678670000285,70.89581929985434,71.39678670000285,70.89581929985434,71.39678670000285,70.89581929985434,71.39678670000285,70.89581929985434,None,,,,,,,,,,,,,,,,,,,,,,,,,,,,,,,,,,,,,,,,,,11027,001,2024_Jan_10_1123,nback,2021.2.3,59.949666239870176,
1-back,instructions\back-1.png,conditions\1back-p.xlsx,instructions\1-BACK.png,"(25, 15)",practice,1,1,stim\yellow.png,stim\gray.png,stim\gray.png,stim\gray.png,left,0,0,0,0,0,1,1,1,0,5,5,5,,,,,,,,,,,,,,,,,,,,,,,,,,,72.39811229985207,73.40020129992627,72.39811229985207,73.40020129992627,72.39811229985207,73.40020129992627,72.39811229985207,73.40020129992627,left,1,0.3197813001461327,72.39811229985207,None,72.39811229985207,None,72.39811229985207,72.89964869990945,72.39811229985207,72.89964869990945,72.39811229985207,72.89964869990945,72.39811229985207,72.89964869990945,72.39811229985207,None,,,,,,,,,,,,,,,,,,,,,,,,,,,,,,,,,,,,,,,,,,11027,001,2024_Jan_10_1123,nback,2021.2.3,59.949666239870176,
1-back,instructions\back-1.png,conditions\1back-p.xlsx,instructions\1-BACK.png,"(25, 15)",practice,1,4,stim\gray.png,stim\gray.png,stim\gray.png,stim\yellow.png,up,0,0,0,0,0,1,1,1,0,6,6,6,,,,,,,,,,,,,,,,,,,,,,,,,,,73.88370409980416,74.88493659999222,73.88370409980416,74.88493659999222,73.88370409980416,74.88493659999222,73.88370409980416,74.88493659999222,up,1,0.3454026998952031,73.88370409980416,None,73.88370409980416,None,73.88370409980416,74.38428959995508,73.88370409980416,74.38428959995508,73.88370409980416,74.38428959995508,73.88370409980416,74.38428959995508,73.88370409980416,None,,,,,,,,,,,,,,,,,,,,,,,,,,,,,,,,,,,,,,,,,,11027,001,2024_Jan_10_1123,nback,2021.2.3,59.949666239870176,
1-back,instructions\back-1.png,conditions\1back-p.xlsx,instructions\1-BACK.png,"(25, 15)",practice,1,3,stim\gray.png,stim\gray.png,stim\yellow.png,stim\gray.png,down,0,0,0,0,0,1,1,1,0,7,7,7,,,,,,,,,,,,,,,,,,,,,,,,,,,75.38567509991117,76.38805549987592,75.38567509991117,76.38805549987592,75.38567509991117,76.38805549987592,75.38567509991117,76.38805549987592,down,1,0.3237350999843329,75.38567509991117,None,75.38567509991117,None,75.38567509991117,75.88746090000495,75.38567509991117,75.88746090000495,75.38567509991117,75.88746090000495,75.38567509991117,75.88746090000495,75.38567509991117,None,,,,,,,,,,,,,,,,,,,,,,,,,,,,,,,,,,,,,,,,,,11027,001,2024_Jan_10_1123,nback,2021.2.3,59.949666239870176,
1-back,instructions\back-1.png,conditions\1back-p.xlsx,instructions\1-BACK.png,"(25, 15)",practice,1,3,stim\gray.png,stim\gray.png,stim\yellow.png,stim\gray.png,right,0,0,0,0,0,1,1,1,0,8,8,8,,,,,,,,,,,,,,,,,,,,,,,,,,,76.8879517999012,77.88929169997573,76.8879517999012,77.88929169997573,76.8879517999012,77.88929169997573,76.8879517999012,77.88929169997573,left,0,0.16532619995996356,76.8879517999012,None,76.8879517999012,None,76.8879517999012,77.38941179984249,76.8879517999012,77.38941179984249,76.8879517999012,77.38941179984249,76.8879517999012,77.38941179984249,76.8879517999012,None,,,,,,,,,,,,,,,,,,,,,,,,,,,,,,,,,,,,,,,,,,11027,001,2024_Jan_10_1123,nback,2021.2.3,59.949666239870176,
1-back,instructions\back-1.png,conditions\1back-p.xlsx,instructions\1-BACK.png,"(25, 15)",practice,1,4,stim\gray.png,stim\gray.png,stim\gray.png,stim\yellow.png,right,0,0,0,0,0,1,1,1,0,9,9,9,,,,,,,,,,,,,,,,,,,,,,,,,,,78.39026499981992,79.39287059986964,78.39026499981992,79.39287059986964,78.39026499981992,79.39287059986964,78.39026499981992,79.39287059986964,right,1,0.2069199001416564,78.39026499981992,None,78.39026499981992,None,78.39026499981992,78.89167739986442,78.39026499981992,78.89167739986442,78.39026499981992,78.89167739986442,78.39026499981992,78.89167739986442,78.39026499981992,None,,,,,,,,,,,,,,,,,,,,,,,,,,,,,,,,,,,,,,,,,,11027,001,2024_Jan_10_1123,nback,2021.2.3,59.949666239870176,
1-back,instructions\back-1.png,conditions\1back-p.xlsx,instructions\1-BACK.png,"(25, 15)",practice,1,1,stim\yellow.png,stim\gray.png,stim\gray.png,stim\gray.png,down,0,0,0,0,0,1,1,1,0,10,10,10,,,,,,,,,,,,,,,,,,,,,,,,,,,79.89308089995757,80.89440649980679,79.89308089995757,80.89440649980679,79.89308089995757,80.89440649980679,79.89308089995757,80.89440649980679,down,1,0.46447470015846193,79.89308089995757,None,79.89308089995757,None,79.89308089995757,80.39366209995933,79.89308089995757,80.39366209995933,79.89308089995757,80.39366209995933,79.89308089995757,80.39366209995933,79.89308089995757,None,,,,,,,,,,,,,,,,,,,,,,,,,,,,,,,,,,,,,,,,,,11027,001,2024_Jan_10_1123,nback,2021.2.3,59.949666239870176,
1-back,instructions\back-1.png,conditions\1back-p.xlsx,instructions\1-BACK.png,"(25, 15)",practice,1,2,stim\gray.png,stim\yellow.png,stim\gray.png,stim\gray.png,up,0,0,0,0,0,1,1,1,0,11,11,11,,,,,,,,,,,,,,,,,,,,,,,,,,,81.39483729982749,82.39649900002405,81.39483729982749,82.39649900002405,81.39483729982749,82.39649900002405,81.39483729982749,82.39649900002405,up,1,0.3302734000608325,81.39483729982749,None,81.39483729982749,None,81.39483729982749,81.89547009998932,81.39483729982749,81.89547009998932,81.39483729982749,81.89547009998932,81.39483729982749,81.89547009998932,81.39483729982749,None,,,,,,,,,,,,,,,,,,,,,,,,,,,,,,,,,,,,,,,,,,11027,001,2024_Jan_10_1123,nback,2021.2.3,59.949666239870176,
1-back,instructions\back-1.png,conditions\1back-p.xlsx,instructions\1-BACK.png,"(25, 15)",practice,1,4,stim\gray.png,stim\gray.png,stim\gray.png,stim\yellow.png,left,0,0,0,0,0,1,1,1,0,12,12,12,,,,,,,,,,,,,,,,,,,,,,,,,,,82.89664609986357,83.89841619995423,82.89664609986357,83.89841619995423,82.89664609986357,83.89841619995423,82.89664609986357,83.89841619995423,left,1,0.3326149999629706,82.89664609986357,None,82.89664609986357,None,82.89664609986357,83.39742329996079,82.89664609986357,83.39742329996079,82.89664609986357,83.39742329996079,82.89664609986357,83.39742329996079,82.89664609986357,None,,,,,,,,,,,,,,,,,,,,,,,,,,,,,,,,,,,,,,,,,,11027,001,2024_Jan_10_1123,nback,2021.2.3,59.949666239870176,
1-back,instructions\back-1.png,conditions\1back-p.xlsx,instructions\1-BACK.png,"(25, 15)",practice,1,3,stim\gray.png,stim\gray.png,stim\yellow.png,stim\gray.png,down,0,0,0,0,0,1,1,1,0,13,13,13,,,,,,,,,,,,,,,,,,,,,,,,,,,84.39944239985198,85.40051850001328,84.39944239985198,85.40051850001328,84.39944239985198,85.40051850001328,84.39944239985198,85.40051850001328,down,1,0.2701740001793951,84.39944239985198,None,84.39944239985198,None,84.39944239985198,84.90015010000207,84.39944239985198,84.90015010000207,84.39944239985198,84.90015010000207,84.39944239985198,84.90015010000207,84.39944239985198,None,,,,,,,,,,,,,,,,,,,,,,,,,,,,,,,,,,,,,,,,,,11027,001,2024_Jan_10_1123,nback,2021.2.3,59.949666239870176,
1-back,instructions\back-1.png,conditions\1back-p.xlsx,instructions\1-BACK.png,"(25, 15)",practice,1,1,stim\yellow.png,stim\gray.png,stim\gray.png,stim\gray.png,right,0,0,0,0,0,1,1,1,0,14,14,14,,,,,,,,,,,,,,,,,,,,,,,,,,,85.88464109995402,86.88658609986305,85.88464109995402,86.88658609986305,85.88464109995402,86.88658609986305,85.88464109995402,86.88658609986305,right,1,0.4894691000226885,85.88464109995402,None,85.88464109995402,None,85.88464109995402,86.38651630003005,85.88464109995402,86.38651630003005,85.88464109995402,86.38651630003005,85.88464109995402,86.38651630003005,85.88464109995402,None,,,,,,,,,,,,,,,,,,,,,,,,,,,,,,,,,,,,,,,,,,11027,001,2024_Jan_10_1123,nback,2021.2.3,59.949666239870176,
1-back,instructions\back-1.png,conditions\1back-p.xlsx,instructions\1-BACK.png,"(25, 15)",practice,1,2,stim\gray.png,stim\yellow.png,stim\gray.png,stim\gray.png,up,0,0,0,0,0,1,1,1,0,15,15,15,,,,,,,,,,,,,,,,,,,,,,,,,,,87.38690319983289,88.38836019998416,87.38690319983289,88.38836019998416,87.38690319983289,88.38836019998416,87.38690319983289,88.38836019998416,up,1,0.32253240002319217,87.38690319983289,None,87.38690319983289,None,87.38690319983289,87.88790520001203,87.38690319983289,87.88790520001203,87.38690319983289,87.88790520001203,87.38690319983289,87.88790520001203,87.38690319983289,None,,,,,,,,,,,,,,,,,,,,,,,,,,,,,,,,,,,,,,,,,,11027,001,2024_Jan_10_1123,nback,2021.2.3,59.949666239870176,
1-back,instructions\back-1.png,conditions\1back-p.xlsx,instructions\1-BACK.png,"(25, 15)",practice,1,3,stim\gray.png,stim\gray.png,stim\yellow.png,stim\gray.png,left,0,0,0,0,0,1,1,1,0,16,16,16,,,,,,,,,,,,,,,,,,,,,,,,,,,88.88910059980117,89.89136939984746,88.88910059980117,89.89136939984746,88.88910059980117,89.89136939984746,88.88910059980117,89.89136939984746,left,1,0.27614489989355206,88.88910059980117,None,88.88910059980117,None,88.88910059980117,89.39041009987704,88.88910059980117,89.39041009987704,88.88910059980117,89.39041009987704,88.88910059980117,89.39041009987704,88.88910059980117,None,,,,,,,,,,,,,,,,,,,,,,,,,,,,,,,,,,,,,,,,,,11027,001,2024_Jan_10_1123,nback,2021.2.3,59.949666239870176,
1-back,instructions\back-1.png,conditions\1back-p.xlsx,instructions\1-BACK.png,"(25, 15)",practice,1,1,stim\yellow.png,stim\gray.png,stim\gray.png,stim\gray.png,right,0,0,0,0,0,1,1,1,0,17,17,17,,,,,,,,,,,,,,,,,,,,,,,,,,,90.39123669988476,91.39337249984965,90.39123669988476,91.39337249984965,90.39123669988476,91.39337249984965,90.39123669988476,91.39337249984965,right,1,0.2461564999539405,90.39123669988476,None,90.39123669988476,None,90.39123669988476,90.89306769985706,90.39123669988476,90.89306769985706,90.39123669988476,90.89306769985706,90.39123669988476,90.89306769985706,90.39123669988476,None,,,,,,,,,,,,,,,,,,,,,,,,,,,,,,,,,,,,,,,,,,11027,001,2024_Jan_10_1123,nback,2021.2.3,59.949666239870176,
1-back,instructions\back-1.png,conditions\1back-p.xlsx,instructions\1-BACK.png,"(25, 15)",practice,1,4,stim\gray.png,stim\gray.png,stim\gray.png,stim\yellow.png,up,0,0,0,0,0,1,1,1,0,18,18,18,,,,,,,,,,,,,,,,,,,,,,,,,,,91.8942680999171,92.89585420000367,91.8942680999171,92.89585420000367,91.8942680999171,92.89585420000367,91.8942680999171,92.89585420000367,up,1,0.207634000107646,91.8942680999171,None,91.8942680999171,None,91.8942680999171,92.39509899984114,91.8942680999171,92.39509899984114,91.8942680999171,92.39509899984114,91.8942680999171,92.39509899984114,91.8942680999171,None,,,,,,,,,,,,,,,,,,,,,,,,,,,,,,,,,,,,,,,,,,11027,001,2024_Jan_10_1123,nback,2021.2.3,59.949666239870176,
1-back,instructions\back-1.png,conditions\1back-p.xlsx,instructions\1-BACK.png,"(25, 15)",practice,1,2,stim\gray.png,stim\yellow.png,stim\gray.png,stim\gray.png,down,0,0,0,0,0,1,1,1,0,19,19,19,,,,,,,,,,,,,,,,,,,,,,,,,,,93.39603219996206,94.39807579992339,93.39603219996206,94.39807579992339,93.39603219996206,94.39807579992339,93.39603219996206,94.39807579992339,down,1,0.17714180005714297,93.39603219996206,None,93.39603219996206,None,93.39603219996206,93.89678369998,93.39603219996206,93.89678369998,93.39603219996206,93.89678369998,93.39603219996206,93.89678369998,93.39603219996206,None,,,,,,,,,,,,,,,,,,,,,,,,,,,,,,,,,,,,,,,,,,11027,001,2024_Jan_10_1123,nback,2021.2.3,59.949666239870176,
1-back,instructions\back-1.png,conditions\1back-p.xlsx,instructions\1-BACK.png,"(25, 15)",,,,,,,,,0,0,0,0,0,1,1,1,,,,,,,,,,,,,,,,,,,,,,,,,,,,,,,,,,,,,,,,,,,,,,,,,,,,,,,,,,,,,,,,,,,,,,,,,,,,,,,,,,,,,,,,,,,,,,,,,11027,001,2024_Jan_10_1123,nback,2021.2.3,59.949666239870176,
2-back,instructions\back-2.png,conditions\2back-p.xlsx,instructions\2-BACK.png,"(25, 15)",practice,2,1,stim\yellow.png,stim\gray.png,stim\gray.png,stim\gray.png,None,0,0,0,0,0,2,2,2,0,0,0,0,,,,,,,,,,,,,,,,,95.03139030002058,None,space,2.7025826000608504,95.03139030002058,None,97.90222889999859,102.40917219989933,102.37730069993995,None,102.77758049988188,103.77868349989876,102.77758049988188,103.77868349989876,102.77758049988188,103.77868349989876,102.77758049988188,103.77868349989876,None,1,,102.77758049988188,None,102.77758049988188,None,102.77758049988188,103.27707710000686,102.77758049988188,103.27707710000686,102.77758049988188,103.27707710000686,102.77758049988188,103.27707710000686,102.77758049988188,None,,,,,,,,,,,,,,,,,,,,,,,,,,,,,,,,,,,,,,,,,,11027,001,2024_Jan_10_1123,nback,2021.2.3,59.949666239870176,
2-back,instructions\back-2.png,conditions\2back-p.xlsx,instructions\2-BACK.png,"(25, 15)",practice,2,2,stim\gray.png,stim\yellow.png,stim\gray.png,stim\gray.png,None,0,0,0,0,0,2,2,2,0,1,1,1,,,,,,,,,,,,,,,,,,,,,,,,,,,104.26191509980708,105.263939099852,104.26191509980708,105.263939099852,104.26191509980708,105.263939099852,104.26191509980708,105.263939099852,None,1,,104.26191509980708,None,104.26191509980708,None,104.26191509980708,104.76325910002925,104.26191509980708,104.76325910002925,104.26191509980708,104.76325910002925,104.26191509980708,104.76325910002925,104.26191509980708,None,,,,,,,,,,,,,,,,,,,,,,,,,,,,,,,,,,,,,,,,,,11027,001,2024_Jan_10_1123,nback,2021.2.3,59.949666239870176,
2-back,instructions\back-2.png,conditions\2back-p.xlsx,instructions\2-BACK.png,"(25, 15)",practice,2,3,stim\gray.png,stim\gray.png,stim\yellow.png,stim\gray.png,up,0,0,0,0,0,2,2,2,0,2,2,2,,,,,,,,,,,,,,,,,,,,,,,,,,,105.76395619986579,106.76778210001066,105.76395619986579,106.76778210001066,105.76395619986579,106.76778210001066,105.76395619986579,106.76778210001066,up,1,0.2656223999802023,105.76395619986579,None,105.76395619986579,None,105.76395619986579,106.26539539988153,105.76395619986579,106.26539539988153,105.76395619986579,106.26539539988153,105.76395619986579,106.26539539988153,105.76395619986579,None,,,,,,,,,,,,,,,,,,,,,,,,,,,,,,,,,,,,,,,,,,11027,001,2024_Jan_10_1123,nback,2021.2.3,59.949666239870176,
2-back,instructions\back-2.png,conditions\2back-p.xlsx,instructions\2-BACK.png,"(25, 15)",practice,2,4,stim\gray.png,stim\gray.png,stim\gray.png,stim\yellow.png,left,0,0,0,0,0,2,2,2,0,3,3,3,,,,,,,,,,,,,,,,,,,,,,,,,,,107.2662155998405,108.26778889982961,107.2662155998405,108.26778889982961,107.2662155998405,108.26778889982961,107.2662155998405,108.26778889982961,left,1,0.18710900004953146,107.2662155998405,None,107.2662155998405,None,107.2662155998405,107.76761899981648,107.2662155998405,107.76761899981648,107.2662155998405,107.76761899981648,107.2662155998405,107.76761899981648,107.2662155998405,None,,,,,,,,,,,,,,,,,,,,,,,,,,,,,,,,,,,,,,,,,,11027,001,2024_Jan_10_1123,nback,2021.2.3,59.949666239870176,
2-back,instructions\back-2.png,conditions\2back-p.xlsx,instructions\2-BACK.png,"(25, 15)",practice,2,2,stim\gray.png,stim\yellow.png,stim\gray.png,stim\gray.png,right,0,0,0,0,0,2,2,2,0,4,4,4,,,,,,,,,,,,,,,,,,,,,,,,,,,108.76905040000565,109.76985499984585,108.76905040000565,109.76985499984585,108.76905040000565,109.76985499984585,108.76905040000565,109.76985499984585,down,0,1.3082394001539797,108.76905040000565,None,108.76905040000565,None,108.76905040000565,109.26909799990244,108.76905040000565,109.26909799990244,108.76905040000565,109.26909799990244,108.76905040000565,109.26909799990244,108.76905040000565,None,,,,,,,,,,,,,,,,,,,,,,,,,,,,,,,,,,,,,,,,,,11027,001,2024_Jan_10_1123,nback,2021.2.3,59.949666239870176,
2-back,instructions\back-2.png,conditions\2back-p.xlsx,instructions\2-BACK.png,"(25, 15)",practice,2,1,stim\yellow.png,stim\gray.png,stim\gray.png,stim\gray.png,down,0,0,0,0,0,2,2,2,0,5,5,5,,,,,,,,,,,,,,,,,,,,,,,,,,,110.27071349998005,111.27350119990297,110.27071349998005,111.27350119990297,110.27071349998005,111.27350119990297,110.27071349998005,111.27350119990297,left,0,1.1349408999085426,110.27071349998005,None,110.27071349998005,None,110.27071349998005,110.77153859985992,110.27071349998005,110.77153859985992,110.27071349998005,110.77153859985992,110.27071349998005,110.77153859985992,110.27071349998005,None,,,,,,,,,,,,,,,,,,,,,,,,,,,,,,,,,,,,,,,,,,11027,001,2024_Jan_10_1123,nback,2021.2.3,59.949666239870176,
2-back,instructions\back-2.png,conditions\2back-p.xlsx,instructions\2-BACK.png,"(25, 15)",practice,2,4,stim\gray.png,stim\gray.png,stim\gray.png,stim\yellow.png,left,0,0,0,0,0,2,2,2,0,6,6,6,,,,,,,,,,,,,,,,,,,,,,,,,,,111.75694659980945,112.75759689998813,111.75694659980945,112.75759689998813,111.75694659980945,112.75759689998813,111.75694659980945,112.75759689998813,up,0,1.4163219998590648,111.75694659980945,None,111.75694659980945,None,111.75694659980945,112.25716249994002,111.75694659980945,112.25716249994002,111.75694659980945,112.25716249994002,111.75694659980945,112.25716249994002,111.75694659980945,None,,,,,,,,,,,,,,,,,,,,,,,,,,,,,,,,,,,,,,,,,,11027,001,2024_Jan_10_1123,nback,2021.2.3,59.949666239870176,
2-back,instructions\back-2.png,conditions\2back-p.xlsx,instructions\2-BACK.png,"(25, 15)",practice,2,3,stim\gray.png,stim\gray.png,stim\yellow.png,stim\gray.png,up,0,0,0,0,0,2,2,2,0,7,7,7,,,,,,,,,,,,,,,,,,,,,,,,,,,113.25853160000406,114.2600713998545,113.25853160000406,114.2600713998545,113.25853160000406,114.2600713998545,113.25853160000406,114.2600713998545,down,0,1.3786492999643087,113.25853160000406,None,113.25853160000406,None,113.25853160000406,113.75972349988297,113.25853160000406,113.75972349988297,113.25853160000406,113.75972349988297,113.25853160000406,113.75972349988297,113.25853160000406,None,,,,,,,,,,,,,,,,,,,,,,,,,,,,,,,,,,,,,,,,,,11027,001,2024_Jan_10_1123,nback,2021.2.3,59.949666239870176,
2-back,instructions\back-2.png,conditions\2back-p.xlsx,instructions\2-BACK.png,"(25, 15)",practice,2,3,stim\gray.png,stim\gray.png,stim\yellow.png,stim\gray.png,down,0,0,0,0,0,2,2,2,0,8,8,8,,,,,,,,,,,,,,,,,,,,,,,,,,,114.76056929980405,115.76289459993131,114.76056929980405,115.76289459993131,114.76056929980405,115.76289459993131,114.76056929980405,115.76289459993131,right,0,1.2849184998776764,114.76056929980405,None,114.76056929980405,None,114.76056929980405,115.26277059991844,114.76056929980405,115.26277059991844,114.76056929980405,115.26277059991844,114.76056929980405,115.26277059991844,114.76056929980405,None,,,,,,,,,,,,,,,,,,,,,,,,,,,,,,,,,,,,,,,,,,11027,001,2024_Jan_10_1123,nback,2021.2.3,59.949666239870176,
2-back,instructions\back-2.png,conditions\2back-p.xlsx,instructions\2-BACK.png,"(25, 15)",practice,2,4,stim\gray.png,stim\gray.png,stim\gray.png,stim\yellow.png,right,0,0,0,0,0,2,2,2,0,9,9,9,,,,,,,,,,,,,,,,,,,,,,,,,,,116.26301150000654,117.2663775999099,116.26301150000654,117.2663775999099,116.26301150000654,117.2663775999099,116.26301150000654,117.2663775999099,right,1,1.4063560999929905,116.26301150000654,None,116.26301150000654,None,116.26301150000654,116.76474719983526,116.26301150000654,116.76474719983526,116.26301150000654,116.76474719983526,116.26301150000654,116.76474719983526,116.26301150000654,None,,,,,,,,,,,,,,,,,,,,,,,,,,,,,,,,,,,,,,,,,,11027,001,2024_Jan_10_1123,nback,2021.2.3,59.949666239870176,
2-back,instructions\back-2.png,conditions\2back-p.xlsx,instructions\2-BACK.png,"(25, 15)",practice,2,1,stim\yellow.png,stim\gray.png,stim\gray.png,stim\gray.png,right,0,0,0,0,0,2,2,2,0,10,10,10,,,,,,,,,,,,,,,,,,,,,,,,,,,117.76539759989828,118.76676759985276,117.76539759989828,118.76676759985276,117.76539759989828,118.76676759985276,117.76539759989828,118.76676759985276,None,0,,117.76539759989828,None,117.76539759989828,None,117.76539759989828,118.26591139985248,117.76539759989828,118.26591139985248,117.76539759989828,118.26591139985248,117.76539759989828,118.26591139985248,117.76539759989828,None,,,,,,,,,,,,,,,,,,,,,,,,,,,,,,,,,,,,,,,,,,11027,001,2024_Jan_10_1123,nback,2021.2.3,59.949666239870176,
2-back,instructions\back-2.png,conditions\2back-p.xlsx,instructions\2-BACK.png,"(25, 15)",practice,2,2,stim\gray.png,stim\yellow.png,stim\gray.png,stim\gray.png,down,0,0,0,0,0,2,2,2,0,11,11,11,,,,,,,,,,,,,,,,,,,,,,,,,,,119.26745019992813,120.26960569992661,119.26745019992813,120.26960569992661,119.26745019992813,120.26960569992661,119.26745019992813,120.26960569992661,up,0,1.4580937998834997,119.26745019992813,None,119.26745019992813,None,119.26745019992813,119.7682515999768,119.26745019992813,119.7682515999768,119.26745019992813,119.7682515999768,119.26745019992813,119.7682515999768,119.26745019992813,None,,,,,,,,,,,,,,,,,,,,,,,,,,,,,,,,,,,,,,,,,,11027,001,2024_Jan_10_1123,nback,2021.2.3,59.949666239870176,
2-back,instructions\back-2.png,conditions\2back-p.xlsx,instructions\2-BACK.png,"(25, 15)",practice,2,4,stim\gray.png,stim\gray.png,stim\gray.png,stim\yellow.png,up,0,0,0,0,0,2,2,2,0,12,12,12,,,,,,,,,,,,,,,,,,,,,,,,,,,120.76969009987079,121.77194090001285,120.76969009987079,121.77194090001285,120.76969009987079,121.77194090001285,120.76969009987079,121.77194090001285,left,0,1.3955475999973714,120.76969009987079,None,120.76969009987079,None,120.76969009987079,121.27048229984939,120.76969009987079,121.27048229984939,120.76969009987079,121.27048229984939,120.76969009987079,121.27048229984939,120.76969009987079,None,,,,,,,,,,,,,,,,,,,,,,,,,,,,,,,,,,,,,,,,,,11027,001,2024_Jan_10_1123,nback,2021.2.3,59.949666239870176,
2-back,instructions\back-2.png,conditions\2back-p.xlsx,instructions\2-BACK.png,"(25, 15)",practice,2,3,stim\gray.png,stim\gray.png,stim\yellow.png,stim\gray.png,left,0,0,0,0,0,2,2,2,0,13,13,13,,,,,,,,,,,,,,,,,,,,,,,,,,,122.2718348999042,123.27389659988694,122.2718348999042,123.27389659988694,122.2718348999042,123.27389659988694,122.2718348999042,123.27389659988694,down,0,1.4214845998212695,122.2718348999042,None,122.2718348999042,None,122.2718348999042,122.77271469985135,122.2718348999042,122.77271469985135,122.2718348999042,122.77271469985135,122.2718348999042,122.77271469985135,122.2718348999042,None,,,,,,,,,,,,,,,,,,,,,,,,,,,,,,,,,,,,,,,,,,11027,001,2024_Jan_10_1123,nback,2021.2.3,59.949666239870176,
2-back,instructions\back-2.png,conditions\2back-p.xlsx,instructions\2-BACK.png,"(25, 15)",practice,2,1,stim\yellow.png,stim\gray.png,stim\gray.png,stim\gray.png,down,0,0,0,0,0,2,2,2,0,14,14,14,,,,,,,,,,,,,,,,,,,,,,,,,,,123.75730469985865,124.75880279997364,123.75730469985865,124.75880279997364,123.75730469985865,124.75880279997364,123.75730469985865,124.75880279997364,None,0,,123.75730469985865,None,123.75730469985865,None,123.75730469985865,124.25840289983898,123.75730469985865,124.25840289983898,123.75730469985865,124.25840289983898,123.75730469985865,124.25840289983898,123.75730469985865,None,,,,,,,,,,,,,,,,,,,,,,,,,,,,,,,,,,,,,,,,,,11027,001,2024_Jan_10_1123,nback,2021.2.3,59.949666239870176,
2-back,instructions\back-2.png,conditions\2back-p.xlsx,instructions\2-BACK.png,"(25, 15)",practice,2,2,stim\gray.png,stim\yellow.png,stim\gray.png,stim\gray.png,right,0,0,0,0,0,2,2,2,0,15,15,15,,,,,,,,,,,,,,,,,,,,,,,,,,,125.25960669992492,126.26182819996029,125.25960669992492,126.26182819996029,125.25960669992492,126.26182819996029,125.25960669992492,126.26182819996029,up,0,1.4417833997868001,125.25960669992492,None,125.25960669992492,None,125.25960669992492,125.76069050002843,125.25960669992492,125.76069050002843,125.25960669992492,125.76069050002843,125.25960669992492,125.76069050002843,125.25960669992492,None,,,,,,,,,,,,,,,,,,,,,,,,,,,,,,,,,,,,,,,,,,11027,001,2024_Jan_10_1123,nback,2021.2.3,59.949666239870176,
2-back,instructions\back-2.png,conditions\2back-p.xlsx,instructions\2-BACK.png,"(25, 15)",practice,2,3,stim\gray.png,stim\gray.png,stim\yellow.png,stim\gray.png,up,0,0,0,0,0,2,2,2,0,16,16,16,,,,,,,,,,,,,,,,,,,,,,,,,,,126.76201329985633,127.76547609991394,126.76201329985633,127.76547609991394,126.76201329985633,127.76547609991394,126.76201329985633,127.76547609991394,None,0,,126.76201329985633,None,126.76201329985633,None,126.76201329985633,127.26328269997612,126.76201329985633,127.26328269997612,126.76201329985633,127.26328269997612,126.76201329985633,127.26328269997612,126.76201329985633,None,,,,,,,,,,,,,,,,,,,,,,,,,,,,,,,,,,,,,,,,,,11027,001,2024_Jan_10_1123,nback,2021.2.3,59.949666239870176,
2-back,instructions\back-2.png,conditions\2back-p.xlsx,instructions\2-BACK.png,"(25, 15)",practice,2,1,stim\yellow.png,stim\gray.png,stim\gray.png,stim\gray.png,left,0,0,0,0,0,2,2,2,0,17,17,17,,,,,,,,,,,,,,,,,,,,,,,,,,,128.26417470001616,129.2666427998338,128.26417470001616,129.2666427998338,128.26417470001616,129.2666427998338,128.26417470001616,129.2666427998338,left,1,0.01313160010613501,128.26417470001616,None,128.26417470001616,None,128.26417470001616,128.76520939986221,128.26417470001616,128.76520939986221,128.26417470001616,128.76520939986221,128.26417470001616,128.76520939986221,128.26417470001616,None,,,,,,,,,,,,,,,,,,,,,,,,,,,,,,,,,,,,,,,,,,11027,001,2024_Jan_10_1123,nback,2021.2.3,59.949666239870176,
2-back,instructions\back-2.png,conditions\2back-p.xlsx,instructions\2-BACK.png,"(25, 15)",practice,2,4,stim\gray.png,stim\gray.png,stim\gray.png,stim\yellow.png,right,0,0,0,0,0,2,2,2,0,18,18,18,,,,,,,,,,,,,,,,,,,,,,,,,,,129.76639939984307,130.7686393999029,129.76639939984307,130.7686393999029,129.76639939984307,130.7686393999029,129.76639939984307,130.7686393999029,right,1,0.06310790008865297,129.76639939984307,None,129.76639939984307,None,129.76639939984307,130.26821469981223,129.76639939984307,130.26821469981223,129.76639939984307,130.26821469981223,129.76639939984307,130.26821469981223,129.76639939984307,None,,,,,,,,,,,,,,,,,,,,,,,,,,,,,,,,,,,,,,,,,,11027,001,2024_Jan_10_1123,nback,2021.2.3,59.949666239870176,
2-back,instructions\back-2.png,conditions\2back-p.xlsx,instructions\2-BACK.png,"(25, 15)",practice,2,2,stim\gray.png,stim\yellow.png,stim\gray.png,stim\gray.png,up,0,0,0,0,0,2,2,2,0,19,19,19,,,,,,,,,,,,,,,,,,,,,,,,,,,131.26832479983568,132.27000009990297,131.26832479983568,132.27000009990297,131.26832479983568,132.27000009990297,131.26832479983568,132.27000009990297,up,1,0.033186100190505385,131.26832479983568,None,131.26832479983568,None,131.26832479983568,131.77132569998503,131.26832479983568,131.77132569998503,131.26832479983568,131.77132569998503,131.26832479983568,131.77132569998503,131.26832479983568,None,,,,,,,,,,,,,,,,,,,,,,,,,,,,,,,,,,,,,,,,,,11027,001,2024_Jan_10_1123,nback,2021.2.3,59.949666239870176,
2-back,instructions\back-2.png,conditions\2back-p.xlsx,instructions\2-BACK.png,"(25, 15)",,,,,,,,,0,0,0,0,0,2,2,2,,,,,,,,,,,,,,,,,,,,,,,,,,,,,,,,,,,,,,,,,,,,,,,,,,,,,,,,,,,,,,,,,,,,,,,,,,,,,,,,,,,,,,,,,,,,,,,,,11027,001,2024_Jan_10_1123,nback,2021.2.3,59.949666239870176,
,,,,,,,,,,,,,0,0,0,0,,,,,,,,,,,,,,,,,,,,,,,,,,,,,,,,,,,,,,,,,,,,,,,,,,,,,,,,,,,,132.77225009980612,None,space,2.5930840999353677,132.77225009980612,None,,,,,,,,,,,,,,,,,,,,,,,,,,,,,,,,,,,,11027,001,2024_Jan_10_1123,nback,2021.2.3,59.949666239870176,
,,,,,,,,,,,,,,,,,,,,,,,,,,,,,,,,,,,,,,,,,,,,,,,,,,,,,,,,,,,,,,,,,,,,,,,,,,,,,,,,,,135.3920080999378,None,space,1.2371966000646353,135.3920080999378,None,,,,,,,,,,,,,,,,,,,,,,,,,,,,,,11027,001,2024_Jan_10_1123,nback,2021.2.3,59.949666239870176,
1-back,instructions\back-1.png,conditions\12back-e.xlsx,,,experiment,1,2,stim\gray.png,stim\yellow.png,stim\gray.png,stim\gray.png,None,,,,,,,,,,,,,0,0,0,6,0,0,0,0,,,,,,,,,,,,,,,136.80921909981407,141.31777839991264,141.28368250001222,None,,,,,,,,,,,,,,,,,,,,,,,,,,,,,,,,,,,,,,None,1,141.68408669997007,None,141.68408669997007,None,141.68408669997007,142.68540149996988,141.68408669997007,142.68540149996988,141.68408669997007,142.68540149996988,141.68408669997007,142.68540149996988,141.68408669997007,142.1856174999848,141.68408669997007,142.1856174999848,141.68408669997007,142.1856174999848,141.68408669997007,142.1856174999848,141.68408669997007,None,,,,,,11027,001,2024_Jan_10_1123,nback,2021.2.3,59.949666239870176,
1-back,instructions\back-1.png,conditions\12back-e.xlsx,,,experiment,1,3,stim\gray.png,stim\gray.png,stim\yellow.png,stim\gray.png,left,,,,,,,,,,,,,0,0,0,6,0,1,1,1,,,,,,,,,,,,,,,,,,,,,,,,,,,,,,,,,,,,,,,,,,,,,,,,,,,,,,,,left,1,143.16952689993195,None,143.16952689993195,None,143.16952689993195,144.17104079993442,143.16952689993195,144.17104079993442,143.16952689993195,144.17104079993442,143.16952689993195,144.17104079993442,143.16952689993195,143.67085649981163,143.16952689993195,143.67085649981163,143.16952689993195,143.67085649981163,143.16952689993195,143.67085649981163,143.16952689993195,None,0.34811189980246127,,,,,11027,001,2024_Jan_10_1123,nback,2021.2.3,59.949666239870176,
1-back,instructions\back-1.png,conditions\12back-e.xlsx,,,experiment,1,4,stim\gray.png,stim\gray.png,stim\gray.png,stim\yellow.png,right,,,,,,,,,,,,,0,0,0,6,0,2,2,2,,,,,,,,,,,,,,,,,,,,,,,,,,,,,,,,,,,,,,,,,,,,,,,,,,,,,,,,right,1,144.67163619981147,None,144.67163619981147,None,144.67163619981147,145.67343309987336,144.67163619981147,145.67343309987336,144.67163619981147,145.67343309987336,144.67163619981147,145.67343309987336,144.67163619981147,145.17250019987114,144.67163619981147,145.17250019987114,144.67163619981147,145.17250019987114,144.67163619981147,145.17250019987114,144.67163619981147,None,0.34160750010050833,,,,,11027,001,2024_Jan_10_1123,nback,2021.2.3,59.949666239870176,
1-back,instructions\back-1.png,conditions\12back-e.xlsx,,,experiment,1,3,stim\gray.png,stim\gray.png,stim\yellow.png,stim\gray.png,down,,,,,,,,,,,,,0,0,0,6,0,3,3,3,,,,,,,,,,,,,,,,,,,,,,,,,,,,,,,,,,,,,,,,,,,,,,,,,,,,,,,,down,1,146.17406599991955,None,146.17406599991955,None,146.17406599991955,147.17590169981122,146.17406599991955,147.17590169981122,146.17406599991955,147.17590169981122,146.17406599991955,147.17590169981122,146.17406599991955,146.67575619998388,146.17406599991955,146.67575619998388,146.17406599991955,146.67575619998388,146.17406599991955,146.67575619998388,146.17406599991955,None,0.3113535998854786,,,,,11027,001,2024_Jan_10_1123,nback,2021.2.3,59.949666239870176,
1-back,instructions\back-1.png,conditions\12back-e.xlsx,,,experiment,1,1,stim\yellow.png,stim\gray.png,stim\gray.png,stim\gray.png,right,,,,,,,,,,,,,0,0,0,6,0,4,4,4,,,,,,,,,,,,,,,,,,,,,,,,,,,,,,,,,,,,,,,,,,,,,,,,,,,,,,,,right,1,147.67698719981126,None,147.67698719981126,None,147.67698719981126,148.67838459997438,147.67698719981126,148.67838459997438,147.67698719981126,148.67838459997438,147.67698719981126,148.67838459997438,147.67698719981126,148.17691119993106,147.67698719981126,148.17691119993106,147.67698719981126,148.17691119993106,147.67698719981126,148.17691119993106,147.67698719981126,None,0.20054120011627674,,,,,11027,001,2024_Jan_10_1123,nback,2021.2.3,59.949666239870176,
1-back,instructions\back-1.png,conditions\12back-e.xlsx,,,experiment,1,2,stim\gray.png,stim\yellow.png,stim\gray.png,stim\gray.png,up,,,,,,,,,,,,,0,0,0,6,0,5,5,5,,,,,,,,,,,,,,,,,,,,,,,,,,,,,,,,,,,,,,,,,,,,,,,,,,,,,,,,up,1,149.17893489985727,None,149.17893489985727,None,149.17893489985727,150.17994039994664,149.17893489985727,150.17994039994664,149.17893489985727,150.17994039994664,149.17893489985727,150.17994039994664,149.17893489985727,149.67962599988095,149.17893489985727,149.67962599988095,149.17893489985727,149.67962599988095,149.17893489985727,149.67962599988095,149.17893489985727,None,0.16269679996185005,,,,,11027,001,2024_Jan_10_1123,nback,2021.2.3,59.949666239870176,
1-back,instructions\back-1.png,conditions\12back-e.xlsx,,,experiment,1,2,stim\gray.png,stim\yellow.png,stim\gray.png,stim\gray.png,left,,,,,,,,,,,,,0,0,0,6,0,6,6,6,,,,,,,,,,,,,,,,,,,,,,,,,,,,,,,,,,,,,,,,,,,,,,,,,,,,,,,,left,1,150.6641048998572,None,150.6641048998572,None,150.6641048998572,151.66547170002013,150.6641048998572,151.66547170002013,150.6641048998572,151.66547170002013,150.6641048998572,151.66547170002013,150.6641048998572,151.16476489999332,150.6641048998572,151.16476489999332,150.6641048998572,151.16476489999332,150.6641048998572,151.16476489999332,150.6641048998572,None,0.06910920003429055,,,,,11027,001,2024_Jan_10_1123,nback,2021.2.3,59.949666239870176,
1-back,instructions\back-1.png,conditions\12back-e.xlsx,,,experiment,1,4,stim\gray.png,stim\gray.png,stim\gray.png,stim\yellow.png,left,,,,,,,,,,,,,0,0,0,6,0,7,7,7,,,,,,,,,,,,,,,,,,,,,,,,,,,,,,,,,,,,,,,,,,,,,,,,,,,,,,,,left,1,152.16689160000533,None,152.16689160000533,None,152.16689160000533,153.16863889992237,152.16689160000533,153.16863889992237,152.16689160000533,153.16863889992237,152.16689160000533,153.16863889992237,152.16689160000533,152.66705299983732,152.16689160000533,152.66705299983732,152.16689160000533,152.66705299983732,152.16689160000533,152.66705299983732,152.16689160000533,None,0.006872500060126185,,,,,11027,001,2024_Jan_10_1123,nback,2021.2.3,59.949666239870176,
1-back,instructions\back-1.png,conditions\12back-e.xlsx,,,experiment,1,1,stim\yellow.png,stim\gray.png,stim\gray.png,stim\gray.png,down,,,,,,,,,,,,,0,0,0,6,0,8,8,8,,,,,,,,,,,,,,,,,,,,,,,,,,,,,,,,,,,,,,,,,,,,,,,,,,,,,,,,down,1,153.66827339981683,None,153.66827339981683,None,153.66827339981683,154.67032499983907,153.66827339981683,154.67032499983907,153.66827339981683,154.67032499983907,153.66827339981683,154.67032499983907,153.66827339981683,154.16954169981182,153.66827339981683,154.16954169981182,153.66827339981683,154.16954169981182,153.66827339981683,154.16954169981182,153.66827339981683,None,0.10503250011242926,,,,,11027,001,2024_Jan_10_1123,nback,2021.2.3,59.949666239870176,
1-back,instructions\back-1.png,conditions\12back-e.xlsx,,,experiment,1,3,stim\gray.png,stim\gray.png,stim\yellow.png,stim\gray.png,up,,,,,,,,,,,,,0,0,0,6,0,9,9,9,,,,,,,,,,,,,,,,,,,,,,,,,,,,,,,,,,,,,,,,,,,,,,,,,,,,,,,,up,1,155.17058739997447,None,155.17058739997447,None,155.17058739997447,156.172744799871,155.17058739997447,156.172744799871,155.17058739997447,156.172744799871,155.17058739997447,156.172744799871,155.17058739997447,155.6720310000237,155.17058739997447,155.6720310000237,155.17058739997447,155.6720310000237,155.17058739997447,155.6720310000237,155.17058739997447,None,0.1466163001023233,,,,,11027,001,2024_Jan_10_1123,nback,2021.2.3,59.949666239870176,
1-back,instructions\back-1.png,conditions\12back-e.xlsx,,,experiment,1,4,stim\gray.png,stim\gray.png,stim\gray.png,stim\yellow.png,right,,,,,,,,,,,,,0,0,0,6,0,10,10,10,,,,,,,,,,,,,,,,,,,,,,,,,,,,,,,,,,,,,,,,,,,,,,,,,,,,,,,,right,1,156.67282429989427,None,156.67282429989427,None,156.67282429989427,157.6742094999645,156.67282429989427,157.6742094999645,156.67282429989427,157.6742094999645,156.67282429989427,157.6742094999645,156.67282429989427,157.17475719982758,156.67282429989427,157.17475719982758,156.67282429989427,157.17475719982758,156.67282429989427,157.17475719982758,156.67282429989427,None,0.18876889999955893,,,,,11027,001,2024_Jan_10_1123,nback,2021.2.3,59.949666239870176,
1-back,instructions\back-1.png,conditions\12back-e.xlsx,,,experiment,1,3,stim\gray.png,stim\gray.png,stim\yellow.png,stim\gray.png,down,,,,,,,,,,,,,0,0,0,6,0,11,11,11,,,,,,,,,,,,,,,,,,,,,,,,,,,,,,,,,,,,,,,,,,,,,,,,,,,,,,,,down,1,158.17523079994135,None,158.17523079994135,None,158.17523079994135,159.17792769987136,158.17523079994135,159.17792769987136,158.17523079994135,159.17792769987136,158.17523079994135,159.17792769987136,158.17523079994135,158.67656119982712,158.17523079994135,158.67656119982712,158.17523079994135,158.67656119982712,158.17523079994135,158.67656119982712,158.17523079994135,None,0.19024859997443855,,,,,11027,001,2024_Jan_10_1123,nback,2021.2.3,59.949666239870176,
1-back,instructions\back-1.png,conditions\12back-e.xlsx,,,experiment,1,1,stim\yellow.png,stim\gray.png,stim\gray.png,stim\gray.png,left,,,,,,,,,,,,,0,0,0,6,0,12,12,12,,,,,,,,,,,,,,,,,,,,,,,,,,,,,,,,,,,,,,,,,,,,,,,,,,,,,,,,right,0,159.67724729981273,None,159.67724729981273,None,159.67724729981273,160.6807055999525,159.67724729981273,160.6807055999525,159.67724729981273,160.6807055999525,159.67724729981273,160.6807055999525,159.67724729981273,160.17837819992565,159.67724729981273,160.17837819992565,159.67724729981273,160.17837819992565,159.67724729981273,160.17837819992565,159.67724729981273,None,0.1842026999220252,,,,,11027,001,2024_Jan_10_1123,nback,2021.2.3,59.949666239870176,
1-back,instructions\back-1.png,conditions\12back-e.xlsx,,,experiment,1,4,stim\gray.png,stim\gray.png,stim\gray.png,stim\yellow.png,up,,,,,,,,,,,,,0,0,0,6,0,13,13,13,,,,,,,,,,,,,,,,,,,,,,,,,,,,,,,,,,,,,,,,,,,,,,,,,,,,,,,,up,1,161.1793259999249,None,161.1793259999249,None,161.1793259999249,162.181828700006,161.1793259999249,162.181828700006,161.1793259999249,162.181828700006,161.1793259999249,162.181828700006,161.1793259999249,161.68145419983193,161.1793259999249,161.68145419983193,161.1793259999249,161.68145419983193,161.1793259999249,161.68145419983193,161.1793259999249,None,0.1620354000478983,,,,,11027,001,2024_Jan_10_1123,nback,2021.2.3,59.949666239870176,
1-back,instructions\back-1.png,conditions\12back-e.xlsx,,,experiment,1,1,stim\yellow.png,stim\gray.png,stim\gray.png,stim\gray.png,down,,,,,,,,,,,,,0,0,0,6,0,14,14,14,,,,,,,,,,,,,,,,,,,,,,,,,,,,,,,,,,,,,,,,,,,,,,,,,,,,,,,,down,1,162.66492679994553,None,162.66492679994553,None,162.66492679994553,163.66735399980098,162.66492679994553,163.66735399980098,162.66492679994553,163.66735399980098,162.66492679994553,163.66735399980098,162.66492679994553,163.16688429983333,162.66492679994553,163.16688429983333,162.66492679994553,163.16688429983333,162.66492679994553,163.16688429983333,162.66492679994553,None,0.16487469989806414,,,,,11027,001,2024_Jan_10_1123,nback,2021.2.3,59.949666239870176,
1-back,instructions\back-1.png,conditions\12back-e.xlsx,,,experiment,1,2,stim\gray.png,stim\yellow.png,stim\gray.png,stim\gray.png,up,,,,,,,,,,,,,0,0,0,6,0,15,15,15,,,,,,,,,,,,,,,,,,,,,,,,,,,,,,,,,,,,,,,,,,,,,,,,,,,,,,,,up,1,164.16726689995266,None,164.16726689995266,None,164.16726689995266,165.16949000000022,164.16726689995266,165.16949000000022,164.16726689995266,165.16949000000022,164.16726689995266,165.16949000000022,164.16726689995266,164.66823349986225,164.16726689995266,164.66823349986225,164.16726689995266,164.66823349986225,164.16726689995266,164.66823349986225,164.16726689995266,None,0.11018159985542297,,,,,11027,001,2024_Jan_10_1123,nback,2021.2.3,59.949666239870176,
1-back,instructions\back-1.png,conditions\12back-e.xlsx,,,experiment,1,1,stim\yellow.png,stim\gray.png,stim\gray.png,stim\gray.png,left,,,,,,,,,,,,,0,0,0,6,0,16,16,16,,,,,,,,,,,,,,,,,,,,,,,,,,,,,,,,,,,,,,,,,,,,,,,,,,,,,,,,left,1,165.6699153999798,None,165.6699153999798,None,165.6699153999798,166.67200029990636,165.6699153999798,166.67200029990636,165.6699153999798,166.67200029990636,165.6699153999798,166.67200029990636,165.6699153999798,166.17094739992172,165.6699153999798,166.17094739992172,165.6699153999798,166.17094739992172,165.6699153999798,166.17094739992172,165.6699153999798,None,0.10334989987313747,,,,,11027,001,2024_Jan_10_1123,nback,2021.2.3,59.949666239870176,
1-back,instructions\back-1.png,conditions\12back-e.xlsx,,,experiment,1,3,stim\gray.png,stim\gray.png,stim\yellow.png,stim\gray.png,up,,,,,,,,,,,,,0,0,0,6,0,17,17,17,,,,,,,,,,,,,,,,,,,,,,,,,,,,,,,,,,,,,,,,,,,,,,,,,,,,,,,,up,1,167.17271129996516,None,167.17271129996516,None,167.17271129996516,168.17328999983147,167.17271129996516,168.17328999983147,167.17271129996516,168.17328999983147,167.17271129996516,168.17328999983147,167.17271129996516,167.67292999988422,167.17271129996516,167.67292999988422,167.17271129996516,167.67292999988422,167.17271129996516,167.67292999988422,167.17271129996516,None,0.12043350003659725,,,,,11027,001,2024_Jan_10_1123,nback,2021.2.3,59.949666239870176,
1-back,instructions\back-1.png,conditions\12back-e.xlsx,,,experiment,1,2,stim\gray.png,stim\yellow.png,stim\gray.png,stim\gray.png,right,,,,,,,,,,,,,0,0,0,6,0,18,18,18,,,,,,,,,,,,,,,,,,,,,,,,,,,,,,,,,,,,,,,,,,,,,,,,,,,,,,,,right,1,168.67454739985988,None,168.67454739985988,None,168.67454739985988,169.67568199988455,168.67454739985988,169.67568199988455,168.67454739985988,169.67568199988455,168.67454739985988,169.67568199988455,168.67454739985988,169.1751213998068,168.67454739985988,169.1751213998068,168.67454739985988,169.1751213998068,168.67454739985988,169.1751213998068,168.67454739985988,None,0.09912530006840825,,,,,11027,001,2024_Jan_10_1123,nback,2021.2.3,59.949666239870176,
1-back,instructions\back-1.png,conditions\12back-e.xlsx,,,experiment,1,4,stim\gray.png,stim\gray.png,stim\gray.png,stim\yellow.png,left,,,,,,,,,,,,,0,0,0,6,0,19,19,19,,,,,,,,,,,,,,,,,,,,,,,,,,,,,,,,,,,,,,,,,,,,,,,,,,,,,,,,left,1,170.17616709996946,None,170.17616709996946,None,170.17616709996946,171.1777591998689,170.17616709996946,171.1777591998689,170.17616709996946,171.1777591998689,170.17616709996946,171.1777591998689,170.17616709996946,170.677924499847,170.17616709996946,170.677924499847,170.17616709996946,170.677924499847,170.17616709996946,170.677924499847,170.17616709996946,None,0.14129900000989437,,,,,11027,001,2024_Jan_10_1123,nback,2021.2.3,59.949666239870176,
1-back,instructions\back-1.png,conditions\12back-e.xlsx,,,,,,,,,,,,,,,,,,,,,,,0,0,0,6,,,,,,,,,,,,,,,,,,,,,,,,,,,,,,,,,,,,,,,,,,,,,,,,,,,,,,,,,,,,,,,,,,,,,,,,,,,,,,,,,,,,,171.6787129000295,None,,,11027,001,2024_Jan_10_1123,nback,2021.2.3,59.949666239870176,
0-back,instructions\back-0.png,conditions\03back-e.xlsx,,,experiment,0,1,stim\yellow.png,stim\gray.png,stim\gray.png,stim\gray.png,up,,,,,,,,,,,,,0,1,1,11,0,0,0,0,,,,,,,,,,,,,,,172.7800703998655,177.28936329996213,177.2711112999823,None,,,,,,,,,,,,,,,,,,,,,,,,,,,,,,,,,,,,,,up,1,177.68834529980086,None,177.68834529980086,None,177.68834529980086,178.68888189992867,177.68834529980086,178.68888189992867,177.68834529980086,178.68888189992867,177.68834529980086,178.68888189992867,177.68834529980086,178.18855650001206,177.68834529980086,178.18855650001206,177.68834529980086,178.18855650001206,177.68834529980086,178.18855650001206,177.68834529980086,None,0.5331030001398176,,,,,11027,001,2024_Jan_10_1123,nback,2021.2.3,59.949666239870176,
0-back,instructions\back-0.png,conditions\03back-e.xlsx,,,experiment,0,2,stim\gray.png,stim\yellow.png,stim\gray.png,stim\gray.png,left,,,,,,,,,,,,,0,1,1,11,0,1,1,1,,,,,,,,,,,,,,,,,,,,,,,,,,,,,,,,,,,,,,,,,,,,,,,,,,,,,,,,left,1,179.1727558998391,None,179.1727558998391,None,179.1727558998391,180.17499480000697,179.1727558998391,180.17499480000697,179.1727558998391,180.17499480000697,179.1727558998391,180.17499480000697,179.1727558998391,179.67339669982903,179.1727558998391,179.67339669982903,179.1727558998391,179.67339669982903,179.1727558998391,179.67339669982903,179.1727558998391,None,0.3206219000276178,,,,,11027,001,2024_Jan_10_1123,nback,2021.2.3,59.949666239870176,
0-back,instructions\back-0.png,conditions\03back-e.xlsx,,,experiment,0,4,stim\gray.png,stim\gray.png,stim\gray.png,stim\yellow.png,down,,,,,,,,,,,,,0,1,1,11,0,2,2,2,,,,,,,,,,,,,,,,,,,,,,,,,,,,,,,,,,,,,,,,,,,,,,,,,,,,,,,,down,1,180.6750647998415,None,180.6750647998415,None,180.6750647998415,181.67734459997155,180.6750647998415,181.67734459997155,180.6750647998415,181.67734459997155,180.6750647998415,181.67734459997155,180.6750647998415,181.17572920001112,180.6750647998415,181.17572920001112,180.6750647998415,181.17572920001112,180.6750647998415,181.17572920001112,180.6750647998415,None,0.3628024999052286,,,,,11027,001,2024_Jan_10_1123,nback,2021.2.3,59.949666239870176,
0-back,instructions\back-0.png,conditions\03back-e.xlsx,,,experiment,0,3,stim\gray.png,stim\gray.png,stim\yellow.png,stim\gray.png,right,,,,,,,,,,,,,0,1,1,11,0,3,3,3,,,,,,,,,,,,,,,,,,,,,,,,,,,,,,,,,,,,,,,,,,,,,,,,,,,,,,,,right,1,182.17732509993948,None,182.17732509993948,None,182.17732509993948,183.178797399858,182.17732509993948,183.178797399858,182.17732509993948,183.178797399858,182.17732509993948,183.178797399858,182.17732509993948,182.67841749987565,182.17732509993948,182.67841749987565,182.17732509993948,182.67841749987565,182.17732509993948,182.67841749987565,182.17732509993948,None,0.30033829994499683,,,,,11027,001,2024_Jan_10_1123,nback,2021.2.3,59.949666239870176,
0-back,instructions\back-0.png,conditions\03back-e.xlsx,,,experiment,0,3,stim\gray.png,stim\gray.png,stim\yellow.png,stim\gray.png,right,,,,,,,,,,,,,0,1,1,11,0,4,4,4,,,,,,,,,,,,,,,,,,,,,,,,,,,,,,,,,,,,,,,,,,,,,,,,,,,,,,,,right,1,183.6632911998313,None,183.6632911998313,None,183.6632911998313,184.66437159990892,183.6632911998313,184.66437159990892,183.6632911998313,184.66437159990892,183.6632911998313,184.66437159990892,183.6632911998313,184.1636492998805,183.6632911998313,184.1636492998805,183.6632911998313,184.1636492998805,183.6632911998313,184.1636492998805,183.6632911998313,None,0.31012820010073483,,,,,11027,001,2024_Jan_10_1123,nback,2021.2.3,59.949666239870176,
0-back,instructions\back-0.png,conditions\03back-e.xlsx,,,experiment,0,1,stim\yellow.png,stim\gray.png,stim\gray.png,stim\gray.png,up,,,,,,,,,,,,,0,1,1,11,0,5,5,5,,,,,,,,,,,,,,,,,,,,,,,,,,,,,,,,,,,,,,,,,,,,,,,,,,,,,,,,up,1,185.16505740000866,None,185.16505740000866,None,185.16505740000866,186.16665729996748,185.16505740000866,186.16665729996748,185.16505740000866,186.16665729996748,185.16505740000866,186.16665729996748,185.16505740000866,185.66615800000727,185.16505740000866,185.66615800000727,185.16505740000866,185.66615800000727,185.16505740000866,185.66615800000727,185.16505740000866,None,0.3126859001349658,,,,,11027,001,2024_Jan_10_1123,nback,2021.2.3,59.949666239870176,
0-back,instructions\back-0.png,conditions\03back-e.xlsx,,,experiment,0,2,stim\gray.png,stim\yellow.png,stim\gray.png,stim\gray.png,left,,,,,,,,,,,,,0,1,1,11,0,6,6,6,,,,,,,,,,,,,,,,,,,,,,,,,,,,,,,,,,,,,,,,,,,,,,,,,,,,,,,,left,1,186.6671068998985,None,186.6671068998985,None,186.6671068998985,187.6688431999646,186.6671068998985,187.6688431999646,186.6671068998985,187.6688431999646,186.6671068998985,187.6688431999646,186.6671068998985,187.16877399990335,186.6671068998985,187.16877399990335,186.6671068998985,187.16877399990335,186.6671068998985,187.16877399990335,186.6671068998985,None,0.2666665001306683,,,,,11027,001,2024_Jan_10_1123,nback,2021.2.3,59.949666239870176,
0-back,instructions\back-0.png,conditions\03back-e.xlsx,,,experiment,0,3,stim\gray.png,stim\gray.png,stim\yellow.png,stim\gray.png,right,,,,,,,,,,,,,0,1,1,11,0,7,7,7,,,,,,,,,,,,,,,,,,,,,,,,,,,,,,,,,,,,,,,,,,,,,,,,,,,,,,,,right,1,188.16974059981294,None,188.16974059981294,None,188.16974059981294,189.1715742999222,188.16974059981294,189.1715742999222,188.16974059981294,189.1715742999222,188.16974059981294,189.1715742999222,188.16974059981294,188.67119389981963,188.16974059981294,188.67119389981963,188.16974059981294,188.67119389981963,188.16974059981294,188.67119389981963,188.16974059981294,None,0.2756256000138819,,,,,11027,001,2024_Jan_10_1123,nback,2021.2.3,59.949666239870176,
0-back,instructions\back-0.png,conditions\03back-e.xlsx,,,experiment,0,4,stim\gray.png,stim\gray.png,stim\gray.png,stim\yellow.png,down,,,,,,,,,,,,,0,1,1,11,0,8,8,8,,,,,,,,,,,,,,,,,,,,,,,,,,,,,,,,,,,,,,,,,,,,,,,,,,,,,,,,down,1,189.6716966999229,None,189.6716966999229,None,189.6716966999229,190.67328500002623,189.6716966999229,190.67328500002623,189.6716966999229,190.67328500002623,189.6716966999229,190.67328500002623,189.6716966999229,190.17271189996973,189.6716966999229,190.17271189996973,189.6716966999229,190.17271189996973,189.6716966999229,190.17271189996973,189.6716966999229,None,0.3657692999113351,,,,,11027,001,2024_Jan_10_1123,nback,2021.2.3,59.949666239870176,
0-back,instructions\back-0.png,conditions\03back-e.xlsx,,,experiment,0,4,stim\gray.png,stim\gray.png,stim\gray.png,stim\yellow.png,down,,,,,,,,,,,,,0,1,1,11,0,9,9,9,,,,,,,,,,,,,,,,,,,,,,,,,,,,,,,,,,,,,,,,,,,,,,,,,,,,,,,,down,1,191.17455489980057,None,191.17455489980057,None,191.17455489980057,192.17542099999264,191.17455489980057,192.17542099999264,191.17455489980057,192.17542099999264,191.17455489980057,192.17542099999264,191.17455489980057,191.67468969989568,191.17455489980057,191.67468969989568,191.17455489980057,191.67468969989568,191.17455489980057,191.67468969989568,191.17455489980057,None,0.374892899999395,,,,,11027,001,2024_Jan_10_1123,nback,2021.2.3,59.949666239870176,
0-back,instructions\back-0.png,conditions\03back-e.xlsx,,,experiment,0,1,stim\yellow.png,stim\gray.png,stim\gray.png,stim\gray.png,up,,,,,,,,,,,,,0,1,1,11,0,10,10,10,,,,,,,,,,,,,,,,,,,,,,,,,,,,,,,,,,,,,,,,,,,,,,,,,,,,,,,,up,1,192.67625529994257,None,192.67625529994257,None,192.67625529994257,193.67775039980188,192.67625529994257,193.67775039980188,192.67625529994257,193.67775039980188,192.67625529994257,193.67775039980188,192.67625529994257,193.17741939984262,192.67625529994257,193.17741939984262,192.67625529994257,193.17741939984262,192.67625529994257,193.17741939984262,192.67625529994257,None,0.3133437999058515,,,,,11027,001,2024_Jan_10_1123,nback,2021.2.3,59.949666239870176,
0-back,instructions\back-0.png,conditions\03back-e.xlsx,,,experiment,0,4,stim\gray.png,stim\gray.png,stim\gray.png,stim\yellow.png,down,,,,,,,,,,,,,0,1,1,11,0,11,11,11,,,,,,,,,,,,,,,,,,,,,,,,,,,,,,,,,,,,,,,,,,,,,,,,,,,,,,,,down,1,194.17838239995763,None,194.17838239995763,None,194.17838239995763,195.17986239981838,194.17838239995763,195.17986239981838,194.17838239995763,195.17986239981838,194.17838239995763,195.17986239981838,194.17838239995763,194.6800412000157,194.17838239995763,194.6800412000157,194.17838239995763,194.6800412000157,194.17838239995763,194.6800412000157,194.17838239995763,None,0.26726579992100596,,,,,11027,001,2024_Jan_10_1123,nback,2021.2.3,59.949666239870176,
0-back,instructions\back-0.png,conditions\03back-e.xlsx,,,experiment,0,3,stim\gray.png,stim\gray.png,stim\yellow.png,stim\gray.png,right,,,,,,,,,,,,,0,1,1,11,0,12,12,12,,,,,,,,,,,,,,,,,,,,,,,,,,,,,,,,,,,,,,,,,,,,,,,,,,,,,,,,right,1,195.6638316998724,None,195.6638316998724,None,195.6638316998724,196.66636609984562,195.6638316998724,196.66636609984562,195.6638316998724,196.66636609984562,195.6638316998724,196.66636609984562,195.6638316998724,196.1648047999479,195.6638316998724,196.1648047999479,195.6638316998724,196.1648047999479,195.6638316998724,196.1648047999479,195.6638316998724,None,0.30958670005202293,,,,,11027,001,2024_Jan_10_1123,nback,2021.2.3,59.949666239870176,
0-back,instructions\back-0.png,conditions\03back-e.xlsx,,,experiment,0,1,stim\yellow.png,stim\gray.png,stim\gray.png,stim\gray.png,up,,,,,,,,,,,,,0,1,1,11,0,13,13,13,,,,,,,,,,,,,,,,,,,,,,,,,,,,,,,,,,,,,,,,,,,,,,,,,,,,,,,,up,1,197.16627369984053,None,197.16627369984053,None,197.16627369984053,198.16797169996426,197.16627369984053,198.16797169996426,197.16627369984053,198.16797169996426,197.16627369984053,198.16797169996426,197.16627369984053,197.66744059999473,197.16627369984053,197.66744059999473,197.16627369984053,197.66744059999473,197.16627369984053,197.66744059999473,197.16627369984053,None,0.3271201001480222,,,,,11027,001,2024_Jan_10_1123,nback,2021.2.3,59.949666239870176,
0-back,instructions\back-0.png,conditions\03back-e.xlsx,,,experiment,0,2,stim\gray.png,stim\yellow.png,stim\gray.png,stim\gray.png,left,,,,,,,,,,,,,0,1,1,11,0,14,14,14,,,,,,,,,,,,,,,,,,,,,,,,,,,,,,,,,,,,,,,,,,,,,,,,,,,,,,,,left,1,198.66836809995584,None,198.66836809995584,None,198.66836809995584,199.67062220000662,198.66836809995584,199.67062220000662,198.66836809995584,199.67062220000662,198.66836809995584,199.67062220000662,198.66836809995584,199.16921489988454,198.66836809995584,199.16921489988454,198.66836809995584,199.16921489988454,198.66836809995584,199.16921489988454,198.66836809995584,None,0.29747960017994046,,,,,11027,001,2024_Jan_10_1123,nback,2021.2.3,59.949666239870176,
0-back,instructions\back-0.png,conditions\03back-e.xlsx,,,experiment,0,1,stim\yellow.png,stim\gray.png,stim\gray.png,stim\gray.png,up,,,,,,,,,,,,,0,1,1,11,0,15,15,15,,,,,,,,,,,,,,,,,,,,,,,,,,,,,,,,,,,,,,,,,,,,,,,,,,,,,,,,up,1,200.17147359997034,None,200.17147359997034,None,200.17147359997034,201.1719947999809,200.17147359997034,201.1719947999809,200.17147359997034,201.1719947999809,200.17147359997034,201.1719947999809,200.17147359997034,200.67157320003025,200.17147359997034,200.67157320003025,200.17147359997034,200.67157320003025,200.17147359997034,200.67157320003025,200.17147359997034,None,0.3219371000304818,,,,,11027,001,2024_Jan_10_1123,nback,2021.2.3,59.949666239870176,
0-back,instructions\back-0.png,conditions\03back-e.xlsx,,,experiment,0,3,stim\gray.png,stim\gray.png,stim\yellow.png,stim\gray.png,right,,,,,,,,,,,,,0,1,1,11,0,16,16,16,,,,,,,,,,,,,,,,,,,,,,,,,,,,,,,,,,,,,,,,,,,,,,,,,,,,,,,,right,1,201.6734290998429,None,201.6734290998429,None,201.6734290998429,202.6757437000051,201.6734290998429,202.6757437000051,201.6734290998429,202.6757437000051,201.6734290998429,202.6757437000051,201.6734290998429,202.17383440001868,201.6734290998429,202.17383440001868,201.6734290998429,202.17383440001868,201.6734290998429,202.17383440001868,201.6734290998429,None,0.2842143999878317,,,,,11027,001,2024_Jan_10_1123,nback,2021.2.3,59.949666239870176,
0-back,instructions\back-0.png,conditions\03back-e.xlsx,,,experiment,0,4,stim\gray.png,stim\gray.png,stim\gray.png,stim\yellow.png,down,,,,,,,,,,,,,0,1,1,11,0,17,17,17,,,,,,,,,,,,,,,,,,,,,,,,,,,,,,,,,,,,,,,,,,,,,,,,,,,,,,,,down,1,203.17492090002634,None,203.17492090002634,None,203.17492090002634,204.1769793999847,203.17492090002634,204.1769793999847,203.17492090002634,204.1769793999847,203.17492090002634,204.1769793999847,203.17492090002634,203.67641389998607,203.17492090002634,203.67641389998607,203.17492090002634,203.67641389998607,203.17492090002634,203.67641389998607,203.17492090002634,None,0.3825234000105411,,,,,11027,001,2024_Jan_10_1123,nback,2021.2.3,59.949666239870176,
0-back,instructions\back-0.png,conditions\03back-e.xlsx,,,experiment,0,2,stim\gray.png,stim\yellow.png,stim\gray.png,stim\gray.png,left,,,,,,,,,,,,,0,1,1,11,0,18,18,18,,,,,,,,,,,,,,,,,,,,,,,,,,,,,,,,,,,,,,,,,,,,,,,,,,,,,,,,left,1,204.67743439995684,None,204.67743439995684,None,204.67743439995684,205.67933389986865,204.67743439995684,205.67933389986865,204.67743439995684,205.67933389986865,204.67743439995684,205.67933389986865,204.67743439995684,205.17861299985088,204.67743439995684,205.17861299985088,204.67743439995684,205.17861299985088,204.67743439995684,205.17861299985088,204.67743439995684,None,0.29607079993002117,,,,,11027,001,2024_Jan_10_1123,nback,2021.2.3,59.949666239870176,
0-back,instructions\back-0.png,conditions\03back-e.xlsx,,,experiment,0,2,stim\gray.png,stim\yellow.png,stim\gray.png,stim\gray.png,left,,,,,,,,,,,,,0,1,1,11,0,19,19,19,,,,,,,,,,,,,,,,,,,,,,,,,,,,,,,,,,,,,,,,,,,,,,,,,,,,,,,,left,1,206.17954919999465,None,206.17954919999465,None,206.17954919999465,207.1818609999027,206.17954919999465,207.1818609999027,206.17954919999465,207.1818609999027,206.17954919999465,207.1818609999027,206.17954919999465,206.6809286000207,206.17954919999465,206.6809286000207,206.17954919999465,206.6809286000207,206.17954919999465,206.6809286000207,206.17954919999465,None,0.31393299996852875,,,,,11027,001,2024_Jan_10_1123,nback,2021.2.3,59.949666239870176,
0-back,instructions\back-0.png,conditions\03back-e.xlsx,,,,,,,,,,,,,,,,,,,,,,,0,1,1,11,,,,,,,,,,,,,,,,,,,,,,,,,,,,,,,,,,,,,,,,,,,,,,,,,,,,,,,,,,,,,,,,,,,,,,,,,,,,,,,,,,,,,207.6665366999805,None,,,11027,001,2024_Jan_10_1123,nback,2021.2.3,59.949666239870176,
0-back,instructions\back-0.png,conditions\02back-e.xlsx,,,experiment,0,4,stim\gray.png,stim\gray.png,stim\gray.png,stim\yellow.png,down,,,,,,,,,,,,,0,2,2,7,0,0,0,0,,,,,,,,,,,,,,,208.76643029996194,213.2734687998891,213.24012480000965,None,,,,,,,,,,,,,,,,,,,,,,,,,,,,,,,,,,,,,,down,1,213.69170679990202,None,213.69170679990202,None,213.69170679990202,214.6925373999402,213.69170679990202,214.6925373999402,213.69170679990202,214.6925373999402,213.69170679990202,214.6925373999402,213.69170679990202,214.19231839990243,213.69170679990202,214.19231839990243,213.69170679990202,214.19231839990243,213.69170679990202,214.19231839990243,213.69170679990202,None,0.40187969990074635,,,,,11027,001,2024_Jan_10_1123,nback,2021.2.3,59.949666239870176,
0-back,instructions\back-0.png,conditions\02back-e.xlsx,,,experiment,0,2,stim\gray.png,stim\yellow.png,stim\gray.png,stim\gray.png,left,,,,,,,,,,,,,0,2,2,7,0,1,1,1,,,,,,,,,,,,,,,,,,,,,,,,,,,,,,,,,,,,,,,,,,,,,,,,,,,,,,,,left,1,215.17641169996932,None,215.17641169996932,None,215.17641169996932,216.17777900001965,215.17641169996932,216.17777900001965,215.17641169996932,216.17777900001965,215.17641169996932,216.17777900001965,215.17641169996932,215.67798129981384,215.17641169996932,215.67798129981384,215.17641169996932,215.67798129981384,215.17641169996932,215.67798129981384,215.17641169996932,None,0.245124600129202,,,,,11027,001,2024_Jan_10_1123,nback,2021.2.3,59.949666239870176,
0-back,instructions\back-0.png,conditions\02back-e.xlsx,,,experiment,0,1,stim\yellow.png,stim\gray.png,stim\gray.png,stim\gray.png,up,,,,,,,,,,,,,0,2,2,7,0,2,2,2,,,,,,,,,,,,,,,,,,,,,,,,,,,,,,,,,,,,,,,,,,,,,,,,,,,,,,,,up,1,216.67849510000087,None,216.67849510000087,None,216.67849510000087,217.6797683998011,216.67849510000087,217.6797683998011,216.67849510000087,217.6797683998011,216.67849510000087,217.6797683998011,216.67849510000087,217.179235199932,216.67849510000087,217.179235199932,216.67849510000087,217.179235199932,216.67849510000087,217.179235199932,216.67849510000087,None,0.31894559995271266,,,,,11027,001,2024_Jan_10_1123,nback,2021.2.3,59.949666239870176,
0-back,instructions\back-0.png,conditions\02back-e.xlsx,,,experiment,0,2,stim\gray.png,stim\yellow.png,stim\gray.png,stim\gray.png,left,,,,,,,,,,,,,0,2,2,7,0,3,3,3,,,,,,,,,,,,,,,,,,,,,,,,,,,,,,,,,,,,,,,,,,,,,,,,,,,,,,,,left,1,218.16403310000896,None,218.16403310000896,None,218.16403310000896,219.16547030000947,218.16403310000896,219.16547030000947,218.16403310000896,219.16547030000947,218.16403310000896,219.16547030000947,218.16403310000896,218.66474799998105,218.16403310000896,218.66474799998105,218.16403310000896,218.66474799998105,218.16403310000896,218.66474799998105,218.16403310000896,None,0.3132952998857945,,,,,11027,001,2024_Jan_10_1123,nback,2021.2.3,59.949666239870176,
0-back,instructions\back-0.png,conditions\02back-e.xlsx,,,experiment,0,3,stim\gray.png,stim\gray.png,stim\yellow.png,stim\gray.png,right,,,,,,,,,,,,,0,2,2,7,0,4,4,4,,,,,,,,,,,,,,,,,,,,,,,,,,,,,,,,,,,,,,,,,,,,,,,,,,,,,,,,right,1,219.6666393999476,None,219.6666393999476,None,219.6666393999476,220.66813539993018,219.6666393999476,220.66813539993018,219.6666393999476,220.66813539993018,219.6666393999476,220.66813539993018,219.6666393999476,220.16710339998826,219.6666393999476,220.16710339998826,219.6666393999476,220.16710339998826,219.6666393999476,220.16710339998826,219.6666393999476,None,0.2908799001015723,,,,,11027,001,2024_Jan_10_1123,nback,2021.2.3,59.949666239870176,
0-back,instructions\back-0.png,conditions\02back-e.xlsx,,,experiment,0,1,stim\yellow.png,stim\gray.png,stim\gray.png,stim\gray.png,up,,,,,,,,,,,,,0,2,2,7,0,5,5,5,,,,,,,,,,,,,,,,,,,,,,,,,,,,,,,,,,,,,,,,,,,,,,,,,,,,,,,,up,1,221.16831819992512,None,221.16831819992512,None,221.16831819992512,222.1703750998713,221.16831819992512,222.1703750998713,221.16831819992512,222.1703750998713,221.16831819992512,222.1703750998713,221.16831819992512,221.66936920001172,221.16831819992512,221.66936920001172,221.16831819992512,221.66936920001172,221.16831819992512,221.66936920001172,221.16831819992512,None,0.2930627998430282,,,,,11027,001,2024_Jan_10_1123,nback,2021.2.3,59.949666239870176,
0-back,instructions\back-0.png,conditions\02back-e.xlsx,,,experiment,0,2,stim\gray.png,stim\yellow.png,stim\gray.png,stim\gray.png,left,,,,,,,,,,,,,0,2,2,7,0,6,6,6,,,,,,,,,,,,,,,,,,,,,,,,,,,,,,,,,,,,,,,,,,,,,,,,,,,,,,,,left,1,222.67073539993726,None,222.67073539993726,None,222.67073539993726,223.6722146999091,222.67073539993726,223.6722146999091,222.67073539993726,223.6722146999091,222.67073539993726,223.6722146999091,222.67073539993726,223.1715881000273,222.67073539993726,223.1715881000273,222.67073539993726,223.1715881000273,222.67073539993726,223.1715881000273,222.67073539993726,None,0.2868774998933077,,,,,11027,001,2024_Jan_10_1123,nback,2021.2.3,59.949666239870176,
0-back,instructions\back-0.png,conditions\02back-e.xlsx,,,experiment,0,3,stim\gray.png,stim\gray.png,stim\yellow.png,stim\gray.png,right,,,,,,,,,,,,,0,2,2,7,0,7,7,7,,,,,,,,,,,,,,,,,,,,,,,,,,,,,,,,,,,,,,,,,,,,,,,,,,,,,,,,right,1,224.17284729983658,None,224.17284729983658,None,224.17284729983658,225.1746642999351,224.17284729983658,225.1746642999351,224.17284729983658,225.1746642999351,224.17284729983658,225.1746642999351,224.17284729983658,224.6749801998958,224.17284729983658,224.6749801998958,224.17284729983658,224.6749801998958,224.17284729983658,224.6749801998958,224.17284729983658,None,0.2732061999849975,,,,,11027,001,2024_Jan_10_1123,nback,2021.2.3,59.949666239870176,
0-back,instructions\back-0.png,conditions\02back-e.xlsx,,,experiment,0,4,stim\gray.png,stim\gray.png,stim\gray.png,stim\yellow.png,down,,,,,,,,,,,,,0,2,2,7,0,8,8,8,,,,,,,,,,,,,,,,,,,,,,,,,,,,,,,,,,,,,,,,,,,,,,,,,,,,,,,,down,1,225.67512599984184,None,225.67512599984184,None,225.67512599984184,226.67651169979945,225.67512599984184,226.67651169979945,225.67512599984184,226.67651169979945,225.67512599984184,226.67651169979945,225.67512599984184,226.1758973998949,225.67512599984184,226.1758973998949,225.67512599984184,226.1758973998949,225.67512599984184,226.1758973998949,225.67512599984184,None,0.3782776999287307,,,,,11027,001,2024_Jan_10_1123,nback,2021.2.3,59.949666239870176,
0-back,instructions\back-0.png,conditions\02back-e.xlsx,,,experiment,0,3,stim\gray.png,stim\gray.png,stim\yellow.png,stim\gray.png,right,,,,,,,,,,,,,0,2,2,7,0,9,9,9,,,,,,,,,,,,,,,,,,,,,,,,,,,,,,,,,,,,,,,,,,,,,,,,,,,,,,,,right,1,227.17725720000453,None,227.17725720000453,None,227.17725720000453,228.17961569991894,227.17725720000453,228.17961569991894,227.17725720000453,228.17961569991894,227.17725720000453,228.17961569991894,227.17725720000453,227.67879059980623,227.17725720000453,227.67879059980623,227.17725720000453,227.67879059980623,227.17725720000453,227.67879059980623,227.17725720000453,None,0.3173239000607282,,,,,11027,001,2024_Jan_10_1123,nback,2021.2.3,59.949666239870176,
0-back,instructions\back-0.png,conditions\02back-e.xlsx,,,experiment,0,1,stim\yellow.png,stim\gray.png,stim\gray.png,stim\gray.png,up,,,,,,,,,,,,,0,2,2,7,0,10,10,10,,,,,,,,,,,,,,,,,,,,,,,,,,,,,,,,,,,,,,,,,,,,,,,,,,,,,,,,up,1,228.6626627999358,None,228.6626627999358,None,228.6626627999358,229.66446959995665,228.6626627999358,229.66446959995665,228.6626627999358,229.66446959995665,228.6626627999358,229.66446959995665,228.6626627999358,229.16460429993458,228.6626627999358,229.16460429993458,228.6626627999358,229.16460429993458,228.6626627999358,229.16460429993458,228.6626627999358,None,0.3267303998582065,,,,,11027,001,2024_Jan_10_1123,nback,2021.2.3,59.949666239870176,
0-back,instructions\back-0.png,conditions\02back-e.xlsx,,,experiment,0,4,stim\gray.png,stim\gray.png,stim\gray.png,stim\yellow.png,down,,,,,,,,,,,,,0,2,2,7,0,11,11,11,,,,,,,,,,,,,,,,,,,,,,,,,,,,,,,,,,,,,,,,,,,,,,,,,,,,,,,,down,1,230.16505549987778,None,230.16505549987778,None,230.16505549987778,231.16746929986402,230.16505549987778,231.16746929986402,230.16505549987778,231.16746929986402,230.16505549987778,231.16746929986402,230.16505549987778,230.665972399991,230.16505549987778,230.665972399991,230.16505549987778,230.665972399991,230.16505549987778,230.665972399991,230.16505549987778,None,0.35290850000455976,,,,,11027,001,2024_Jan_10_1123,nback,2021.2.3,59.949666239870176,
0-back,instructions\back-0.png,conditions\02back-e.xlsx,,,experiment,0,3,stim\gray.png,stim\gray.png,stim\yellow.png,stim\gray.png,right,,,,,,,,,,,,,0,2,2,7,0,12,12,12,,,,,,,,,,,,,,,,,,,,,,,,,,,,,,,,,,,,,,,,,,,,,,,,,,,,,,,,right,1,231.6672951998189,None,231.6672951998189,None,231.6672951998189,232.66956089995801,231.6672951998189,232.66956089995801,231.6672951998189,232.66956089995801,231.6672951998189,232.66956089995801,231.6672951998189,232.1678086000029,231.6672951998189,232.1678086000029,231.6672951998189,232.1678086000029,231.6672951998189,232.1678086000029,231.6672951998189,None,0.28210569988004863,,,,,11027,001,2024_Jan_10_1123,nback,2021.2.3,59.949666239870176,
0-back,instructions\back-0.png,conditions\02back-e.xlsx,,,experiment,0,1,stim\yellow.png,stim\gray.png,stim\gray.png,stim\gray.png,up,,,,,,,,,,,,,0,2,2,7,0,13,13,13,,,,,,,,,,,,,,,,,,,,,,,,,,,,,,,,,,,,,,,,,,,,,,,,,,,,,,,,up,1,233.16955300001428,None,233.16955300001428,None,233.16955300001428,234.1716018000152,233.16955300001428,234.1716018000152,233.16955300001428,234.1716018000152,233.16955300001428,234.1716018000152,233.16955300001428,233.67095349985175,233.16955300001428,233.67095349985175,233.16955300001428,233.67095349985175,233.16955300001428,233.67095349985175,233.16955300001428,None,0.30780750000849366,,,,,11027,001,2024_Jan_10_1123,nback,2021.2.3,59.949666239870176,
0-back,instructions\back-0.png,conditions\02back-e.xlsx,,,experiment,0,2,stim\gray.png,stim\yellow.png,stim\gray.png,stim\gray.png,left,,,,,,,,,,,,,0,2,2,7,0,14,14,14,,,,,,,,,,,,,,,,,,,,,,,,,,,,,,,,,,,,,,,,,,,,,,,,,,,,,,,,left,1,234.67254539998248,None,234.67254539998248,None,234.67254539998248,235.67396239982918,234.67254539998248,235.67396239982918,234.67254539998248,235.67396239982918,234.67254539998248,235.67396239982918,234.67254539998248,235.17335999989882,234.67254539998248,235.17335999989882,234.67254539998248,235.17335999989882,234.67254539998248,235.17335999989882,234.67254539998248,None,0.28487430000677705,,,,,11027,001,2024_Jan_10_1123,nback,2021.2.3,59.949666239870176,
0-back,instructions\back-0.png,conditions\02back-e.xlsx,,,experiment,0,1,stim\yellow.png,stim\gray.png,stim\gray.png,stim\gray.png,up,,,,,,,,,,,,,0,2,2,7,0,15,15,15,,,,,,,,,,,,,,,,,,,,,,,,,,,,,,,,,,,,,,,,,,,,,,,,,,,,,,,,up,1,236.17410319996998,None,236.17410319996998,None,236.17410319996998,237.17542369989678,236.17410319996998,237.17542369989678,236.17410319996998,237.17542369989678,236.17410319996998,237.17542369989678,236.17410319996998,236.67479679989628,236.17410319996998,236.67479679989628,236.17410319996998,236.67479679989628,236.17410319996998,236.67479679989628,236.17410319996998,None,0.3112256999593228,,,,,11027,001,2024_Jan_10_1123,nback,2021.2.3,59.949666239870176,
0-back,instructions\back-0.png,conditions\02back-e.xlsx,,,experiment,0,3,stim\gray.png,stim\gray.png,stim\yellow.png,stim\gray.png,right,,,,,,,,,,,,,0,2,2,7,0,16,16,16,,,,,,,,,,,,,,,,,,,,,,,,,,,,,,,,,,,,,,,,,,,,,,,,,,,,,,,,right,1,237.67622459982522,None,237.67622459982522,None,237.67622459982522,238.67756269988604,237.67622459982522,238.67756269988604,237.67622459982522,238.67756269988604,237.67622459982522,238.67756269988604,237.67622459982522,238.17709230002947,237.67622459982522,238.17709230002947,237.67622459982522,238.17709230002947,237.67622459982522,238.17709230002947,237.67622459982522,None,0.29774479987099767,,,,,11027,001,2024_Jan_10_1123,nback,2021.2.3,59.949666239870176,
0-back,instructions\back-0.png,conditions\02back-e.xlsx,,,experiment,0,4,stim\gray.png,stim\gray.png,stim\gray.png,stim\yellow.png,down,,,,,,,,,,,,,0,2,2,7,0,17,17,17,,,,,,,,,,,,,,,,,,,,,,,,,,,,,,,,,,,,,,,,,,,,,,,,,,,,,,,,down,1,239.17873259983025,None,239.17873259983025,None,239.17873259983025,240.179963799892,239.17873259983025,240.179963799892,239.17873259983025,240.179963799892,239.17873259983025,240.179963799892,239.17873259983025,239.6795963998884,239.17873259983025,239.6795963998884,239.17873259983025,239.6795963998884,239.17873259983025,239.6795963998884,239.17873259983025,None,0.32303200010210276,,,,,11027,001,2024_Jan_10_1123,nback,2021.2.3,59.949666239870176,
0-back,instructions\back-0.png,conditions\02back-e.xlsx,,,experiment,0,4,stim\gray.png,stim\gray.png,stim\gray.png,stim\yellow.png,down,,,,,,,,,,,,,0,2,2,7,0,18,18,18,,,,,,,,,,,,,,,,,,,,,,,,,,,,,,,,,,,,,,,,,,,,,,,,,,,,,,,,down,1,240.6643801999744,None,240.6643801999744,None,240.6643801999744,241.66555029992014,240.6643801999744,241.66555029992014,240.6643801999744,241.66555029992014,240.6643801999744,241.66555029992014,240.6643801999744,241.16571239987388,240.6643801999744,241.16571239987388,240.6643801999744,241.16571239987388,240.6643801999744,241.16571239987388,240.6643801999744,None,0.341204300057143,,,,,11027,001,2024_Jan_10_1123,nback,2021.2.3,59.949666239870176,
0-back,instructions\back-0.png,conditions\02back-e.xlsx,,,experiment,0,2,stim\gray.png,stim\yellow.png,stim\gray.png,stim\gray.png,left,,,,,,,,,,,,,0,2,2,7,0,19,19,19,,,,,,,,,,,,,,,,,,,,,,,,,,,,,,,,,,,,,,,,,,,,,,,,,,,,,,,,left,1,242.1662359999027,None,242.1662359999027,None,242.1662359999027,243.16793529991992,242.1662359999027,243.16793529991992,242.1662359999027,243.16793529991992,242.1662359999027,243.16793529991992,242.1662359999027,242.66687549999915,242.1662359999027,242.66687549999915,242.1662359999027,242.66687549999915,242.1662359999027,242.66687549999915,242.1662359999027,None,0.27111159986816347,,,,,11027,001,2024_Jan_10_1123,nback,2021.2.3,59.949666239870176,
0-back,instructions\back-0.png,conditions\02back-e.xlsx,,,,,,,,,,,,,,,,,,,,,,,0,2,2,7,,,,,,,,,,,,,,,,,,,,,,,,,,,,,,,,,,,,,,,,,,,,,,,,,,,,,,,,,,,,,,,,,,,,,,,,,,,,,,,,,,,,,243.66902179992758,None,,,11027,001,2024_Jan_10_1123,nback,2021.2.3,59.949666239870176,
1-back,instructions\back-1.png,conditions\13back-e.xlsx,,,experiment,1,1,stim\yellow.png,stim\gray.png,stim\gray.png,stim\gray.png,None,,,,,,,,,,,,,0,3,3,10,0,0,0,0,,,,,,,,,,,,,,,244.76976159983315,249.27736139995977,249.26009200001135,None,,,,,,,,,,,,,,,,,,,,,,,,,,,,,,,,,,,,,,None,1,249.69419569987804,None,249.69419569987804,None,249.69419569987804,250.6964435998816,249.69419569987804,250.6964435998816,249.69419569987804,250.6964435998816,249.69419569987804,250.6964435998816,249.69419569987804,250.19496769993566,249.69419569987804,250.19496769993566,249.69419569987804,250.19496769993566,249.69419569987804,250.19496769993566,249.69419569987804,None,,,,,,11027,001,2024_Jan_10_1123,nback,2021.2.3,59.949666239870176,
1-back,instructions\back-1.png,conditions\13back-e.xlsx,,,experiment,1,2,stim\gray.png,stim\yellow.png,stim\gray.png,stim\gray.png,up,,,,,,,,,,,,,0,3,3,10,0,1,1,1,,,,,,,,,,,,,,,,,,,,,,,,,,,,,,,,,,,,,,,,,,,,,,,,,,,,,,,,up,1,251.162930799881,None,251.162930799881,None,251.162930799881,252.16455550002865,251.162930799881,252.16455550002865,251.162930799881,252.16455550002865,251.162930799881,252.16455550002865,251.162930799881,251.66357819992118,251.162930799881,251.66357819992118,251.162930799881,251.66357819992118,251.162930799881,251.66357819992118,251.162930799881,None,0.33866919996216893,,,,,11027,001,2024_Jan_10_1123,nback,2021.2.3,59.949666239870176,
1-back,instructions\back-1.png,conditions\13back-e.xlsx,,,experiment,1,4,stim\gray.png,stim\gray.png,stim\gray.png,stim\yellow.png,left,,,,,,,,,,,,,0,3,3,10,0,2,2,2,,,,,,,,,,,,,,,,,,,,,,,,,,,,,,,,,,,,,,,,,,,,,,,,,,,,,,,,left,1,252.66513809980825,None,252.66513809980825,None,252.66513809980825,253.6669122998137,252.66513809980825,253.6669122998137,252.66513809980825,253.6669122998137,252.66513809980825,253.6669122998137,252.66513809980825,253.16614279989153,252.66513809980825,253.16614279989153,252.66513809980825,253.16614279989153,252.66513809980825,253.16614279989153,252.66513809980825,None,0.22025290015153587,,,,,11027,001,2024_Jan_10_1123,nback,2021.2.3,59.949666239870176,
1-back,instructions\back-1.png,conditions\13back-e.xlsx,,,experiment,1,3,stim\gray.png,stim\gray.png,stim\yellow.png,stim\gray.png,down,,,,,,,,,,,,,0,3,3,10,0,3,3,3,,,,,,,,,,,,,,,,,,,,,,,,,,,,,,,,,,,,,,,,,,,,,,,,,,,,,,,,right,0,254.16723389993422,None,254.16723389993422,None,254.16723389993422,255.1692941999063,254.16723389993422,255.1692941999063,254.16723389993422,255.1692941999063,254.16723389993422,255.1692941999063,254.16723389993422,254.66796859982423,254.16723389993422,254.66796859982423,254.16723389993422,254.66796859982423,254.16723389993422,254.66796859982423,254.16723389993422,None,1.4063739001285285,,,,,11027,001,2024_Jan_10_1123,nback,2021.2.3,59.949666239870176,
1-back,instructions\back-1.png,conditions\13back-e.xlsx,,,experiment,1,1,stim\yellow.png,stim\gray.png,stim\gray.png,stim\gray.png,right,,,,,,,,,,,,,0,3,3,10,0,4,4,4,,,,,,,,,,,,,,,,,,,,,,,,,,,,,,,,,,,,,,,,,,,,,,,,,,,,,,,,up,0,255.66963159991428,None,255.66963159991428,None,255.66963159991428,256.67166109988466,255.66963159991428,256.67166109988466,255.66963159991428,256.67166109988466,255.66963159991428,256.67166109988466,255.66963159991428,256.1702645998448,255.66963159991428,256.1702645998448,255.66963159991428,256.1702645998448,255.66963159991428,256.1702645998448,255.66963159991428,None,1.4157865000888705,,,,,11027,001,2024_Jan_10_1123,nback,2021.2.3,59.949666239870176,
1-back,instructions\back-1.png,conditions\13back-e.xlsx,,,experiment,1,3,stim\gray.png,stim\gray.png,stim\yellow.png,stim\gray.png,up,,,,,,,,,,,,,0,3,3,10,0,5,5,5,,,,,,,,,,,,,,,,,,,,,,,,,,,,,,,,,,,,,,,,,,,,,,,,,,,,,,,,right,0,257.1724001998082,None,257.1724001998082,None,257.1724001998082,258.1744083999656,257.1724001998082,258.1744083999656,257.1724001998082,258.1744083999656,257.1724001998082,258.1744083999656,257.1724001998082,257.67305719992146,257.1724001998082,257.67305719992146,257.1724001998082,257.67305719992146,257.1724001998082,257.67305719992146,257.1724001998082,None,1.4012162000872195,,,,,11027,001,2024_Jan_10_1123,nback,2021.2.3,59.949666239870176,
1-back,instructions\back-1.png,conditions\13back-e.xlsx,,,experiment,1,2,stim\gray.png,stim\yellow.png,stim\gray.png,stim\gray.png,right,,,,,,,,,,,,,0,3,3,10,0,6,6,6,,,,,,,,,,,,,,,,,,,,,,,,,,,,,,,,,,,,,,,,,,,,,,,,,,,,,,,,None,0,258.67402539984323,None,258.67402539984323,None,258.67402539984323,259.6756531998981,258.67402539984323,259.6756531998981,258.67402539984323,259.6756531998981,258.67402539984323,259.6756531998981,258.67402539984323,259.1747336999979,258.67402539984323,259.1747336999979,258.67402539984323,259.1747336999979,258.67402539984323,259.1747336999979,258.67402539984323,None,,,,,,11027,001,2024_Jan_10_1123,nback,2021.2.3,59.949666239870176,
1-back,instructions\back-1.png,conditions\13back-e.xlsx,,,experiment,1,4,stim\gray.png,stim\gray.png,stim\gray.png,stim\yellow.png,left,,,,,,,,,,,,,0,3,3,10,0,7,7,7,,,,,,,,,,,,,,,,,,,,,,,,,,,,,,,,,,,,,,,,,,,,,,,,,,,,,,,,left,1,260.17631459981203,None,260.17631459981203,None,260.17631459981203,261.17821129993536,260.17631459981203,261.17821129993536,260.17631459981203,261.17821129993536,260.17631459981203,261.17821129993536,260.17631459981203,260.67768189986236,260.17631459981203,260.67768189986236,260.17631459981203,260.67768189986236,260.17631459981203,260.67768189986236,260.17631459981203,None,0.069086599862203,,,,,11027,001,2024_Jan_10_1123,nback,2021.2.3,59.949666239870176,
1-back,instructions\back-1.png,conditions\13back-e.xlsx,,,experiment,1,1,stim\yellow.png,stim\gray.png,stim\gray.png,stim\gray.png,down,,,,,,,,,,,,,0,3,3,10,0,8,8,8,,,,,,,,,,,,,,,,,,,,,,,,,,,,,,,,,,,,,,,,,,,,,,,,,,,,,,,,down,1,261.6783629998099,None,261.6783629998099,None,261.6783629998099,262.6821647998877,261.6783629998099,262.6821647998877,261.6783629998099,262.6821647998877,261.6783629998099,262.6821647998877,261.6783629998099,262.1793388000224,261.6783629998099,262.1793388000224,261.6783629998099,262.1793388000224,261.6783629998099,262.1793388000224,261.6783629998099,None,0.08711709990166128,,,,,11027,001,2024_Jan_10_1123,nback,2021.2.3,59.949666239870176,
1-back,instructions\back-1.png,conditions\13back-e.xlsx,,,experiment,1,2,stim\gray.png,stim\yellow.png,stim\gray.png,stim\gray.png,up,,,,,,,,,,,,,0,3,3,10,0,9,9,9,,,,,,,,,,,,,,,,,,,,,,,,,,,,,,,,,,,,,,,,,,,,,,,,,,,,,,,,up,1,263.1640056998003,None,263.1640056998003,None,263.1640056998003,264.1662380998023,263.1640056998003,264.1662380998023,263.1640056998003,264.1662380998023,263.1640056998003,264.1662380998023,263.1640056998003,263.6650258000009,263.1640056998003,263.6650258000009,263.1640056998003,263.6650258000009,263.1640056998003,263.6650258000009,263.1640056998003,None,0.04151040012948215,,,,,11027,001,2024_Jan_10_1123,nback,2021.2.3,59.949666239870176,
1-back,instructions\back-1.png,conditions\13back-e.xlsx,,,experiment,1,4,stim\gray.png,stim\gray.png,stim\gray.png,stim\yellow.png,left,,,,,,,,,,,,,0,3,3,10,0,10,10,10,,,,,,,,,,,,,,,,,,,,,,,,,,,,,,,,,,,,,,,,,,,,,,,,,,,,,,,,down,0,264.6663722998928,None,264.6663722998928,None,264.6663722998928,265.66820629988797,264.6663722998928,265.66820629988797,264.6663722998928,265.66820629988797,264.6663722998928,265.66820629988797,264.6663722998928,265.1667871000245,264.6663722998928,265.1667871000245,264.6663722998928,265.1667871000245,264.6663722998928,265.1667871000245,264.6663722998928,None,1.4590038000606,,,,,11027,001,2024_Jan_10_1123,nback,2021.2.3,59.949666239870176,
1-back,instructions\back-1.png,conditions\13back-e.xlsx,,,experiment,1,3,stim\gray.png,stim\gray.png,stim\yellow.png,stim\gray.png,down,,,,,,,,,,,,,0,3,3,10,0,11,11,11,,,,,,,,,,,,,,,,,,,,,,,,,,,,,,,,,,,,,,,,,,,,,,,,,,,,,,,,right,0,266.1692442998756,None,266.1692442998756,None,266.1692442998756,267.1707794999238,266.1692442998756,267.1707794999238,266.1692442998756,267.1707794999238,266.1692442998756,267.1707794999238,266.1692442998756,266.6703996998258,266.1692442998756,266.6703996998258,266.1692442998756,266.6703996998258,266.1692442998756,266.6703996998258,266.1692442998756,None,1.3961817999370396,,,,,11027,001,2024_Jan_10_1123,nback,2021.2.3,59.949666239870176,
1-back,instructions\back-1.png,conditions\13back-e.xlsx,,,experiment,1,2,stim\gray.png,stim\yellow.png,stim\gray.png,stim\gray.png,right,,,,,,,,,,,,,0,3,3,10,0,12,12,12,,,,,,,,,,,,,,,,,,,,,,,,,,,,,,,,,,,,,,,,,,,,,,,,,,,,,,,,None,0,267.6713018999435,None,267.6713018999435,None,267.6713018999435,268.67313639982603,267.6713018999435,268.67313639982603,267.6713018999435,268.67313639982603,267.6713018999435,268.67313639982603,267.6713018999435,268.1716032999102,267.6713018999435,268.1716032999102,267.6713018999435,268.1716032999102,267.6713018999435,268.1716032999102,267.6713018999435,None,,,,,,11027,001,2024_Jan_10_1123,nback,2021.2.3,59.949666239870176,
1-back,instructions\back-1.png,conditions\13back-e.xlsx,,,experiment,1,4,stim\gray.png,stim\gray.png,stim\gray.png,stim\yellow.png,left,,,,,,,,,,,,,0,3,3,10,0,13,13,13,,,,,,,,,,,,,,,,,,,,,,,,,,,,,,,,,,,,,,,,,,,,,,,,,,,,,,,,down,0,269.172817299841,None,269.172817299841,None,269.172817299841,270.17453429987654,269.172817299841,270.17453429987654,269.172817299841,270.17453429987654,269.172817299841,270.17453429987654,269.172817299841,269.67398989992216,269.172817299841,269.67398989992216,269.172817299841,269.67398989992216,269.172817299841,269.67398989992216,269.172817299841,None,1.4086368000134826,,,,,11027,001,2024_Jan_10_1123,nback,2021.2.3,59.949666239870176,
1-back,instructions\back-1.png,conditions\13back-e.xlsx,,,experiment,1,1,stim\yellow.png,stim\gray.png,stim\gray.png,stim\gray.png,down,,,,,,,,,,,,,0,3,3,10,0,14,14,14,,,,,,,,,,,,,,,,,,,,,,,,,,,,,,,,,,,,,,,,,,,,,,,,,,,,,,,,None,0,270.6749098999426,None,270.6749098999426,None,270.6749098999426,271.6768298000097,270.6749098999426,271.6768298000097,270.6749098999426,271.6768298000097,270.6749098999426,271.6768298000097,270.6749098999426,271.1767872998025,270.6749098999426,271.1767872998025,270.6749098999426,271.1767872998025,270.6749098999426,271.1767872998025,270.6749098999426,None,,,,,,11027,001,2024_Jan_10_1123,nback,2021.2.3,59.949666239870176,
1-back,instructions\back-1.png,conditions\13back-e.xlsx,,,experiment,1,4,stim\gray.png,stim\gray.png,stim\gray.png,stim\yellow.png,up,,,,,,,,,,,,,0,3,3,10,0,15,15,15,,,,,,,,,,,,,,,,,,,,,,,,,,,,,,,,,,,,,,,,,,,,,,,,,,,,,,,,down,0,272.1771924998611,None,272.1771924998611,None,272.1771924998611,273.17910879990086,272.1771924998611,273.17910879990086,272.1771924998611,273.17910879990086,272.1771924998611,273.17910879990086,272.1771924998611,272.6779339998029,272.1771924998611,272.6779339998029,272.1771924998611,272.6779339998029,272.1771924998611,272.6779339998029,272.1771924998611,None,1.4602926999796182,,,,,11027,001,2024_Jan_10_1123,nback,2021.2.3,59.949666239870176,
1-back,instructions\back-1.png,conditions\13back-e.xlsx,,,experiment,1,1,stim\yellow.png,stim\gray.png,stim\gray.png,stim\gray.png,down,,,,,,,,,,,,,0,3,3,10,0,16,16,16,,,,,,,,,,,,,,,,,,,,,,,,,,,,,,,,,,,,,,,,,,,,,,,,,,,,,,,,up,0,273.67952180001885,None,273.67952180001885,None,273.67952180001885,274.68106149998493,273.67952180001885,274.68106149998493,273.67952180001885,274.68106149998493,273.67952180001885,274.68106149998493,273.67952180001885,274.18057610001415,273.67952180001885,274.18057610001415,273.67952180001885,274.18057610001415,273.67952180001885,274.18057610001415,273.67952180001885,None,1.4304154000710696,,,,,11027,001,2024_Jan_10_1123,nback,2021.2.3,59.949666239870176,
