backseq,backinstr,backfile,instruction,size_in,Trialtype,back,number,P1,P2,P3,P4,corrAns,trials_practice.thisRepN,trials_practice.thisTrialN,trials_practice.thisN,trials_practice.thisIndex,trials.thisRepN,trials.thisTrialN,trials.thisN,trials.thisIndex,trials_3.thisRepN,trials_3.thisTrialN,trials_3.thisN,trials_3.thisIndex,trials_2.thisRepN,trials_2.thisTrialN,trials_2.thisN,trials_2.thisIndex,trials_4.thisRepN,trials_4.thisTrialN,trials_4.thisN,trials_4.thisIndex,image.started,image.stopped,image_2.started,image_2.stopped,key_resp.keys,key_resp.rt,key_resp.started,key_resp.stopped,image_3.started,image_3.stopped,key_resp_2.keys,key_resp_2.rt,key_resp_2.started,key_resp_2.stopped,image_4.started,image_4.stopped,text.started,text.stopped,H1.started,H1.stopped,H2.started,H2.stopped,H3.started,H3.stopped,H4.started,H4.stopped,key_resp_3.keys,key_resp_3.corr,key_resp_3.rt,key_resp_3.started,key_resp_3.stopped,text_4.started,text_4.stopped,F1.started,F1.stopped,F2.started,F2.stopped,F3.started,F3.stopped,F4.started,F4.stopped,image_7.started,image_7.stopped,text_5.started,text_5.stopped,key_resp_6.keys,key_resp_6.rt,key_resp_6.started,key_resp_6.stopped,image_5.started,image_5.stopped,key_resp_4.keys,key_resp_4.rt,key_resp_4.started,key_resp_4.stopped,key_resp_5.keys,key_resp_5.corr,key_resp_5.rt,key_resp_5.started,key_resp_5.stopped,text_3.started,text_3.stopped,H1_2.started,H1_2.stopped,H2_2.started,H2_2.stopped,H3_2.started,H3_2.stopped,H4_2.started,H4_2.stopped,F1_2.started,F1_2.stopped,F2_2.started,F2_2.stopped,F3_2.started,F3_2.stopped,F4_2.started,F4_2.stopped,image_8.started,image_8.stopped,text_2.started,text_2.stopped,image_6.started,image_6.stopped,participant,session,date,expName,psychopyVersion,frameRate,
,,,,,,,,,,,,,,,,,,,,,,,,,,,,,,,,,10.710987700033002,None,11.679576299968176,None,space,2.728118299972266,11.679576299968176,None,,,,,,,,,,,,,,,,,,,,,,,,,,,,,,,,,,,,,,,,,,,,,,,,,,,,,,,,,,,,,,,,,,,,,,,,,,,,,11025,001,2024_Jan_08_0944,nback,2021.2.3,60.01983056327316,
0-back,instructions\back-0.png,conditions\0back-p.xlsx,instructions\0-BACK.png,"(15, 8)",practice,0,1,stim\yellow.png,stim\gray.png,stim\gray.png,stim\gray.png,up,0,0,0,0,0,0,0,0,0,0,0,0,,,,,,,,,,,,,,,,,14.466513099963777,None,space,4.4848305999767035,14.466513099963777,None,19.073597199982032,23.580531000043266,23.54623370000627,None,23.998887700028718,24.999385599978268,23.998887700028718,24.999385599978268,23.998887700028718,24.999385599978268,23.998887700028718,24.999385599978268,up,1,1.0173902000533417,23.998887700028718,None,23.998887700028718,None,23.998887700028718,24.499518900061958,23.998887700028718,24.499518900061958,23.998887700028718,24.499518900061958,23.998887700028718,24.499518900061958,23.998887700028718,None,,,,,,,,,,,,,,,,,,,,,,,,,,,,,,,,,,,,,,,,,,11025,001,2024_Jan_08_0944,nback,2021.2.3,60.01983056327316,
0-back,instructions\back-0.png,conditions\0back-p.xlsx,instructions\0-BACK.png,"(15, 8)",practice,0,2,stim\gray.png,stim\yellow.png,stim\gray.png,stim\gray.png,left,0,0,0,0,0,0,0,0,0,1,1,1,,,,,,,,,,,,,,,,,,,,,,,,,,,25.48371269996278,26.484523299965076,25.48371269996278,26.484523299965076,25.48371269996278,26.484523299965076,25.48371269996278,26.484523299965076,left,1,0.43566860002465546,25.48371269996278,None,25.48371269996278,None,25.48371269996278,25.984176099998876,25.48371269996278,25.984176099998876,25.48371269996278,25.984176099998876,25.48371269996278,25.984176099998876,25.48371269996278,None,,,,,,,,,,,,,,,,,,,,,,,,,,,,,,,,,,,,,,,,,,11025,001,2024_Jan_08_0944,nback,2021.2.3,60.01983056327316,
0-back,instructions\back-0.png,conditions\0back-p.xlsx,instructions\0-BACK.png,"(15, 8)",practice,0,3,stim\gray.png,stim\gray.png,stim\yellow.png,stim\gray.png,right,0,0,0,0,0,0,0,0,0,2,2,2,,,,,,,,,,,,,,,,,,,,,,,,,,,26.985466200043447,27.98759609996341,26.985466200043447,27.98759609996341,26.985466200043447,27.98759609996341,26.985466200043447,27.98759609996341,right,1,0.33434209995903075,26.985466200043447,None,26.985466200043447,None,26.985466200043447,27.486317300004885,26.985466200043447,27.486317300004885,26.985466200043447,27.486317300004885,26.985466200043447,27.486317300004885,26.985466200043447,None,,,,,,,,,,,,,,,,,,,,,,,,,,,,,,,,,,,,,,,,,,11025,001,2024_Jan_08_0944,nback,2021.2.3,60.01983056327316,
0-back,instructions\back-0.png,conditions\0back-p.xlsx,instructions\0-BACK.png,"(15, 8)",practice,0,4,stim\gray.png,stim\gray.png,stim\gray.png,stim\yellow.png,down,0,0,0,0,0,0,0,0,0,3,3,3,,,,,,,,,,,,,,,,,,,,,,,,,,,28.487539599998854,29.489651200012304,28.487539599998854,29.489651200012304,28.487539599998854,29.489651200012304,28.487539599998854,29.489651200012304,down,1,0.4722660999977961,28.487539599998854,None,28.487539599998854,None,28.487539599998854,28.988880899967626,28.487539599998854,28.988880899967626,28.487539599998854,28.988880899967626,28.487539599998854,28.988880899967626,28.487539599998854,None,,,,,,,,,,,,,,,,,,,,,,,,,,,,,,,,,,,,,,,,,,11025,001,2024_Jan_08_0944,nback,2021.2.3,60.01983056327316,
0-back,instructions\back-0.png,conditions\0back-p.xlsx,instructions\0-BACK.png,"(15, 8)",practice,0,2,stim\gray.png,stim\yellow.png,stim\gray.png,stim\gray.png,left,0,0,0,0,0,0,0,0,0,4,4,4,,,,,,,,,,,,,,,,,,,,,,,,,,,29.989767999970354,30.991357799968682,29.989767999970354,30.991357799968682,29.989767999970354,30.991357799968682,29.989767999970354,30.991357799968682,left,1,0.29794759990181774,29.989767999970354,None,29.989767999970354,None,29.989767999970354,30.49085990001913,29.989767999970354,30.49085990001913,29.989767999970354,30.49085990001913,29.989767999970354,30.49085990001913,29.989767999970354,None,,,,,,,,,,,,,,,,,,,,,,,,,,,,,,,,,,,,,,,,,,11025,001,2024_Jan_08_0944,nback,2021.2.3,60.01983056327316,
0-back,instructions\back-0.png,conditions\0back-p.xlsx,instructions\0-BACK.png,"(15, 8)",practice,0,1,stim\yellow.png,stim\gray.png,stim\gray.png,stim\gray.png,up,0,0,0,0,0,0,0,0,0,5,5,5,,,,,,,,,,,,,,,,,,,,,,,,,,,31.492335899965838,32.49369450006634,31.492335899965838,32.49369450006634,31.492335899965838,32.49369450006634,31.492335899965838,32.49369450006634,up,1,0.4269619000842795,31.492335899965838,None,31.492335899965838,None,31.492335899965838,31.993599700042978,31.492335899965838,31.993599700042978,31.492335899965838,31.993599700042978,31.492335899965838,31.993599700042978,31.492335899965838,None,,,,,,,,,,,,,,,,,,,,,,,,,,,,,,,,,,,,,,,,,,11025,001,2024_Jan_08_0944,nback,2021.2.3,60.01983056327316,
0-back,instructions\back-0.png,conditions\0back-p.xlsx,instructions\0-BACK.png,"(15, 8)",practice,0,4,stim\gray.png,stim\gray.png,stim\gray.png,stim\yellow.png,down,0,0,0,0,0,0,0,0,0,6,6,6,,,,,,,,,,,,,,,,,,,,,,,,,,,32.97764779999852,33.97890109999571,32.97764779999852,33.97890109999571,32.97764779999852,33.97890109999571,32.97764779999852,33.97890109999571,down,1,0.45400959998369217,32.97764779999852,None,32.97764779999852,None,32.97764779999852,33.47848479996901,32.97764779999852,33.47848479996901,32.97764779999852,33.47848479996901,32.97764779999852,33.47848479996901,32.97764779999852,None,,,,,,,,,,,,,,,,,,,,,,,,,,,,,,,,,,,,,,,,,,11025,001,2024_Jan_08_0944,nback,2021.2.3,60.01983056327316,
0-back,instructions\back-0.png,conditions\0back-p.xlsx,instructions\0-BACK.png,"(15, 8)",practice,0,3,stim\gray.png,stim\gray.png,stim\yellow.png,stim\gray.png,right,0,0,0,0,0,0,0,0,0,7,7,7,,,,,,,,,,,,,,,,,,,,,,,,,,,34.479896200005896,35.4817747999914,34.479896200005896,35.4817747999914,34.479896200005896,35.4817747999914,34.479896200005896,35.4817747999914,right,1,0.3593963000457734,34.479896200005896,None,34.479896200005896,None,34.479896200005896,34.981388300075196,34.479896200005896,34.981388300075196,34.479896200005896,34.981388300075196,34.479896200005896,34.981388300075196,34.479896200005896,None,,,,,,,,,,,,,,,,,,,,,,,,,,,,,,,,,,,,,,,,,,11025,001,2024_Jan_08_0944,nback,2021.2.3,60.01983056327316,
0-back,instructions\back-0.png,conditions\0back-p.xlsx,instructions\0-BACK.png,"(15, 8)",practice,0,3,stim\gray.png,stim\gray.png,stim\yellow.png,stim\gray.png,right,0,0,0,0,0,0,0,0,0,8,8,8,,,,,,,,,,,,,,,,,,,,,,,,,,,35.982066500000656,36.98353369999677,35.982066500000656,36.98353369999677,35.982066500000656,36.98353369999677,35.982066500000656,36.98353369999677,right,1,0.31366099999286234,35.982066500000656,None,35.982066500000656,None,35.982066500000656,36.48272229998838,35.982066500000656,36.48272229998838,35.982066500000656,36.48272229998838,35.982066500000656,36.48272229998838,35.982066500000656,None,,,,,,,,,,,,,,,,,,,,,,,,,,,,,,,,,,,,,,,,,,11025,001,2024_Jan_08_0944,nback,2021.2.3,60.01983056327316,
0-back,instructions\back-0.png,conditions\0back-p.xlsx,instructions\0-BACK.png,"(15, 8)",practice,0,4,stim\gray.png,stim\gray.png,stim\gray.png,stim\yellow.png,down,0,0,0,0,0,0,0,0,0,9,9,9,,,,,,,,,,,,,,,,,,,,,,,,,,,37.48501329997089,38.485776599962264,37.48501329997089,38.485776599962264,37.48501329997089,38.485776599962264,37.48501329997089,38.485776599962264,down,1,0.39431599993258715,37.48501329997089,None,37.48501329997089,None,37.48501329997089,37.98505360004492,37.48501329997089,37.98505360004492,37.48501329997089,37.98505360004492,37.48501329997089,37.98505360004492,37.48501329997089,None,,,,,,,,,,,,,,,,,,,,,,,,,,,,,,,,,,,,,,,,,,11025,001,2024_Jan_08_0944,nback,2021.2.3,60.01983056327316,
0-back,instructions\back-0.png,conditions\0back-p.xlsx,instructions\0-BACK.png,"(15, 8)",practice,0,1,stim\yellow.png,stim\gray.png,stim\gray.png,stim\gray.png,up,0,0,0,0,0,0,0,0,0,10,10,10,,,,,,,,,,,,,,,,,,,,,,,,,,,38.986383600044064,39.98863350006286,38.986383600044064,39.98863350006286,38.986383600044064,39.98863350006286,38.986383600044064,39.98863350006286,up,1,0.4853410000214353,38.986383600044064,None,38.986383600044064,None,38.986383600044064,39.48790990002453,38.986383600044064,39.48790990002453,38.986383600044064,39.48790990002453,38.986383600044064,39.48790990002453,38.986383600044064,None,,,,,,,,,,,,,,,,,,,,,,,,,,,,,,,,,,,,,,,,,,11025,001,2024_Jan_08_0944,nback,2021.2.3,60.01983056327316,
0-back,instructions\back-0.png,conditions\0back-p.xlsx,instructions\0-BACK.png,"(15, 8)",practice,0,2,stim\gray.png,stim\yellow.png,stim\gray.png,stim\gray.png,left,0,0,0,0,0,0,0,0,0,11,11,11,,,,,,,,,,,,,,,,,,,,,,,,,,,40.488790299976245,41.490259999991395,40.488790299976245,41.490259999991395,40.488790299976245,41.490259999991395,40.488790299976245,41.490259999991395,left,1,0.38266969996038824,40.488790299976245,None,40.488790299976245,None,40.488790299976245,40.99053080007434,40.488790299976245,40.99053080007434,40.488790299976245,40.99053080007434,40.488790299976245,40.99053080007434,40.488790299976245,None,,,,,,,,,,,,,,,,,,,,,,,,,,,,,,,,,,,,,,,,,,11025,001,2024_Jan_08_0944,nback,2021.2.3,60.01983056327316,
0-back,instructions\back-0.png,conditions\0back-p.xlsx,instructions\0-BACK.png,"(15, 8)",practice,0,4,stim\gray.png,stim\gray.png,stim\gray.png,stim\yellow.png,down,0,0,0,0,0,0,0,0,0,12,12,12,,,,,,,,,,,,,,,,,,,,,,,,,,,41.99092680006288,42.99343300005421,41.99092680006288,42.99343300005421,41.99092680006288,42.99343300005421,41.99092680006288,42.99343300005421,down,1,0.48840179992839694,41.99092680006288,None,41.99092680006288,None,41.99092680006288,42.49176959996112,41.99092680006288,42.49176959996112,41.99092680006288,42.49176959996112,41.99092680006288,42.49176959996112,41.99092680006288,None,,,,,,,,,,,,,,,,,,,,,,,,,,,,,,,,,,,,,,,,,,11025,001,2024_Jan_08_0944,nback,2021.2.3,60.01983056327316,
0-back,instructions\back-0.png,conditions\0back-p.xlsx,instructions\0-BACK.png,"(15, 8)",practice,0,3,stim\gray.png,stim\gray.png,stim\yellow.png,stim\gray.png,right,0,0,0,0,0,0,0,0,0,13,13,13,,,,,,,,,,,,,,,,,,,,,,,,,,,43.493912099977024,44.49465210002381,43.493912099977024,44.49465210002381,43.493912099977024,44.49465210002381,43.493912099977024,44.49465210002381,right,1,0.33732169994618744,43.493912099977024,None,43.493912099977024,None,43.493912099977024,43.99420570000075,43.493912099977024,43.99420570000075,43.493912099977024,43.99420570000075,43.493912099977024,43.99420570000075,43.493912099977024,None,,,,,,,,,,,,,,,,,,,,,,,,,,,,,,,,,,,,,,,,,,11025,001,2024_Jan_08_0944,nback,2021.2.3,60.01983056327316,
0-back,instructions\back-0.png,conditions\0back-p.xlsx,instructions\0-BACK.png,"(15, 8)",practice,0,1,stim\yellow.png,stim\gray.png,stim\gray.png,stim\gray.png,up,0,0,0,0,0,0,0,0,0,14,14,14,,,,,,,,,,,,,,,,,,,,,,,,,,,44.98030299996026,45.981428000028245,44.98030299996026,45.981428000028245,44.98030299996026,45.981428000028245,44.98030299996026,45.981428000028245,up,1,0.39502850000280887,44.98030299996026,None,44.98030299996026,None,44.98030299996026,45.47952739999164,44.98030299996026,45.47952739999164,44.98030299996026,45.47952739999164,44.98030299996026,45.47952739999164,44.98030299996026,None,,,,,,,,,,,,,,,,,,,,,,,,,,,,,,,,,,,,,,,,,,11025,001,2024_Jan_08_0944,nback,2021.2.3,60.01983056327316,
0-back,instructions\back-0.png,conditions\0back-p.xlsx,instructions\0-BACK.png,"(15, 8)",practice,0,2,stim\gray.png,stim\yellow.png,stim\gray.png,stim\gray.png,left,0,0,0,0,0,0,0,0,0,15,15,15,,,,,,,,,,,,,,,,,,,,,,,,,,,46.48181070003193,47.48304369999096,46.48181070003193,47.48304369999096,46.48181070003193,47.48304369999096,46.48181070003193,47.48304369999096,left,1,0.3819221999729052,46.48181070003193,None,46.48181070003193,None,46.48181070003193,46.98182149999775,46.48181070003193,46.98182149999775,46.48181070003193,46.98182149999775,46.48181070003193,46.98182149999775,46.48181070003193,None,,,,,,,,,,,,,,,,,,,,,,,,,,,,,,,,,,,,,,,,,,11025,001,2024_Jan_08_0944,nback,2021.2.3,60.01983056327316,
0-back,instructions\back-0.png,conditions\0back-p.xlsx,instructions\0-BACK.png,"(15, 8)",practice,0,3,stim\gray.png,stim\gray.png,stim\yellow.png,stim\gray.png,right,0,0,0,0,0,0,0,0,0,16,16,16,,,,,,,,,,,,,,,,,,,,,,,,,,,47.98315270000603,48.98554859997239,47.98315270000603,48.98554859997239,47.98315270000603,48.98554859997239,47.98315270000603,48.98554859997239,right,1,0.3361162000801414,47.98315270000603,None,47.98315270000603,None,47.98315270000603,48.484407100011595,47.98315270000603,48.484407100011595,47.98315270000603,48.484407100011595,47.98315270000603,48.484407100011595,47.98315270000603,None,,,,,,,,,,,,,,,,,,,,,,,,,,,,,,,,,,,,,,,,,,11025,001,2024_Jan_08_0944,nback,2021.2.3,60.01983056327316,
0-back,instructions\back-0.png,conditions\0back-p.xlsx,instructions\0-BACK.png,"(15, 8)",practice,0,1,stim\yellow.png,stim\gray.png,stim\gray.png,stim\gray.png,up,0,0,0,0,0,0,0,0,0,17,17,17,,,,,,,,,,,,,,,,,,,,,,,,,,,49.485594899975695,50.486841000034474,49.485594899975695,50.486841000034474,49.485594899975695,50.486841000034474,49.485594899975695,50.486841000034474,up,1,0.3536526000825688,49.485594899975695,None,49.485594899975695,None,49.485594899975695,49.9861804000102,49.485594899975695,49.9861804000102,49.485594899975695,49.9861804000102,49.485594899975695,49.9861804000102,49.485594899975695,None,,,,,,,,,,,,,,,,,,,,,,,,,,,,,,,,,,,,,,,,,,11025,001,2024_Jan_08_0944,nback,2021.2.3,60.01983056327316,
0-back,instructions\back-0.png,conditions\0back-p.xlsx,instructions\0-BACK.png,"(15, 8)",practice,0,4,stim\gray.png,stim\gray.png,stim\gray.png,stim\yellow.png,down,0,0,0,0,0,0,0,0,0,18,18,18,,,,,,,,,,,,,,,,,,,,,,,,,,,50.98767190007493,51.989222100004554,50.98767190007493,51.989222100004554,50.98767190007493,51.989222100004554,50.98767190007493,51.989222100004554,down,1,0.45956819993443787,50.98767190007493,None,50.98767190007493,None,50.98767190007493,51.48967519996222,50.98767190007493,51.48967519996222,50.98767190007493,51.48967519996222,50.98767190007493,51.48967519996222,50.98767190007493,None,,,,,,,,,,,,,,,,,,,,,,,,,,,,,,,,,,,,,,,,,,11025,001,2024_Jan_08_0944,nback,2021.2.3,60.01983056327316,
0-back,instructions\back-0.png,conditions\0back-p.xlsx,instructions\0-BACK.png,"(15, 8)",practice,0,2,stim\gray.png,stim\yellow.png,stim\gray.png,stim\gray.png,left,0,0,0,0,0,0,0,0,0,19,19,19,,,,,,,,,,,,,,,,,,,,,,,,,,,52.490037200041115,53.49197800003458,52.490037200041115,53.49197800003458,52.490037200041115,53.49197800003458,52.490037200041115,53.49197800003458,left,1,0.34927590005099773,52.490037200041115,None,52.490037200041115,None,52.490037200041115,52.9908384999726,52.490037200041115,52.9908384999726,52.490037200041115,52.9908384999726,52.490037200041115,52.9908384999726,52.490037200041115,None,,,,,,,,,,,,,,,,,,,,,,,,,,,,,,,,,,,,,,,,,,11025,001,2024_Jan_08_0944,nback,2021.2.3,60.01983056327316,
0-back,instructions\back-0.png,conditions\0back-p.xlsx,instructions\0-BACK.png,"(15, 8)",,,,,,,,,0,0,0,0,0,0,0,0,,,,,,,,,,,,,,,,,,,,,,,,,,,,,,,,,,,,,,,,,,,,,,,,,,,,,,,,,,,,,,,,,,,,,,,,,,,,,,,,,,,,,,,,,,,,,,,,,11025,001,2024_Jan_08_0944,nback,2021.2.3,60.01983056327316,
1-back,instructions\back-1.png,conditions\1back-p.xlsx,instructions\1-BACK.png,"(25, 15)",practice,1,1,stim\yellow.png,stim\gray.png,stim\gray.png,stim\gray.png,None,0,0,0,0,0,1,1,1,0,0,0,0,,,,,,,,,,,,,,,,,54.1088291000342,None,space,9.01040989998728,54.1088291000342,None,63.23900399997365,67.74809080001432,67.71421390003525,None,68.16400500002783,69.1647435000632,68.16400500002783,69.1647435000632,68.16400500002783,69.1647435000632,68.16400500002783,69.1647435000632,None,1,,68.16400500002783,None,68.16400500002783,None,68.16400500002783,68.66380500001833,68.16400500002783,68.66380500001833,68.16400500002783,68.66380500001833,68.16400500002783,68.66380500001833,68.16400500002783,None,,,,,,,,,,,,,,,,,,,,,,,,,,,,,,,,,,,,,,,,,,11025,001,2024_Jan_08_0944,nback,2021.2.3,60.01983056327316,
1-back,instructions\back-1.png,conditions\1back-p.xlsx,instructions\1-BACK.png,"(25, 15)",practice,1,2,stim\gray.png,stim\yellow.png,stim\gray.png,stim\gray.png,up,0,0,0,0,0,1,1,1,0,1,1,1,,,,,,,,,,,,,,,,,,,,,,,,,,,69.64888520003296,70.65104370005429,69.64888520003296,70.65104370005429,69.64888520003296,70.65104370005429,69.64888520003296,70.65104370005429,up,1,0.34243730001617223,69.64888520003296,None,69.64888520003296,None,69.64888520003296,70.15017939999234,69.64888520003296,70.15017939999234,69.64888520003296,70.15017939999234,69.64888520003296,70.15017939999234,69.64888520003296,None,,,,,,,,,,,,,,,,,,,,,,,,,,,,,,,,,,,,,,,,,,11025,001,2024_Jan_08_0944,nback,2021.2.3,60.01983056327316,
1-back,instructions\back-1.png,conditions\1back-p.xlsx,instructions\1-BACK.png,"(25, 15)",practice,1,3,stim\gray.png,stim\gray.png,stim\yellow.png,stim\gray.png,left,0,0,0,0,0,1,1,1,0,2,2,2,,,,,,,,,,,,,,,,,,,,,,,,,,,71.15086559997872,72.15213549998589,71.15086559997872,72.15213549998589,71.15086559997872,72.15213549998589,71.15086559997872,72.15213549998589,left,1,0.3364213000750169,71.15086559997872,None,71.15086559997872,None,71.15086559997872,71.65180790005252,71.15086559997872,71.65180790005252,71.15086559997872,71.65180790005252,71.15086559997872,71.65180790005252,71.15086559997872,None,,,,,,,,,,,,,,,,,,,,,,,,,,,,,,,,,,,,,,,,,,11025,001,2024_Jan_08_0944,nback,2021.2.3,60.01983056327316,
1-back,instructions\back-1.png,conditions\1back-p.xlsx,instructions\1-BACK.png,"(25, 15)",practice,1,4,stim\gray.png,stim\gray.png,stim\gray.png,stim\yellow.png,right,0,0,0,0,0,1,1,1,0,3,3,3,,,,,,,,,,,,,,,,,,,,,,,,,,,72.65380480000749,73.65526979998685,72.65380480000749,73.65526979998685,72.65380480000749,73.65526979998685,72.65380480000749,73.65526979998685,right,1,0.3220905000343919,72.65380480000749,None,72.65380480000749,None,72.65380480000749,73.15418740001041,72.65380480000749,73.15418740001041,72.65380480000749,73.15418740001041,72.65380480000749,73.15418740001041,72.65380480000749,None,,,,,,,,,,,,,,,,,,,,,,,,,,,,,,,,,,,,,,,,,,11025,001,2024_Jan_08_0944,nback,2021.2.3,60.01983056327316,
1-back,instructions\back-1.png,conditions\1back-p.xlsx,instructions\1-BACK.png,"(25, 15)",practice,1,2,stim\gray.png,stim\yellow.png,stim\gray.png,stim\gray.png,down,0,0,0,0,0,1,1,1,0,4,4,4,,,,,,,,,,,,,,,,,,,,,,,,,,,74.15569479996338,75.15746420004871,74.15569479996338,75.15746420004871,74.15569479996338,75.15746420004871,74.15569479996338,75.15746420004871,down,1,0.30795199994463474,74.15569479996338,None,74.15569479996338,None,74.15569479996338,74.65685090003535,74.15569479996338,74.65685090003535,74.15569479996338,74.65685090003535,74.15569479996338,74.65685090003535,74.15569479996338,None,,,,,,,,,,,,,,,,,,,,,,,,,,,,,,,,,,,,,,,,,,11025,001,2024_Jan_08_0944,nback,2021.2.3,60.01983056327316,
1-back,instructions\back-1.png,conditions\1back-p.xlsx,instructions\1-BACK.png,"(25, 15)",practice,1,1,stim\yellow.png,stim\gray.png,stim\gray.png,stim\gray.png,left,0,0,0,0,0,1,1,1,0,5,5,5,,,,,,,,,,,,,,,,,,,,,,,,,,,75.65847530006431,76.65902080002706,75.65847530006431,76.65902080002706,75.65847530006431,76.65902080002706,75.65847530006431,76.65902080002706,left,1,0.25291709997691214,75.65847530006431,None,75.65847530006431,None,75.65847530006431,76.15914130001329,75.65847530006431,76.15914130001329,75.65847530006431,76.15914130001329,75.65847530006431,76.15914130001329,75.65847530006431,None,,,,,,,,,,,,,,,,,,,,,,,,,,,,,,,,,,,,,,,,,,11025,001,2024_Jan_08_0944,nback,2021.2.3,60.01983056327316,
1-back,instructions\back-1.png,conditions\1back-p.xlsx,instructions\1-BACK.png,"(25, 15)",practice,1,4,stim\gray.png,stim\gray.png,stim\gray.png,stim\yellow.png,up,0,0,0,0,0,1,1,1,0,6,6,6,,,,,,,,,,,,,,,,,,,,,,,,,,,77.15983909997158,78.16234350006562,77.15983909997158,78.16234350006562,77.15983909997158,78.16234350006562,77.15983909997158,78.16234350006562,up,1,0.23961449996568263,77.15983909997158,None,77.15983909997158,None,77.15983909997158,77.66061330004595,77.15983909997158,77.66061330004595,77.15983909997158,77.66061330004595,77.15983909997158,77.66061330004595,77.15983909997158,None,,,,,,,,,,,,,,,,,,,,,,,,,,,,,,,,,,,,,,,,,,11025,001,2024_Jan_08_0944,nback,2021.2.3,60.01983056327316,
1-back,instructions\back-1.png,conditions\1back-p.xlsx,instructions\1-BACK.png,"(25, 15)",practice,1,3,stim\gray.png,stim\gray.png,stim\yellow.png,stim\gray.png,down,0,0,0,0,0,1,1,1,0,7,7,7,,,,,,,,,,,,,,,,,,,,,,,,,,,78.64657620002981,79.64715360000264,78.64657620002981,79.64715360000264,78.64657620002981,79.64715360000264,78.64657620002981,79.64715360000264,down,1,0.24080030003096908,78.64657620002981,None,78.64657620002981,None,78.64657620002981,79.1459620000096,78.64657620002981,79.1459620000096,78.64657620002981,79.1459620000096,78.64657620002981,79.1459620000096,78.64657620002981,None,,,,,,,,,,,,,,,,,,,,,,,,,,,,,,,,,,,,,,,,,,11025,001,2024_Jan_08_0944,nback,2021.2.3,60.01983056327316,
1-back,instructions\back-1.png,conditions\1back-p.xlsx,instructions\1-BACK.png,"(25, 15)",practice,1,3,stim\gray.png,stim\gray.png,stim\yellow.png,stim\gray.png,right,0,0,0,0,0,1,1,1,0,8,8,8,,,,,,,,,,,,,,,,,,,,,,,,,,,80.14749540004414,81.14939639996737,80.14749540004414,81.14939639996737,80.14749540004414,81.14939639996737,80.14749540004414,81.14939639996737,right,1,0.2598606999963522,80.14749540004414,None,80.14749540004414,None,80.14749540004414,80.64833370002452,80.14749540004414,80.64833370002452,80.14749540004414,80.64833370002452,80.14749540004414,80.64833370002452,80.14749540004414,None,,,,,,,,,,,,,,,,,,,,,,,,,,,,,,,,,,,,,,,,,,11025,001,2024_Jan_08_0944,nback,2021.2.3,60.01983056327316,
1-back,instructions\back-1.png,conditions\1back-p.xlsx,instructions\1-BACK.png,"(25, 15)",practice,1,4,stim\gray.png,stim\gray.png,stim\gray.png,stim\yellow.png,right,0,0,0,0,0,1,1,1,0,9,9,9,,,,,,,,,,,,,,,,,,,,,,,,,,,81.65009230002761,82.65128760004882,81.65009230002761,82.65128760004882,81.65009230002761,82.65128760004882,81.65009230002761,82.65128760004882,right,1,0.16545750002842396,81.65009230002761,None,81.65009230002761,None,81.65009230002761,82.15121919999365,81.65009230002761,82.15121919999365,81.65009230002761,82.15121919999365,81.65009230002761,82.15121919999365,81.65009230002761,None,,,,,,,,,,,,,,,,,,,,,,,,,,,,,,,,,,,,,,,,,,11025,001,2024_Jan_08_0944,nback,2021.2.3,60.01983056327316,
1-back,instructions\back-1.png,conditions\1back-p.xlsx,instructions\1-BACK.png,"(25, 15)",practice,1,1,stim\yellow.png,stim\gray.png,stim\gray.png,stim\gray.png,down,0,0,0,0,0,1,1,1,0,10,10,10,,,,,,,,,,,,,,,,,,,,,,,,,,,83.15267620002851,84.1535026000347,83.15267620002851,84.1535026000347,83.15267620002851,84.1535026000347,83.15267620002851,84.1535026000347,down,1,0.2227775000501424,83.15267620002851,None,83.15267620002851,None,83.15267620002851,83.65328910003882,83.15267620002851,83.65328910003882,83.15267620002851,83.65328910003882,83.15267620002851,83.65328910003882,83.15267620002851,None,,,,,,,,,,,,,,,,,,,,,,,,,,,,,,,,,,,,,,,,,,11025,001,2024_Jan_08_0944,nback,2021.2.3,60.01983056327316,
1-back,instructions\back-1.png,conditions\1back-p.xlsx,instructions\1-BACK.png,"(25, 15)",practice,1,2,stim\gray.png,stim\yellow.png,stim\gray.png,stim\gray.png,up,0,0,0,0,0,1,1,1,0,11,11,11,,,,,,,,,,,,,,,,,,,,,,,,,,,84.65420079999603,85.65609020006377,84.65420079999603,85.65609020006377,84.65420079999603,85.65609020006377,84.65420079999603,85.65609020006377,left,0,1.3532621000194922,84.65420079999603,None,84.65420079999603,None,84.65420079999603,85.15616200002842,84.65420079999603,85.15616200002842,84.65420079999603,85.15616200002842,84.65420079999603,85.15616200002842,84.65420079999603,None,,,,,,,,,,,,,,,,,,,,,,,,,,,,,,,,,,,,,,,,,,11025,001,2024_Jan_08_0944,nback,2021.2.3,60.01983056327316,
1-back,instructions\back-1.png,conditions\1back-p.xlsx,instructions\1-BACK.png,"(25, 15)",practice,1,4,stim\gray.png,stim\gray.png,stim\gray.png,stim\yellow.png,left,0,0,0,0,0,1,1,1,0,12,12,12,,,,,,,,,,,,,,,,,,,,,,,,,,,86.15650170005392,87.15798020001967,86.15650170005392,87.15798020001967,86.15650170005392,87.15798020001967,86.15650170005392,87.15798020001967,None,0,,86.15650170005392,None,86.15650170005392,None,86.15650170005392,86.65712069999427,86.15650170005392,86.65712069999427,86.15650170005392,86.65712069999427,86.15650170005392,86.65712069999427,86.15650170005392,None,,,,,,,,,,,,,,,,,,,,,,,,,,,,,,,,,,,,,,,,,,11025,001,2024_Jan_08_0944,nback,2021.2.3,60.01983056327316,
1-back,instructions\back-1.png,conditions\1back-p.xlsx,instructions\1-BACK.png,"(25, 15)",practice,1,3,stim\gray.png,stim\gray.png,stim\yellow.png,stim\gray.png,down,0,0,0,0,0,1,1,1,0,13,13,13,,,,,,,,,,,,,,,,,,,,,,,,,,,87.65856220002752,88.66081949998625,87.65856220002752,88.66081949998625,87.65856220002752,88.66081949998625,87.65856220002752,88.66081949998625,down,1,0.17317199998069555,87.65856220002752,None,87.65856220002752,None,87.65856220002752,88.15965190005954,87.65856220002752,88.15965190005954,87.65856220002752,88.15965190005954,87.65856220002752,88.15965190005954,87.65856220002752,None,,,,,,,,,,,,,,,,,,,,,,,,,,,,,,,,,,,,,,,,,,11025,001,2024_Jan_08_0944,nback,2021.2.3,60.01983056327316,
1-back,instructions\back-1.png,conditions\1back-p.xlsx,instructions\1-BACK.png,"(25, 15)",practice,1,1,stim\yellow.png,stim\gray.png,stim\gray.png,stim\gray.png,right,0,0,0,0,0,1,1,1,0,14,14,14,,,,,,,,,,,,,,,,,,,,,,,,,,,89.14480690006167,90.14580349996686,89.14480690006167,90.14580349996686,89.14480690006167,90.14580349996686,89.14480690006167,90.14580349996686,right,1,0.23848509998060763,89.14480690006167,None,89.14480690006167,None,89.14480690006167,89.64507289999165,89.14480690006167,89.64507289999165,89.14480690006167,89.64507289999165,89.14480690006167,89.64507289999165,89.14480690006167,None,,,,,,,,,,,,,,,,,,,,,,,,,,,,,,,,,,,,,,,,,,11025,001,2024_Jan_08_0944,nback,2021.2.3,60.01983056327316,
1-back,instructions\back-1.png,conditions\1back-p.xlsx,instructions\1-BACK.png,"(25, 15)",practice,1,2,stim\gray.png,stim\yellow.png,stim\gray.png,stim\gray.png,up,0,0,0,0,0,1,1,1,0,15,15,15,,,,,,,,,,,,,,,,,,,,,,,,,,,90.64642080001067,91.64780120004434,90.64642080001067,91.64780120004434,90.64642080001067,91.64780120004434,90.64642080001067,91.64780120004434,up,1,0.20910850004293025,90.64642080001067,None,90.64642080001067,None,90.64642080001067,91.14782079996075,90.64642080001067,91.14782079996075,90.64642080001067,91.14782079996075,90.64642080001067,91.14782079996075,90.64642080001067,None,,,,,,,,,,,,,,,,,,,,,,,,,,,,,,,,,,,,,,,,,,11025,001,2024_Jan_08_0944,nback,2021.2.3,60.01983056327316,
1-back,instructions\back-1.png,conditions\1back-p.xlsx,instructions\1-BACK.png,"(25, 15)",practice,1,3,stim\gray.png,stim\gray.png,stim\yellow.png,stim\gray.png,left,0,0,0,0,0,1,1,1,0,16,16,16,,,,,,,,,,,,,,,,,,,,,,,,,,,92.14836140000261,93.15007960004732,92.14836140000261,93.15007960004732,92.14836140000261,93.15007960004732,92.14836140000261,93.15007960004732,left,1,0.23493260005488992,92.14836140000261,None,92.14836140000261,None,92.14836140000261,92.64925939997192,92.14836140000261,92.64925939997192,92.14836140000261,92.64925939997192,92.14836140000261,92.64925939997192,92.14836140000261,None,,,,,,,,,,,,,,,,,,,,,,,,,,,,,,,,,,,,,,,,,,11025,001,2024_Jan_08_0944,nback,2021.2.3,60.01983056327316,
1-back,instructions\back-1.png,conditions\1back-p.xlsx,instructions\1-BACK.png,"(25, 15)",practice,1,1,stim\yellow.png,stim\gray.png,stim\gray.png,stim\gray.png,right,0,0,0,0,0,1,1,1,0,17,17,17,,,,,,,,,,,,,,,,,,,,,,,,,,,93.65090610005427,94.65246450004634,93.65090610005427,94.65246450004634,93.65090610005427,94.65246450004634,93.65090610005427,94.65246450004634,right,1,0.2764555999310687,93.65090610005427,None,93.65090610005427,None,93.65090610005427,94.15167419996578,93.65090610005427,94.15167419996578,93.65090610005427,94.15167419996578,93.65090610005427,94.15167419996578,93.65090610005427,None,,,,,,,,,,,,,,,,,,,,,,,,,,,,,,,,,,,,,,,,,,11025,001,2024_Jan_08_0944,nback,2021.2.3,60.01983056327316,
1-back,instructions\back-1.png,conditions\1back-p.xlsx,instructions\1-BACK.png,"(25, 15)",practice,1,4,stim\gray.png,stim\gray.png,stim\gray.png,stim\yellow.png,up,0,0,0,0,0,1,1,1,0,18,18,18,,,,,,,,,,,,,,,,,,,,,,,,,,,95.15309270005673,96.15492240001913,95.15309270005673,96.15492240001913,95.15309270005673,96.15492240001913,95.15309270005673,96.15492240001913,up,1,0.22316369996406138,95.15309270005673,None,95.15309270005673,None,95.15309270005673,95.65485310007352,95.15309270005673,95.65485310007352,95.15309270005673,95.65485310007352,95.15309270005673,95.65485310007352,95.15309270005673,None,,,,,,,,,,,,,,,,,,,,,,,,,,,,,,,,,,,,,,,,,,11025,001,2024_Jan_08_0944,nback,2021.2.3,60.01983056327316,
1-back,instructions\back-1.png,conditions\1back-p.xlsx,instructions\1-BACK.png,"(25, 15)",practice,1,2,stim\gray.png,stim\yellow.png,stim\gray.png,stim\gray.png,down,0,0,0,0,0,1,1,1,0,19,19,19,,,,,,,,,,,,,,,,,,,,,,,,,,,96.65533320000395,97.65782690001652,96.65533320000395,97.65782690001652,96.65533320000395,97.65782690001652,96.65533320000395,97.65782690001652,down,1,0.2561808000318706,96.65533320000395,None,96.65533320000395,None,96.65533320000395,97.15601420006715,96.65533320000395,97.15601420006715,96.65533320000395,97.15601420006715,96.65533320000395,97.15601420006715,96.65533320000395,None,,,,,,,,,,,,,,,,,,,,,,,,,,,,,,,,,,,,,,,,,,11025,001,2024_Jan_08_0944,nback,2021.2.3,60.01983056327316,
1-back,instructions\back-1.png,conditions\1back-p.xlsx,instructions\1-BACK.png,"(25, 15)",,,,,,,,,0,0,0,0,0,1,1,1,,,,,,,,,,,,,,,,,,,,,,,,,,,,,,,,,,,,,,,,,,,,,,,,,,,,,,,,,,,,,,,,,,,,,,,,,,,,,,,,,,,,,,,,,,,,,,,,,11025,001,2024_Jan_08_0944,nback,2021.2.3,60.01983056327316,
2-back,instructions\back-2.png,conditions\2back-p.xlsx,instructions\2-BACK.png,"(25, 15)",practice,2,1,stim\yellow.png,stim\gray.png,stim\gray.png,stim\gray.png,None,0,0,0,0,0,2,2,2,0,0,0,0,,,,,,,,,,,,,,,,,98.29128310002852,None,space,8.25225609994959,98.29128310002852,None,106.72039030003361,111.2281767000677,111.16025049996097,None,111.5951861999929,112.5966123000253,111.5951861999929,112.5966123000253,111.5951861999929,112.5966123000253,111.5951861999929,112.5966123000253,None,1,,111.5951861999929,None,111.5951861999929,None,111.5951861999929,112.09495110006537,111.5951861999929,112.09495110006537,111.5951861999929,112.09495110006537,111.5951861999929,112.09495110006537,111.5951861999929,None,,,,,,,,,,,,,,,,,,,,,,,,,,,,,,,,,,,,,,,,,,11025,001,2024_Jan_08_0944,nback,2021.2.3,60.01983056327316,
2-back,instructions\back-2.png,conditions\2back-p.xlsx,instructions\2-BACK.png,"(25, 15)",practice,2,2,stim\gray.png,stim\yellow.png,stim\gray.png,stim\gray.png,None,0,0,0,0,0,2,2,2,0,1,1,1,,,,,,,,,,,,,,,,,,,,,,,,,,,113.08052329998463,114.08192430005874,113.08052329998463,114.08192430005874,113.08052329998463,114.08192430005874,113.08052329998463,114.08192430005874,None,1,,113.08052329998463,None,113.08052329998463,None,113.08052329998463,113.58042480004951,113.08052329998463,113.58042480004951,113.08052329998463,113.58042480004951,113.08052329998463,113.58042480004951,113.08052329998463,None,,,,,,,,,,,,,,,,,,,,,,,,,,,,,,,,,,,,,,,,,,11025,001,2024_Jan_08_0944,nback,2021.2.3,60.01983056327316,
2-back,instructions\back-2.png,conditions\2back-p.xlsx,instructions\2-BACK.png,"(25, 15)",practice,2,3,stim\gray.png,stim\gray.png,stim\yellow.png,stim\gray.png,up,0,0,0,0,0,2,2,2,0,2,2,2,,,,,,,,,,,,,,,,,,,,,,,,,,,114.58177200006321,115.58402690000366,114.58177200006321,115.58402690000366,114.58177200006321,115.58402690000366,114.58177200006321,115.58402690000366,up,1,0.3218746999045834,114.58177200006321,None,114.58177200006321,None,114.58177200006321,115.082361400011,114.58177200006321,115.082361400011,114.58177200006321,115.082361400011,114.58177200006321,115.082361400011,114.58177200006321,None,,,,,,,,,,,,,,,,,,,,,,,,,,,,,,,,,,,,,,,,,,11025,001,2024_Jan_08_0944,nback,2021.2.3,60.01983056327316,
2-back,instructions\back-2.png,conditions\2back-p.xlsx,instructions\2-BACK.png,"(25, 15)",practice,2,4,stim\gray.png,stim\gray.png,stim\gray.png,stim\yellow.png,left,0,0,0,0,0,2,2,2,0,3,3,3,,,,,,,,,,,,,,,,,,,,,,,,,,,116.0840439000167,117.08626710006502,116.0840439000167,117.08626710006502,116.0840439000167,117.08626710006502,116.0840439000167,117.08626710006502,left,1,0.4915332000236958,116.0840439000167,None,116.0840439000167,None,116.0840439000167,116.58612730004825,116.0840439000167,116.58612730004825,116.0840439000167,116.58612730004825,116.0840439000167,116.58612730004825,116.0840439000167,None,,,,,,,,,,,,,,,,,,,,,,,,,,,,,,,,,,,,,,,,,,11025,001,2024_Jan_08_0944,nback,2021.2.3,60.01983056327316,
2-back,instructions\back-2.png,conditions\2back-p.xlsx,instructions\2-BACK.png,"(25, 15)",practice,2,2,stim\gray.png,stim\yellow.png,stim\gray.png,stim\gray.png,right,0,0,0,0,0,2,2,2,0,4,4,4,,,,,,,,,,,,,,,,,,,,,,,,,,,117.58631829998922,118.58929370006081,117.58631829998922,118.58929370006081,117.58631829998922,118.58929370006081,117.58631829998922,118.58929370006081,right,1,0.5092803000006825,117.58631829998922,None,117.58631829998922,None,117.58631829998922,118.08860360004473,117.58631829998922,118.08860360004473,117.58631829998922,118.08860360004473,117.58631829998922,118.08860360004473,117.58631829998922,None,,,,,,,,,,,,,,,,,,,,,,,,,,,,,,,,,,,,,,,,,,11025,001,2024_Jan_08_0944,nback,2021.2.3,60.01983056327316,
2-back,instructions\back-2.png,conditions\2back-p.xlsx,instructions\2-BACK.png,"(25, 15)",practice,2,1,stim\yellow.png,stim\gray.png,stim\gray.png,stim\gray.png,down,0,0,0,0,0,2,2,2,0,5,5,5,,,,,,,,,,,,,,,,,,,,,,,,,,,119.08922369999345,120.09027240006253,119.08922369999345,120.09027240006253,119.08922369999345,120.09027240006253,119.08922369999345,120.09027240006253,down,1,0.3261160000693053,119.08922369999345,None,119.08922369999345,None,119.08922369999345,119.59004210005514,119.08922369999345,119.59004210005514,119.08922369999345,119.59004210005514,119.08922369999345,119.59004210005514,119.08922369999345,None,,,,,,,,,,,,,,,,,,,,,,,,,,,,,,,,,,,,,,,,,,11025,001,2024_Jan_08_0944,nback,2021.2.3,60.01983056327316,
2-back,instructions\back-2.png,conditions\2back-p.xlsx,instructions\2-BACK.png,"(25, 15)",practice,2,4,stim\gray.png,stim\gray.png,stim\gray.png,stim\yellow.png,left,0,0,0,0,0,2,2,2,0,6,6,6,,,,,,,,,,,,,,,,,,,,,,,,,,,120.59151269996073,121.59301539999433,120.59151269996073,121.59301539999433,120.59151269996073,121.59301539999433,120.59151269996073,121.59301539999433,up,0,0.6883204999612644,120.59151269996073,None,120.59151269996073,None,120.59151269996073,121.09262620005757,120.59151269996073,121.09262620005757,120.59151269996073,121.09262620005757,120.59151269996073,121.09262620005757,120.59151269996073,None,,,,,,,,,,,,,,,,,,,,,,,,,,,,,,,,,,,,,,,,,,11025,001,2024_Jan_08_0944,nback,2021.2.3,60.01983056327316,
2-back,instructions\back-2.png,conditions\2back-p.xlsx,instructions\2-BACK.png,"(25, 15)",practice,2,3,stim\gray.png,stim\gray.png,stim\yellow.png,stim\gray.png,up,0,0,0,0,0,2,2,2,0,7,7,7,,,,,,,,,,,,,,,,,,,,,,,,,,,122.07621480000671,123.07839719997719,122.07621480000671,123.07839719997719,122.07621480000671,123.07839719997719,122.07621480000671,123.07839719997719,left,0,0.5635351000819355,122.07621480000671,None,122.07621480000671,None,122.07621480000671,122.57806319999509,122.07621480000671,122.57806319999509,122.07621480000671,122.57806319999509,122.07621480000671,122.57806319999509,122.07621480000671,None,,,,,,,,,,,,,,,,,,,,,,,,,,,,,,,,,,,,,,,,,,11025,001,2024_Jan_08_0944,nback,2021.2.3,60.01983056327316,
2-back,instructions\back-2.png,conditions\2back-p.xlsx,instructions\2-BACK.png,"(25, 15)",practice,2,3,stim\gray.png,stim\gray.png,stim\yellow.png,stim\gray.png,down,0,0,0,0,0,2,2,2,0,8,8,8,,,,,,,,,,,,,,,,,,,,,,,,,,,123.5785968999844,124.58008440001868,123.5785968999844,124.58008440001868,123.5785968999844,124.58008440001868,123.5785968999844,124.58008440001868,down,1,0.42880460002925247,123.5785968999844,None,123.5785968999844,None,123.5785968999844,124.07913009996992,123.5785968999844,124.07913009996992,123.5785968999844,124.07913009996992,123.5785968999844,124.07913009996992,123.5785968999844,None,,,,,,,,,,,,,,,,,,,,,,,,,,,,,,,,,,,,,,,,,,11025,001,2024_Jan_08_0944,nback,2021.2.3,60.01983056327316,
2-back,instructions\back-2.png,conditions\2back-p.xlsx,instructions\2-BACK.png,"(25, 15)",practice,2,4,stim\gray.png,stim\gray.png,stim\gray.png,stim\yellow.png,right,0,0,0,0,0,2,2,2,0,9,9,9,,,,,,,,,,,,,,,,,,,,,,,,,,,125.08118680003099,126.08298659999855,125.08118680003099,126.08298659999855,125.08118680003099,126.08298659999855,125.08118680003099,126.08298659999855,right,1,0.4621146999998018,125.08118680003099,None,125.08118680003099,None,125.08118680003099,125.5815292999614,125.08118680003099,125.5815292999614,125.08118680003099,125.5815292999614,125.08118680003099,125.5815292999614,125.08118680003099,None,,,,,,,,,,,,,,,,,,,,,,,,,,,,,,,,,,,,,,,,,,11025,001,2024_Jan_08_0944,nback,2021.2.3,60.01983056327316,
2-back,instructions\back-2.png,conditions\2back-p.xlsx,instructions\2-BACK.png,"(25, 15)",practice,2,1,stim\yellow.png,stim\gray.png,stim\gray.png,stim\gray.png,right,0,0,0,0,0,2,2,2,0,10,10,10,,,,,,,,,,,,,,,,,,,,,,,,,,,126.58358540001791,127.58615029999055,126.58358540001791,127.58615029999055,126.58358540001791,127.58615029999055,126.58358540001791,127.58615029999055,up,0,0.5918826999841258,126.58358540001791,None,126.58358540001791,None,126.58358540001791,127.08404410001822,126.58358540001791,127.08404410001822,126.58358540001791,127.08404410001822,126.58358540001791,127.08404410001822,126.58358540001791,None,,,,,,,,,,,,,,,,,,,,,,,,,,,,,,,,,,,,,,,,,,11025,001,2024_Jan_08_0944,nback,2021.2.3,60.01983056327316,
2-back,instructions\back-2.png,conditions\2back-p.xlsx,instructions\2-BACK.png,"(25, 15)",practice,2,2,stim\gray.png,stim\yellow.png,stim\gray.png,stim\gray.png,down,0,0,0,0,0,2,2,2,0,11,11,11,,,,,,,,,,,,,,,,,,,,,,,,,,,128.0860754000023,129.08722350001335,128.0860754000023,129.08722350001335,128.0860754000023,129.08722350001335,128.0860754000023,129.08722350001335,down,1,0.6502939999336377,128.0860754000023,None,128.0860754000023,None,128.0860754000023,128.58671609999146,128.0860754000023,128.58671609999146,128.0860754000023,128.58671609999146,128.0860754000023,128.58671609999146,128.0860754000023,None,,,,,,,,,,,,,,,,,,,,,,,,,,,,,,,,,,,,,,,,,,11025,001,2024_Jan_08_0944,nback,2021.2.3,60.01983056327316,
2-back,instructions\back-2.png,conditions\2back-p.xlsx,instructions\2-BACK.png,"(25, 15)",practice,2,4,stim\gray.png,stim\gray.png,stim\gray.png,stim\yellow.png,up,0,0,0,0,0,2,2,2,0,12,12,12,,,,,,,,,,,,,,,,,,,,,,,,,,,129.58749469998293,130.5896683000028,129.58749469998293,130.5896683000028,129.58749469998293,130.5896683000028,129.58749469998293,130.5896683000028,left,0,0.6521997998934239,129.58749469998293,None,129.58749469998293,None,129.58749469998293,130.0889911999693,129.58749469998293,130.0889911999693,129.58749469998293,130.0889911999693,129.58749469998293,130.0889911999693,129.58749469998293,None,,,,,,,,,,,,,,,,,,,,,,,,,,,,,,,,,,,,,,,,,,11025,001,2024_Jan_08_0944,nback,2021.2.3,60.01983056327316,
2-back,instructions\back-2.png,conditions\2back-p.xlsx,instructions\2-BACK.png,"(25, 15)",practice,2,3,stim\gray.png,stim\gray.png,stim\yellow.png,stim\gray.png,left,0,0,0,0,0,2,2,2,0,13,13,13,,,,,,,,,,,,,,,,,,,,,,,,,,,131.0897809000453,132.0912413999904,131.0897809000453,132.0912413999904,131.0897809000453,132.0912413999904,131.0897809000453,132.0912413999904,down,0,0.9179688999429345,131.0897809000453,None,131.0897809000453,None,131.0897809000453,131.59091030003037,131.0897809000453,131.59091030003037,131.0897809000453,131.59091030003037,131.0897809000453,131.59091030003037,131.0897809000453,None,,,,,,,,,,,,,,,,,,,,,,,,,,,,,,,,,,,,,,,,,,11025,001,2024_Jan_08_0944,nback,2021.2.3,60.01983056327316,
2-back,instructions\back-2.png,conditions\2back-p.xlsx,instructions\2-BACK.png,"(25, 15)",practice,2,1,stim\yellow.png,stim\gray.png,stim\gray.png,stim\gray.png,down,0,0,0,0,0,2,2,2,0,14,14,14,,,,,,,,,,,,,,,,,,,,,,,,,,,132.575260899961,133.57676219998393,132.575260899961,133.57676219998393,132.575260899961,133.57676219998393,132.575260899961,133.57676219998393,left,0,0.7442442999454215,132.575260899961,None,132.575260899961,None,132.575260899961,133.07676009996794,132.575260899961,133.07676009996794,132.575260899961,133.07676009996794,132.575260899961,133.07676009996794,132.575260899961,None,,,,,,,,,,,,,,,,,,,,,,,,,,,,,,,,,,,,,,,,,,11025,001,2024_Jan_08_0944,nback,2021.2.3,60.01983056327316,
2-back,instructions\back-2.png,conditions\2back-p.xlsx,instructions\2-BACK.png,"(25, 15)",practice,2,2,stim\gray.png,stim\yellow.png,stim\gray.png,stim\gray.png,right,0,0,0,0,0,2,2,2,0,15,15,15,,,,,,,,,,,,,,,,,,,,,,,,,,,134.0774120000424,135.08011650003027,134.0774120000424,135.08011650003027,134.0774120000424,135.08011650003027,134.0774120000424,135.08011650003027,right,1,1.035080499947071,134.0774120000424,None,134.0774120000424,None,134.0774120000424,134.57827499997802,134.0774120000424,134.57827499997802,134.0774120000424,134.57827499997802,134.0774120000424,134.57827499997802,134.0774120000424,None,,,,,,,,,,,,,,,,,,,,,,,,,,,,,,,,,,,,,,,,,,11025,001,2024_Jan_08_0944,nback,2021.2.3,60.01983056327316,
2-back,instructions\back-2.png,conditions\2back-p.xlsx,instructions\2-BACK.png,"(25, 15)",practice,2,3,stim\gray.png,stim\gray.png,stim\yellow.png,stim\gray.png,up,0,0,0,0,0,2,2,2,0,16,16,16,,,,,,,,,,,,,,,,,,,,,,,,,,,135.5796924000606,136.58126060001086,135.5796924000606,136.58126060001086,135.5796924000606,136.58126060001086,135.5796924000606,136.58126060001086,up,1,0.6681046999292448,135.5796924000606,None,135.5796924000606,None,135.5796924000606,136.08101930003613,135.5796924000606,136.08101930003613,135.5796924000606,136.08101930003613,135.5796924000606,136.08101930003613,135.5796924000606,None,,,,,,,,,,,,,,,,,,,,,,,,,,,,,,,,,,,,,,,,,,11025,001,2024_Jan_08_0944,nback,2021.2.3,60.01983056327316,
2-back,instructions\back-2.png,conditions\2back-p.xlsx,instructions\2-BACK.png,"(25, 15)",practice,2,1,stim\yellow.png,stim\gray.png,stim\gray.png,stim\gray.png,left,0,0,0,0,0,2,2,2,0,17,17,17,,,,,,,,,,,,,,,,,,,,,,,,,,,137.08204280002974,138.08377909997944,137.08204280002974,138.08377909997944,137.08204280002974,138.08377909997944,137.08204280002974,138.08377909997944,left,1,0.6613095999928191,137.08204280002974,None,137.08204280002974,None,137.08204280002974,137.58265770005528,137.08204280002974,137.58265770005528,137.08204280002974,137.58265770005528,137.08204280002974,137.58265770005528,137.08204280002974,None,,,,,,,,,,,,,,,,,,,,,,,,,,,,,,,,,,,,,,,,,,11025,001,2024_Jan_08_0944,nback,2021.2.3,60.01983056327316,
2-back,instructions\back-2.png,conditions\2back-p.xlsx,instructions\2-BACK.png,"(25, 15)",practice,2,4,stim\gray.png,stim\gray.png,stim\gray.png,stim\yellow.png,right,0,0,0,0,0,2,2,2,0,18,18,18,,,,,,,,,,,,,,,,,,,,,,,,,,,138.58403240004554,139.58622349996585,138.58403240004554,139.58622349996585,138.58403240004554,139.58622349996585,138.58403240004554,139.58622349996585,up,0,0.7755982000380754,138.58403240004554,None,138.58403240004554,None,138.58403240004554,139.0855321000563,138.58403240004554,139.0855321000563,138.58403240004554,139.0855321000563,138.58403240004554,139.0855321000563,138.58403240004554,None,,,,,,,,,,,,,,,,,,,,,,,,,,,,,,,,,,,,,,,,,,11025,001,2024_Jan_08_0944,nback,2021.2.3,60.01983056327316,
2-back,instructions\back-2.png,conditions\2back-p.xlsx,instructions\2-BACK.png,"(25, 15)",practice,2,2,stim\gray.png,stim\yellow.png,stim\gray.png,stim\gray.png,up,0,0,0,0,0,2,2,2,0,19,19,19,,,,,,,,,,,,,,,,,,,,,,,,,,,140.08685870002955,141.08782909996808,140.08685870002955,141.08782909996808,140.08685870002955,141.08782909996808,140.08685870002955,141.08782909996808,right,0,0.640741299954243,140.08685870002955,None,140.08685870002955,None,140.08685870002955,140.5869759999914,140.08685870002955,140.5869759999914,140.08685870002955,140.5869759999914,140.08685870002955,140.5869759999914,140.08685870002955,None,,,,,,,,,,,,,,,,,,,,,,,,,,,,,,,,,,,,,,,,,,11025,001,2024_Jan_08_0944,nback,2021.2.3,60.01983056327316,
2-back,instructions\back-2.png,conditions\2back-p.xlsx,instructions\2-BACK.png,"(25, 15)",,,,,,,,,0,0,0,0,0,2,2,2,,,,,,,,,,,,,,,,,,,,,,,,,,,,,,,,,,,,,,,,,,,,,,,,,,,,,,,,,,,,,,,,,,,,,,,,,,,,,,,,,,,,,,,,,,,,,,,,,11025,001,2024_Jan_08_0944,nback,2021.2.3,60.01983056327316,
,,,,,,,,,,,,,0,0,0,0,,,,,,,,,,,,,,,,,,,,,,,,,,,,,,,,,,,,,,,,,,,,,,,,,,,,,,,,,,,,141.58925690001342,None,s,11.426117099937983,141.58925690001342,None,,,,,,,,,,,,,,,,,,,,,,,,,,,,,,,,,,,,11025,001,2024_Jan_08_0944,nback,2021.2.3,60.01983056327316,
0-back,instructions\back-0.png,conditions\0back-p.xlsx,instructions\0-BACK.png,"(15, 8)",practice,0,1,stim\yellow.png,stim\gray.png,stim\gray.png,stim\gray.png,up,1,0,1,0,0,0,0,0,0,0,0,0,,,,,,,,,,,,,,,,,153.1386874000309,None,space,2.9488253000890836,153.1386874000309,None,156.260174700059,160.76758600003086,160.70214100007433,None,161.13567890005652,162.13635819999035,161.13567890005652,162.13635819999035,161.13567890005652,162.13635819999035,161.13567890005652,162.13635819999035,up,1,0.3519049999304116,161.13567890005652,None,161.13567890005652,None,161.13567890005652,161.635020500049,161.13567890005652,161.635020500049,161.13567890005652,161.635020500049,161.13567890005652,161.635020500049,161.13567890005652,None,,,,,,,,,,,,,,,,,,,,,,,,,,,,,,,,,,,,,,,,,,11025,001,2024_Jan_08_0944,nback,2021.2.3,60.01983056327316,
0-back,instructions\back-0.png,conditions\0back-p.xlsx,instructions\0-BACK.png,"(15, 8)",practice,0,2,stim\gray.png,stim\yellow.png,stim\gray.png,stim\gray.png,left,1,0,1,0,0,0,0,0,0,1,1,1,,,,,,,,,,,,,,,,,,,,,,,,,,,162.61970070004463,163.621934600058,162.61970070004463,163.621934600058,162.61970070004463,163.621934600058,162.61970070004463,163.621934600058,left,1,0.42794840002898127,162.61970070004463,None,162.61970070004463,None,162.61970070004463,163.12136740004644,162.61970070004463,163.12136740004644,162.61970070004463,163.12136740004644,162.61970070004463,163.12136740004644,162.61970070004463,None,,,,,,,,,,,,,,,,,,,,,,,,,,,,,,,,,,,,,,,,,,11025,001,2024_Jan_08_0944,nback,2021.2.3,60.01983056327316,
0-back,instructions\back-0.png,conditions\0back-p.xlsx,instructions\0-BACK.png,"(15, 8)",practice,0,3,stim\gray.png,stim\gray.png,stim\yellow.png,stim\gray.png,right,1,0,1,0,0,0,0,0,0,2,2,2,,,,,,,,,,,,,,,,,,,,,,,,,,,164.1225082000019,165.12348060007207,164.1225082000019,165.12348060007207,164.1225082000019,165.12348060007207,164.1225082000019,165.12348060007207,right,1,0.30890800000634044,164.1225082000019,None,164.1225082000019,None,164.1225082000019,164.6227213999955,164.1225082000019,164.6227213999955,164.1225082000019,164.6227213999955,164.1225082000019,164.6227213999955,164.1225082000019,None,,,,,,,,,,,,,,,,,,,,,,,,,,,,,,,,,,,,,,,,,,11025,001,2024_Jan_08_0944,nback,2021.2.3,60.01983056327316,
0-back,instructions\back-0.png,conditions\0back-p.xlsx,instructions\0-BACK.png,"(15, 8)",practice,0,4,stim\gray.png,stim\gray.png,stim\gray.png,stim\yellow.png,down,1,0,1,0,0,0,0,0,0,3,3,3,,,,,,,,,,,,,,,,,,,,,,,,,,,165.62420550000388,166.62707609997597,165.62420550000388,166.62707609997597,165.62420550000388,166.62707609997597,165.62420550000388,166.62707609997597,down,1,0.384648900013417,165.62420550000388,None,165.62420550000388,None,165.62420550000388,166.12550730002113,165.62420550000388,166.12550730002113,165.62420550000388,166.12550730002113,165.62420550000388,166.12550730002113,165.62420550000388,None,,,,,,,,,,,,,,,,,,,,,,,,,,,,,,,,,,,,,,,,,,11025,001,2024_Jan_08_0944,nback,2021.2.3,60.01983056327316,
0-back,instructions\back-0.png,conditions\0back-p.xlsx,instructions\0-BACK.png,"(15, 8)",practice,0,2,stim\gray.png,stim\yellow.png,stim\gray.png,stim\gray.png,left,1,0,1,0,0,0,0,0,0,4,4,4,,,,,,,,,,,,,,,,,,,,,,,,,,,167.12642009998672,168.12804900004994,167.12642009998672,168.12804900004994,167.12642009998672,168.12804900004994,167.12642009998672,168.12804900004994,left,1,0.3610927000408992,167.12642009998672,None,167.12642009998672,None,167.12642009998672,167.62775950005744,167.12642009998672,167.62775950005744,167.12642009998672,167.62775950005744,167.12642009998672,167.62775950005744,167.12642009998672,None,,,,,,,,,,,,,,,,,,,,,,,,,,,,,,,,,,,,,,,,,,11025,001,2024_Jan_08_0944,nback,2021.2.3,60.01983056327316,
0-back,instructions\back-0.png,conditions\0back-p.xlsx,instructions\0-BACK.png,"(15, 8)",practice,0,1,stim\yellow.png,stim\gray.png,stim\gray.png,stim\gray.png,up,1,0,1,0,0,0,0,0,0,5,5,5,,,,,,,,,,,,,,,,,,,,,,,,,,,168.628407399985,169.6307591999648,168.628407399985,169.6307591999648,168.628407399985,169.6307591999648,168.628407399985,169.6307591999648,up,1,0.4030085999984294,168.628407399985,None,168.628407399985,None,168.628407399985,169.1294804000063,168.628407399985,169.1294804000063,168.628407399985,169.1294804000063,168.628407399985,169.1294804000063,168.628407399985,None,,,,,,,,,,,,,,,,,,,,,,,,,,,,,,,,,,,,,,,,,,11025,001,2024_Jan_08_0944,nback,2021.2.3,60.01983056327316,
0-back,instructions\back-0.png,conditions\0back-p.xlsx,instructions\0-BACK.png,"(15, 8)",practice,0,4,stim\gray.png,stim\gray.png,stim\gray.png,stim\yellow.png,down,1,0,1,0,0,0,0,0,0,6,6,6,,,,,,,,,,,,,,,,,,,,,,,,,,,170.11408960004337,171.11563170002773,170.11408960004337,171.11563170002773,170.11408960004337,171.11563170002773,170.11408960004337,171.11563170002773,down,1,0.36561650002840906,170.11408960004337,None,170.11408960004337,None,170.11408960004337,170.6153062999947,170.11408960004337,170.6153062999947,170.11408960004337,170.6153062999947,170.11408960004337,170.6153062999947,170.11408960004337,None,,,,,,,,,,,,,,,,,,,,,,,,,,,,,,,,,,,,,,,,,,11025,001,2024_Jan_08_0944,nback,2021.2.3,60.01983056327316,
0-back,instructions\back-0.png,conditions\0back-p.xlsx,instructions\0-BACK.png,"(15, 8)",practice,0,3,stim\gray.png,stim\gray.png,stim\yellow.png,stim\gray.png,right,1,0,1,0,0,0,0,0,0,7,7,7,,,,,,,,,,,,,,,,,,,,,,,,,,,171.61646389996167,172.61857320007402,171.61646389996167,172.61857320007402,171.61646389996167,172.61857320007402,171.61646389996167,172.61857320007402,right,1,0.318938999902457,171.61646389996167,None,171.61646389996167,None,171.61646389996167,172.11712169996463,171.61646389996167,172.11712169996463,171.61646389996167,172.11712169996463,171.61646389996167,172.11712169996463,171.61646389996167,None,,,,,,,,,,,,,,,,,,,,,,,,,,,,,,,,,,,,,,,,,,11025,001,2024_Jan_08_0944,nback,2021.2.3,60.01983056327316,
0-back,instructions\back-0.png,conditions\0back-p.xlsx,instructions\0-BACK.png,"(15, 8)",practice,0,3,stim\gray.png,stim\gray.png,stim\yellow.png,stim\gray.png,right,1,0,1,0,0,0,0,0,0,8,8,8,,,,,,,,,,,,,,,,,,,,,,,,,,,173.1185365000274,174.12001399998553,173.1185365000274,174.12001399998553,173.1185365000274,174.12001399998553,173.1185365000274,174.12001399998553,right,1,0.3288531999569386,173.1185365000274,None,173.1185365000274,None,173.1185365000274,173.62035270000342,173.1185365000274,173.62035270000342,173.1185365000274,173.62035270000342,173.1185365000274,173.62035270000342,173.1185365000274,None,,,,,,,,,,,,,,,,,,,,,,,,,,,,,,,,,,,,,,,,,,11025,001,2024_Jan_08_0944,nback,2021.2.3,60.01983056327316,
0-back,instructions\back-0.png,conditions\0back-p.xlsx,instructions\0-BACK.png,"(15, 8)",practice,0,4,stim\gray.png,stim\gray.png,stim\gray.png,stim\yellow.png,down,1,0,1,0,0,0,0,0,0,9,9,9,,,,,,,,,,,,,,,,,,,,,,,,,,,174.62084400001913,175.62221329996828,174.62084400001913,175.62221329996828,174.62084400001913,175.62221329996828,174.62084400001913,175.62221329996828,down,1,0.3549903000239283,174.62084400001913,None,174.62084400001913,None,174.62084400001913,175.12164829997346,174.62084400001913,175.12164829997346,174.62084400001913,175.12164829997346,174.62084400001913,175.12164829997346,174.62084400001913,None,,,,,,,,,,,,,,,,,,,,,,,,,,,,,,,,,,,,,,,,,,11025,001,2024_Jan_08_0944,nback,2021.2.3,60.01983056327316,
0-back,instructions\back-0.png,conditions\0back-p.xlsx,instructions\0-BACK.png,"(15, 8)",practice,0,1,stim\yellow.png,stim\gray.png,stim\gray.png,stim\gray.png,up,1,0,1,0,0,0,0,0,0,10,10,10,,,,,,,,,,,,,,,,,,,,,,,,,,,176.1232122000074,177.12577449996024,176.1232122000074,177.12577449996024,176.1232122000074,177.12577449996024,176.1232122000074,177.12577449996024,up,1,0.37231280002743006,176.1232122000074,None,176.1232122000074,None,176.1232122000074,176.62442110001575,176.1232122000074,176.62442110001575,176.1232122000074,176.62442110001575,176.1232122000074,176.62442110001575,176.1232122000074,None,,,,,,,,,,,,,,,,,,,,,,,,,,,,,,,,,,,,,,,,,,11025,001,2024_Jan_08_0944,nback,2021.2.3,60.01983056327316,
0-back,instructions\back-0.png,conditions\0back-p.xlsx,instructions\0-BACK.png,"(15, 8)",practice,0,2,stim\gray.png,stim\yellow.png,stim\gray.png,stim\gray.png,left,1,0,1,0,0,0,0,0,0,11,11,11,,,,,,,,,,,,,,,,,,,,,,,,,,,177.62520710006356,178.62755820003804,177.62520710006356,178.62755820003804,177.62520710006356,178.62755820003804,177.62520710006356,178.62755820003804,left,1,0.3745155999204144,177.62520710006356,None,177.62520710006356,None,177.62520710006356,178.12608710001223,177.62520710006356,178.12608710001223,177.62520710006356,178.12608710001223,177.62520710006356,178.12608710001223,177.62520710006356,None,,,,,,,,,,,,,,,,,,,,,,,,,,,,,,,,,,,,,,,,,,11025,001,2024_Jan_08_0944,nback,2021.2.3,60.01983056327316,
0-back,instructions\back-0.png,conditions\0back-p.xlsx,instructions\0-BACK.png,"(15, 8)",practice,0,4,stim\gray.png,stim\gray.png,stim\gray.png,stim\yellow.png,down,1,0,1,0,0,0,0,0,0,12,12,12,,,,,,,,,,,,,,,,,,,,,,,,,,,179.12747840001248,180.1288426000392,179.12747840001248,180.1288426000392,179.12747840001248,180.1288426000392,179.12747840001248,180.1288426000392,down,1,0.375939300050959,179.12747840001248,None,179.12747840001248,None,179.12747840001248,179.629038700019,179.12747840001248,179.629038700019,179.12747840001248,179.629038700019,179.12747840001248,179.629038700019,179.12747840001248,None,,,,,,,,,,,,,,,,,,,,,,,,,,,,,,,,,,,,,,,,,,11025,001,2024_Jan_08_0944,nback,2021.2.3,60.01983056327316,
0-back,instructions\back-0.png,conditions\0back-p.xlsx,instructions\0-BACK.png,"(15, 8)",practice,0,3,stim\gray.png,stim\gray.png,stim\yellow.png,stim\gray.png,right,1,0,1,0,0,0,0,0,0,13,13,13,,,,,,,,,,,,,,,,,,,,,,,,,,,180.6297148000449,181.63195539999288,180.6297148000449,181.63195539999288,180.6297148000449,181.63195539999288,180.6297148000449,181.63195539999288,right,1,0.4662153000244871,180.6297148000449,None,180.6297148000449,None,180.6297148000449,181.13136680005118,180.6297148000449,181.13136680005118,180.6297148000449,181.13136680005118,180.6297148000449,181.13136680005118,180.6297148000449,None,,,,,,,,,,,,,,,,,,,,,,,,,,,,,,,,,,,,,,,,,,11025,001,2024_Jan_08_0944,nback,2021.2.3,60.01983056327316,
0-back,instructions\back-0.png,conditions\0back-p.xlsx,instructions\0-BACK.png,"(15, 8)",practice,0,1,stim\yellow.png,stim\gray.png,stim\gray.png,stim\gray.png,up,1,0,1,0,0,0,0,0,0,14,14,14,,,,,,,,,,,,,,,,,,,,,,,,,,,182.11543660005555,183.11667330004275,182.11543660005555,183.11667330004275,182.11543660005555,183.11667330004275,182.11543660005555,183.11667330004275,up,1,0.4761988999089226,182.11543660005555,None,182.11543660005555,None,182.11543660005555,182.61605129996315,182.11543660005555,182.61605129996315,182.11543660005555,182.61605129996315,182.11543660005555,182.61605129996315,182.11543660005555,None,,,,,,,,,,,,,,,,,,,,,,,,,,,,,,,,,,,,,,,,,,11025,001,2024_Jan_08_0944,nback,2021.2.3,60.01983056327316,
0-back,instructions\back-0.png,conditions\0back-p.xlsx,instructions\0-BACK.png,"(15, 8)",practice,0,2,stim\gray.png,stim\yellow.png,stim\gray.png,stim\gray.png,left,1,0,1,0,0,0,0,0,0,15,15,15,,,,,,,,,,,,,,,,,,,,,,,,,,,183.617493800004,184.61989109998103,183.617493800004,184.61989109998103,183.617493800004,184.61989109998103,183.617493800004,184.61989109998103,left,1,0.41442300006747246,183.617493800004,None,183.617493800004,None,183.617493800004,184.1185352000175,183.617493800004,184.1185352000175,183.617493800004,184.1185352000175,183.617493800004,184.1185352000175,183.617493800004,None,,,,,,,,,,,,,,,,,,,,,,,,,,,,,,,,,,,,,,,,,,11025,001,2024_Jan_08_0944,nback,2021.2.3,60.01983056327316,
0-back,instructions\back-0.png,conditions\0back-p.xlsx,instructions\0-BACK.png,"(15, 8)",practice,0,3,stim\gray.png,stim\gray.png,stim\yellow.png,stim\gray.png,right,1,0,1,0,0,0,0,0,0,16,16,16,,,,,,,,,,,,,,,,,,,,,,,,,,,185.11967449996155,186.12207749998197,185.11967449996155,186.12207749998197,185.11967449996155,186.12207749998197,185.11967449996155,186.12207749998197,right,1,0.4561371000017971,185.11967449996155,None,185.11967449996155,None,185.11967449996155,185.62049970007502,185.11967449996155,185.62049970007502,185.11967449996155,185.62049970007502,185.11967449996155,185.62049970007502,185.11967449996155,None,,,,,,,,,,,,,,,,,,,,,,,,,,,,,,,,,,,,,,,,,,11025,001,2024_Jan_08_0944,nback,2021.2.3,60.01983056327316,
0-back,instructions\back-0.png,conditions\0back-p.xlsx,instructions\0-BACK.png,"(15, 8)",practice,0,1,stim\yellow.png,stim\gray.png,stim\gray.png,stim\gray.png,up,1,0,1,0,0,0,0,0,0,17,17,17,,,,,,,,,,,,,,,,,,,,,,,,,,,186.62216649996117,187.6241544999648,186.62216649996117,187.6241544999648,186.62216649996117,187.6241544999648,186.62216649996117,187.6241544999648,up,1,0.39325369999278337,186.62216649996117,None,186.62216649996117,None,186.62216649996117,187.1236316000577,186.62216649996117,187.1236316000577,186.62216649996117,187.1236316000577,186.62216649996117,187.1236316000577,186.62216649996117,None,,,,,,,,,,,,,,,,,,,,,,,,,,,,,,,,,,,,,,,,,,11025,001,2024_Jan_08_0944,nback,2021.2.3,60.01983056327316,
0-back,instructions\back-0.png,conditions\0back-p.xlsx,instructions\0-BACK.png,"(15, 8)",practice,0,4,stim\gray.png,stim\gray.png,stim\gray.png,stim\yellow.png,down,1,0,1,0,0,0,0,0,0,18,18,18,,,,,,,,,,,,,,,,,,,,,,,,,,,188.12416570005007,189.12631940003484,188.12416570005007,189.12631940003484,188.12416570005007,189.12631940003484,188.12416570005007,189.12631940003484,down,1,0.4841535999439657,188.12416570005007,None,188.12416570005007,None,188.12416570005007,188.6260158000514,188.12416570005007,188.6260158000514,188.12416570005007,188.6260158000514,188.12416570005007,188.6260158000514,188.12416570005007,None,,,,,,,,,,,,,,,,,,,,,,,,,,,,,,,,,,,,,,,,,,11025,001,2024_Jan_08_0944,nback,2021.2.3,60.01983056327316,
0-back,instructions\back-0.png,conditions\0back-p.xlsx,instructions\0-BACK.png,"(15, 8)",practice,0,2,stim\gray.png,stim\yellow.png,stim\gray.png,stim\gray.png,left,1,0,1,0,0,0,0,0,0,19,19,19,,,,,,,,,,,,,,,,,,,,,,,,,,,189.62630130001344,190.628780500032,189.62630130001344,190.628780500032,189.62630130001344,190.628780500032,189.62630130001344,190.628780500032,left,1,0.40542239998467267,189.62630130001344,None,189.62630130001344,None,189.62630130001344,190.12801430001855,189.62630130001344,190.12801430001855,189.62630130001344,190.12801430001855,189.62630130001344,190.12801430001855,189.62630130001344,None,,,,,,,,,,,,,,,,,,,,,,,,,,,,,,,,,,,,,,,,,,11025,001,2024_Jan_08_0944,nback,2021.2.3,60.01983056327316,
0-back,instructions\back-0.png,conditions\0back-p.xlsx,instructions\0-BACK.png,"(15, 8)",,,,,,,,,1,0,1,0,0,0,0,0,,,,,,,,,,,,,,,,,,,,,,,,,,,,,,,,,,,,,,,,,,,,,,,,,,,,,,,,,,,,,,,,,,,,,,,,,,,,,,,,,,,,,,,,,,,,,,,,,11025,001,2024_Jan_08_0944,nback,2021.2.3,60.01983056327316,
1-back,instructions\back-1.png,conditions\1back-p.xlsx,instructions\1-BACK.png,"(25, 15)",practice,1,1,stim\yellow.png,stim\gray.png,stim\gray.png,stim\gray.png,None,1,0,1,0,0,1,1,1,0,0,0,0,,,,,,,,,,,,,,,,,191.27874380000867,None,space,4.345110800000839,191.27874380000867,None,195.75337839999702,200.25935589999426,200.2259790999815,None,200.676744800061,201.6775617999956,200.676744800061,201.6775617999956,200.676744800061,201.6775617999956,200.676744800061,201.6775617999956,None,1,,200.676744800061,None,200.676744800061,None,200.676744800061,201.17739680001978,200.676744800061,201.17739680001978,200.676744800061,201.17739680001978,200.676744800061,201.17739680001978,200.676744800061,None,,,,,,,,,,,,,,,,,,,,,,,,,,,,,,,,,,,,,,,,,,11025,001,2024_Jan_08_0944,nback,2021.2.3,60.01983056327316,
1-back,instructions\back-1.png,conditions\1back-p.xlsx,instructions\1-BACK.png,"(25, 15)",practice,1,2,stim\gray.png,stim\yellow.png,stim\gray.png,stim\gray.png,up,1,0,1,0,0,1,1,1,0,1,1,1,,,,,,,,,,,,,,,,,,,,,,,,,,,202.16173250006977,203.1642170000123,202.16173250006977,203.1642170000123,202.16173250006977,203.1642170000123,202.16173250006977,203.1642170000123,up,1,0.1021627999143675,202.16173250006977,None,202.16173250006977,None,202.16173250006977,202.66246060002595,202.16173250006977,202.66246060002595,202.16173250006977,202.66246060002595,202.16173250006977,202.66246060002595,202.16173250006977,None,,,,,,,,,,,,,,,,,,,,,,,,,,,,,,,,,,,,,,,,,,11025,001,2024_Jan_08_0944,nback,2021.2.3,60.01983056327316,
1-back,instructions\back-1.png,conditions\1back-p.xlsx,instructions\1-BACK.png,"(25, 15)",practice,1,3,stim\gray.png,stim\gray.png,stim\yellow.png,stim\gray.png,left,1,0,1,0,0,1,1,1,0,2,2,2,,,,,,,,,,,,,,,,,,,,,,,,,,,203.6646136000054,204.66581430006772,203.6646136000054,204.66581430006772,203.6646136000054,204.66581430006772,203.6646136000054,204.66581430006772,left,1,0.20686470007058233,203.6646136000054,None,203.6646136000054,None,203.6646136000054,204.1650012000464,203.6646136000054,204.1650012000464,203.6646136000054,204.1650012000464,203.6646136000054,204.1650012000464,203.6646136000054,None,,,,,,,,,,,,,,,,,,,,,,,,,,,,,,,,,,,,,,,,,,11025,001,2024_Jan_08_0944,nback,2021.2.3,60.01983056327316,
1-back,instructions\back-1.png,conditions\1back-p.xlsx,instructions\1-BACK.png,"(25, 15)",practice,1,4,stim\gray.png,stim\gray.png,stim\gray.png,stim\yellow.png,right,1,0,1,0,0,1,1,1,0,3,3,3,,,,,,,,,,,,,,,,,,,,,,,,,,,205.16636350005865,206.1682673000032,205.16636350005865,206.1682673000032,205.16636350005865,206.1682673000032,205.16636350005865,206.1682673000032,right,1,0.28912709990981966,205.16636350005865,None,205.16636350005865,None,205.16636350005865,205.667380400002,205.16636350005865,205.667380400002,205.16636350005865,205.667380400002,205.16636350005865,205.667380400002,205.16636350005865,None,,,,,,,,,,,,,,,,,,,,,,,,,,,,,,,,,,,,,,,,,,11025,001,2024_Jan_08_0944,nback,2021.2.3,60.01983056327316,
1-back,instructions\back-1.png,conditions\1back-p.xlsx,instructions\1-BACK.png,"(25, 15)",practice,1,2,stim\gray.png,stim\yellow.png,stim\gray.png,stim\gray.png,down,1,0,1,0,0,1,1,1,0,4,4,4,,,,,,,,,,,,,,,,,,,,,,,,,,,206.6683897000039,207.67220789997373,206.6683897000039,207.67220789997373,206.6683897000039,207.67220789997373,206.6683897000039,207.67220789997373,down,1,0.20303520001471043,206.6683897000039,None,206.6683897000039,None,206.6683897000039,207.16913719999138,206.6683897000039,207.16913719999138,206.6683897000039,207.16913719999138,206.6683897000039,207.16913719999138,206.6683897000039,None,,,,,,,,,,,,,,,,,,,,,,,,,,,,,,,,,,,,,,,,,,11025,001,2024_Jan_08_0944,nback,2021.2.3,60.01983056327316,
1-back,instructions\back-1.png,conditions\1back-p.xlsx,instructions\1-BACK.png,"(25, 15)",practice,1,1,stim\yellow.png,stim\gray.png,stim\gray.png,stim\gray.png,left,1,0,1,0,0,1,1,1,0,5,5,5,,,,,,,,,,,,,,,,,,,,,,,,,,,208.17051870003343,209.1730808999855,208.17051870003343,209.1730808999855,208.17051870003343,209.1730808999855,208.17051870003343,209.1730808999855,left,1,0.20509379997383803,208.17051870003343,None,208.17051870003343,None,208.17051870003343,208.67156240006443,208.17051870003343,208.67156240006443,208.17051870003343,208.67156240006443,208.17051870003343,208.67156240006443,208.17051870003343,None,,,,,,,,,,,,,,,,,,,,,,,,,,,,,,,,,,,,,,,,,,11025,001,2024_Jan_08_0944,nback,2021.2.3,60.01983056327316,
1-back,instructions\back-1.png,conditions\1back-p.xlsx,instructions\1-BACK.png,"(25, 15)",practice,1,4,stim\gray.png,stim\gray.png,stim\gray.png,stim\yellow.png,up,1,0,1,0,0,1,1,1,0,6,6,6,,,,,,,,,,,,,,,,,,,,,,,,,,,209.65615309996065,210.65762439998798,209.65615309996065,210.65762439998798,209.65615309996065,210.65762439998798,209.65615309996065,210.65762439998798,up,1,0.3033646000549197,209.65615309996065,None,209.65615309996065,None,209.65615309996065,210.1580641999608,209.65615309996065,210.1580641999608,209.65615309996065,210.1580641999608,209.65615309996065,210.1580641999608,209.65615309996065,None,,,,,,,,,,,,,,,,,,,,,,,,,,,,,,,,,,,,,,,,,,11025,001,2024_Jan_08_0944,nback,2021.2.3,60.01983056327316,
1-back,instructions\back-1.png,conditions\1back-p.xlsx,instructions\1-BACK.png,"(25, 15)",practice,1,3,stim\gray.png,stim\gray.png,stim\yellow.png,stim\gray.png,down,1,0,1,0,0,1,1,1,0,7,7,7,,,,,,,,,,,,,,,,,,,,,,,,,,,211.15839520003647,212.16051630000584,211.15839520003647,212.16051630000584,211.15839520003647,212.16051630000584,211.15839520003647,212.16051630000584,right,0,1.4180276000406593,211.15839520003647,None,211.15839520003647,None,211.15839520003647,211.65955219999887,211.15839520003647,211.65955219999887,211.15839520003647,211.65955219999887,211.15839520003647,211.65955219999887,211.15839520003647,None,,,,,,,,,,,,,,,,,,,,,,,,,,,,,,,,,,,,,,,,,,11025,001,2024_Jan_08_0944,nback,2021.2.3,60.01983056327316,
1-back,instructions\back-1.png,conditions\1back-p.xlsx,instructions\1-BACK.png,"(25, 15)",practice,1,3,stim\gray.png,stim\gray.png,stim\yellow.png,stim\gray.png,right,1,0,1,0,0,1,1,1,0,8,8,8,,,,,,,,,,,,,,,,,,,,,,,,,,,212.66034880001098,213.66199689998757,212.66034880001098,213.66199689998757,212.66034880001098,213.66199689998757,212.66034880001098,213.66199689998757,None,0,,212.66034880001098,None,212.66034880001098,None,212.66034880001098,213.1629094000673,212.66034880001098,213.1629094000673,212.66034880001098,213.1629094000673,212.66034880001098,213.1629094000673,212.66034880001098,None,,,,,,,,,,,,,,,,,,,,,,,,,,,,,,,,,,,,,,,,,,11025,001,2024_Jan_08_0944,nback,2021.2.3,60.01983056327316,
1-back,instructions\back-1.png,conditions\1back-p.xlsx,instructions\1-BACK.png,"(25, 15)",practice,1,4,stim\gray.png,stim\gray.png,stim\gray.png,stim\yellow.png,right,1,0,1,0,0,1,1,1,0,9,9,9,,,,,,,,,,,,,,,,,,,,,,,,,,,214.16289609996602,215.1649599999655,214.16289609996602,215.1649599999655,214.16289609996602,215.1649599999655,214.16289609996602,215.1649599999655,right,1,0.19700980000197887,214.16289609996602,None,214.16289609996602,None,214.16289609996602,214.66431879997253,214.16289609996602,214.66431879997253,214.16289609996602,214.66431879997253,214.16289609996602,214.66431879997253,214.16289609996602,None,,,,,,,,,,,,,,,,,,,,,,,,,,,,,,,,,,,,,,,,,,11025,001,2024_Jan_08_0944,nback,2021.2.3,60.01983056327316,
1-back,instructions\back-1.png,conditions\1back-p.xlsx,instructions\1-BACK.png,"(25, 15)",practice,1,1,stim\yellow.png,stim\gray.png,stim\gray.png,stim\gray.png,down,1,0,1,0,0,1,1,1,0,10,10,10,,,,,,,,,,,,,,,,,,,,,,,,,,,215.6648373999633,216.66707930003759,215.6648373999633,216.66707930003759,215.6648373999633,216.66707930003759,215.6648373999633,216.66707930003759,down,1,0.20699709991458803,215.6648373999633,None,215.6648373999633,None,215.6648373999633,216.16610120004043,215.6648373999633,216.16610120004043,215.6648373999633,216.16610120004043,215.6648373999633,216.16610120004043,215.6648373999633,None,,,,,,,,,,,,,,,,,,,,,,,,,,,,,,,,,,,,,,,,,,11025,001,2024_Jan_08_0944,nback,2021.2.3,60.01983056327316,
1-back,instructions\back-1.png,conditions\1back-p.xlsx,instructions\1-BACK.png,"(25, 15)",practice,1,2,stim\gray.png,stim\yellow.png,stim\gray.png,stim\gray.png,up,1,0,1,0,0,1,1,1,0,11,11,11,,,,,,,,,,,,,,,,,,,,,,,,,,,217.1671306999633,218.1685231999727,217.1671306999633,218.1685231999727,217.1671306999633,218.1685231999727,217.1671306999633,218.1685231999727,up,1,0.3043665000004694,217.1671306999633,None,217.1671306999633,None,217.1671306999633,217.66791550000198,217.1671306999633,217.66791550000198,217.1671306999633,217.66791550000198,217.1671306999633,217.66791550000198,217.1671306999633,None,,,,,,,,,,,,,,,,,,,,,,,,,,,,,,,,,,,,,,,,,,11025,001,2024_Jan_08_0944,nback,2021.2.3,60.01983056327316,
1-back,instructions\back-1.png,conditions\1back-p.xlsx,instructions\1-BACK.png,"(25, 15)",practice,1,4,stim\gray.png,stim\gray.png,stim\gray.png,stim\yellow.png,left,1,0,1,0,0,1,1,1,0,12,12,12,,,,,,,,,,,,,,,,,,,,,,,,,,,218.66957689996343,219.67214430007152,218.66957689996343,219.67214430007152,218.66957689996343,219.67214430007152,218.66957689996343,219.67214430007152,left,1,0.35413689992856234,218.66957689996343,None,218.66957689996343,None,218.66957689996343,219.17072459997144,218.66957689996343,219.17072459997144,218.66957689996343,219.17072459997144,218.66957689996343,219.17072459997144,218.66957689996343,None,,,,,,,,,,,,,,,,,,,,,,,,,,,,,,,,,,,,,,,,,,11025,001,2024_Jan_08_0944,nback,2021.2.3,60.01983056327316,
1-back,instructions\back-1.png,conditions\1back-p.xlsx,instructions\1-BACK.png,"(25, 15)",practice,1,3,stim\gray.png,stim\gray.png,stim\yellow.png,stim\gray.png,down,1,0,1,0,0,1,1,1,0,13,13,13,,,,,,,,,,,,,,,,,,,,,,,,,,,220.171554200002,221.173258200055,220.171554200002,221.173258200055,220.171554200002,221.173258200055,220.171554200002,221.173258200055,down,1,0.30829269997775555,220.171554200002,None,220.171554200002,None,220.171554200002,220.67321859998628,220.171554200002,220.67321859998628,220.171554200002,220.67321859998628,220.171554200002,220.67321859998628,220.171554200002,None,,,,,,,,,,,,,,,,,,,,,,,,,,,,,,,,,,,,,,,,,,11025,001,2024_Jan_08_0944,nback,2021.2.3,60.01983056327316,
1-back,instructions\back-1.png,conditions\1back-p.xlsx,instructions\1-BACK.png,"(25, 15)",practice,1,1,stim\yellow.png,stim\gray.png,stim\gray.png,stim\gray.png,right,1,0,1,0,0,1,1,1,0,14,14,14,,,,,,,,,,,,,,,,,,,,,,,,,,,221.6571618000744,222.65865910006687,221.6571618000744,222.65865910006687,221.6571618000744,222.65865910006687,221.6571618000744,222.65865910006687,right,1,0.3667032999219373,221.6571618000744,None,221.6571618000744,None,221.6571618000744,222.158340999973,221.6571618000744,222.158340999973,221.6571618000744,222.158340999973,221.6571618000744,222.158340999973,221.6571618000744,None,,,,,,,,,,,,,,,,,,,,,,,,,,,,,,,,,,,,,,,,,,11025,001,2024_Jan_08_0944,nback,2021.2.3,60.01983056327316,
1-back,instructions\back-1.png,conditions\1back-p.xlsx,instructions\1-BACK.png,"(25, 15)",practice,1,2,stim\gray.png,stim\yellow.png,stim\gray.png,stim\gray.png,up,1,0,1,0,0,1,1,1,0,15,15,15,,,,,,,,,,,,,,,,,,,,,,,,,,,223.1594044000376,224.16133250005078,223.1594044000376,224.16133250005078,223.1594044000376,224.16133250005078,223.1594044000376,224.16133250005078,up,1,0.33608250005636364,223.1594044000376,None,223.1594044000376,None,223.1594044000376,223.65994290006347,223.1594044000376,223.65994290006347,223.1594044000376,223.65994290006347,223.1594044000376,223.65994290006347,223.1594044000376,None,,,,,,,,,,,,,,,,,,,,,,,,,,,,,,,,,,,,,,,,,,11025,001,2024_Jan_08_0944,nback,2021.2.3,60.01983056327316,
1-back,instructions\back-1.png,conditions\1back-p.xlsx,instructions\1-BACK.png,"(25, 15)",practice,1,3,stim\gray.png,stim\gray.png,stim\yellow.png,stim\gray.png,left,1,0,1,0,0,1,1,1,0,16,16,16,,,,,,,,,,,,,,,,,,,,,,,,,,,224.66155580000486,225.66305870003998,224.66155580000486,225.66305870003998,224.66155580000486,225.66305870003998,224.66155580000486,225.66305870003998,left,1,0.34661200002301484,224.66155580000486,None,224.66155580000486,None,224.66155580000486,225.16317700000945,224.66155580000486,225.16317700000945,224.66155580000486,225.16317700000945,224.66155580000486,225.16317700000945,224.66155580000486,None,,,,,,,,,,,,,,,,,,,,,,,,,,,,,,,,,,,,,,,,,,11025,001,2024_Jan_08_0944,nback,2021.2.3,60.01983056327316,
1-back,instructions\back-1.png,conditions\1back-p.xlsx,instructions\1-BACK.png,"(25, 15)",practice,1,1,stim\yellow.png,stim\gray.png,stim\gray.png,stim\gray.png,right,1,0,1,0,0,1,1,1,0,17,17,17,,,,,,,,,,,,,,,,,,,,,,,,,,,226.16379570006393,227.1653115999652,226.16379570006393,227.1653115999652,226.16379570006393,227.1653115999652,226.16379570006393,227.1653115999652,right,1,0.36407299991697073,226.16379570006393,None,226.16379570006393,None,226.16379570006393,226.6646383999614,226.16379570006393,226.6646383999614,226.16379570006393,226.6646383999614,226.16379570006393,226.6646383999614,226.16379570006393,None,,,,,,,,,,,,,,,,,,,,,,,,,,,,,,,,,,,,,,,,,,11025,001,2024_Jan_08_0944,nback,2021.2.3,60.01983056327316,
1-back,instructions\back-1.png,conditions\1back-p.xlsx,instructions\1-BACK.png,"(25, 15)",practice,1,4,stim\gray.png,stim\gray.png,stim\gray.png,stim\yellow.png,up,1,0,1,0,0,1,1,1,0,18,18,18,,,,,,,,,,,,,,,,,,,,,,,,,,,227.66614790004678,228.66759560001083,227.66614790004678,228.66759560001083,227.66614790004678,228.66759560001083,227.66614790004678,228.66759560001083,up,1,0.2773426999337971,227.66614790004678,None,227.66614790004678,None,227.66614790004678,228.16744290001225,227.66614790004678,228.16744290001225,227.66614790004678,228.16744290001225,227.66614790004678,228.16744290001225,227.66614790004678,None,,,,,,,,,,,,,,,,,,,,,,,,,,,,,,,,,,,,,,,,,,11025,001,2024_Jan_08_0944,nback,2021.2.3,60.01983056327316,
1-back,instructions\back-1.png,conditions\1back-p.xlsx,instructions\1-BACK.png,"(25, 15)",practice,1,2,stim\gray.png,stim\yellow.png,stim\gray.png,stim\gray.png,down,1,0,1,0,0,1,1,1,0,19,19,19,,,,,,,,,,,,,,,,,,,,,,,,,,,229.1685836999677,230.17054770002142,229.1685836999677,230.17054770002142,229.1685836999677,230.17054770002142,229.1685836999677,230.17054770002142,down,1,0.4949465999379754,229.1685836999677,None,229.1685836999677,None,229.1685836999677,229.6694060000591,229.1685836999677,229.6694060000591,229.1685836999677,229.6694060000591,229.1685836999677,229.6694060000591,229.1685836999677,None,,,,,,,,,,,,,,,,,,,,,,,,,,,,,,,,,,,,,,,,,,11025,001,2024_Jan_08_0944,nback,2021.2.3,60.01983056327316,
1-back,instructions\back-1.png,conditions\1back-p.xlsx,instructions\1-BACK.png,"(25, 15)",,,,,,,,,1,0,1,0,0,1,1,1,,,,,,,,,,,,,,,,,,,,,,,,,,,,,,,,,,,,,,,,,,,,,,,,,,,,,,,,,,,,,,,,,,,,,,,,,,,,,,,,,,,,,,,,,,,,,,,,,11025,001,2024_Jan_08_0944,nback,2021.2.3,60.01983056327316,
2-back,instructions\back-2.png,conditions\2back-p.xlsx,instructions\2-BACK.png,"(25, 15)",practice,2,1,stim\yellow.png,stim\gray.png,stim\gray.png,stim\gray.png,None,1,0,1,0,0,2,2,2,0,0,0,0,,,,,,,,,,,,,,,,,230.8207504999591,None,space,4.435060200048611,230.8207504999591,None,235.39401459996589,239.9016967000207,239.8511614999734,None,240.3027891999809,241.30322670005262,240.3027891999809,241.30322670005262,240.3027891999809,241.30322670005262,240.3027891999809,241.30322670005262,None,1,,240.3027891999809,None,240.3027891999809,None,240.3027891999809,240.80286639998667,240.3027891999809,240.80286639998667,240.3027891999809,240.80286639998667,240.3027891999809,240.80286639998667,240.3027891999809,None,,,,,,,,,,,,,,,,,,,,,,,,,,,,,,,,,,,,,,,,,,11025,001,2024_Jan_08_0944,nback,2021.2.3,60.01983056327316,
2-back,instructions\back-2.png,conditions\2back-p.xlsx,instructions\2-BACK.png,"(25, 15)",practice,2,2,stim\gray.png,stim\yellow.png,stim\gray.png,stim\gray.png,None,1,0,1,0,0,2,2,2,0,1,1,1,,,,,,,,,,,,,,,,,,,,,,,,,,,241.7870993000688,242.7887427000096,241.7870993000688,242.7887427000096,241.7870993000688,242.7887427000096,241.7870993000688,242.7887427000096,None,1,,241.7870993000688,None,241.7870993000688,None,241.7870993000688,242.28785780002363,241.7870993000688,242.28785780002363,241.7870993000688,242.28785780002363,241.7870993000688,242.28785780002363,241.7870993000688,None,,,,,,,,,,,,,,,,,,,,,,,,,,,,,,,,,,,,,,,,,,11025,001,2024_Jan_08_0944,nback,2021.2.3,60.01983056327316,
2-back,instructions\back-2.png,conditions\2back-p.xlsx,instructions\2-BACK.png,"(25, 15)",practice,2,3,stim\gray.png,stim\gray.png,stim\yellow.png,stim\gray.png,up,1,0,1,0,0,2,2,2,0,2,2,2,,,,,,,,,,,,,,,,,,,,,,,,,,,243.28907170007005,244.29120099998545,243.28907170007005,244.29120099998545,243.28907170007005,244.29120099998545,243.28907170007005,244.29120099998545,up,1,0.38257799996063113,243.28907170007005,None,243.28907170007005,None,243.28907170007005,243.79006060003303,243.28907170007005,243.79006060003303,243.28907170007005,243.79006060003303,243.28907170007005,243.79006060003303,243.28907170007005,None,,,,,,,,,,,,,,,,,,,,,,,,,,,,,,,,,,,,,,,,,,11025,001,2024_Jan_08_0944,nback,2021.2.3,60.01983056327316,
2-back,instructions\back-2.png,conditions\2back-p.xlsx,instructions\2-BACK.png,"(25, 15)",practice,2,4,stim\gray.png,stim\gray.png,stim\gray.png,stim\yellow.png,left,1,0,1,0,0,2,2,2,0,3,3,3,,,,,,,,,,,,,,,,,,,,,,,,,,,244.79145330004394,245.79282339999918,244.79145330004394,245.79282339999918,244.79145330004394,245.79282339999918,244.79145330004394,245.79282339999918,left,1,0.3690121000399813,244.79145330004394,None,244.79145330004394,None,244.79145330004394,245.2926270000171,244.79145330004394,245.2926270000171,244.79145330004394,245.2926270000171,244.79145330004394,245.2926270000171,244.79145330004394,None,,,,,,,,,,,,,,,,,,,,,,,,,,,,,,,,,,,,,,,,,,11025,001,2024_Jan_08_0944,nback,2021.2.3,60.01983056327316,
2-back,instructions\back-2.png,conditions\2back-p.xlsx,instructions\2-BACK.png,"(25, 15)",practice,2,2,stim\gray.png,stim\yellow.png,stim\gray.png,stim\gray.png,right,1,0,1,0,0,2,2,2,0,4,4,4,,,,,,,,,,,,,,,,,,,,,,,,,,,246.29368610004894,247.29525269998703,246.29368610004894,247.29525269998703,246.29368610004894,247.29525269998703,246.29368610004894,247.29525269998703,right,1,0.4420342999510467,246.29368610004894,None,246.29368610004894,None,246.29368610004894,246.795637800009,246.29368610004894,246.795637800009,246.29368610004894,246.795637800009,246.29368610004894,246.795637800009,246.29368610004894,None,,,,,,,,,,,,,,,,,,,,,,,,,,,,,,,,,,,,,,,,,,11025,001,2024_Jan_08_0944,nback,2021.2.3,60.01983056327316,
2-back,instructions\back-2.png,conditions\2back-p.xlsx,instructions\2-BACK.png,"(25, 15)",practice,2,1,stim\yellow.png,stim\gray.png,stim\gray.png,stim\gray.png,down,1,0,1,0,0,2,2,2,0,5,5,5,,,,,,,,,,,,,,,,,,,,,,,,,,,247.79593080002815,248.79724540002644,247.79593080002815,248.79724540002644,247.79593080002815,248.79724540002644,247.79593080002815,248.79724540002644,down,1,0.5716797000495717,247.79593080002815,None,247.79593080002815,None,247.79593080002815,248.2969594000606,247.79593080002815,248.2969594000606,247.79593080002815,248.2969594000606,247.79593080002815,248.2969594000606,247.79593080002815,None,,,,,,,,,,,,,,,,,,,,,,,,,,,,,,,,,,,,,,,,,,11025,001,2024_Jan_08_0944,nback,2021.2.3,60.01983056327316,
2-back,instructions\back-2.png,conditions\2back-p.xlsx,instructions\2-BACK.png,"(25, 15)",practice,2,4,stim\gray.png,stim\gray.png,stim\gray.png,stim\yellow.png,left,1,0,1,0,0,2,2,2,0,6,6,6,,,,,,,,,,,,,,,,,,,,,,,,,,,249.28221780003514,250.28337900002953,249.28221780003514,250.28337900002953,249.28221780003514,250.28337900002953,249.28221780003514,250.28337900002953,left,1,0.39738400001078844,249.28221780003514,None,249.28221780003514,None,249.28221780003514,249.7825496000005,249.28221780003514,249.7825496000005,249.28221780003514,249.7825496000005,249.28221780003514,249.7825496000005,249.28221780003514,None,,,,,,,,,,,,,,,,,,,,,,,,,,,,,,,,,,,,,,,,,,11025,001,2024_Jan_08_0944,nback,2021.2.3,60.01983056327316,
2-back,instructions\back-2.png,conditions\2back-p.xlsx,instructions\2-BACK.png,"(25, 15)",practice,2,3,stim\gray.png,stim\gray.png,stim\yellow.png,stim\gray.png,up,1,0,1,0,0,2,2,2,0,7,7,7,,,,,,,,,,,,,,,,,,,,,,,,,,,250.78374240000267,251.78524380002636,250.78374240000267,251.78524380002636,250.78374240000267,251.78524380002636,250.78374240000267,251.78524380002636,up,1,0.3917186000617221,250.78374240000267,None,250.78374240000267,None,250.78374240000267,251.28529100003652,250.78374240000267,251.28529100003652,250.78374240000267,251.28529100003652,250.78374240000267,251.28529100003652,250.78374240000267,None,,,,,,,,,,,,,,,,,,,,,,,,,,,,,,,,,,,,,,,,,,11025,001,2024_Jan_08_0944,nback,2021.2.3,60.01983056327316,
2-back,instructions\back-2.png,conditions\2back-p.xlsx,instructions\2-BACK.png,"(25, 15)",practice,2,3,stim\gray.png,stim\gray.png,stim\yellow.png,stim\gray.png,down,1,0,1,0,0,2,2,2,0,8,8,8,,,,,,,,,,,,,,,,,,,,,,,,,,,252.28575919999275,253.28806960000657,252.28575919999275,253.28806960000657,252.28575919999275,253.28806960000657,252.28575919999275,253.28806960000657,down,1,0.2899974000174552,252.28575919999275,None,252.28575919999275,None,252.28575919999275,252.78673930000514,252.28575919999275,252.78673930000514,252.28575919999275,252.78673930000514,252.28575919999275,252.78673930000514,252.28575919999275,None,,,,,,,,,,,,,,,,,,,,,,,,,,,,,,,,,,,,,,,,,,11025,001,2024_Jan_08_0944,nback,2021.2.3,60.01983056327316,
2-back,instructions\back-2.png,conditions\2back-p.xlsx,instructions\2-BACK.png,"(25, 15)",practice,2,4,stim\gray.png,stim\gray.png,stim\gray.png,stim\yellow.png,right,1,0,1,0,0,2,2,2,0,9,9,9,,,,,,,,,,,,,,,,,,,,,,,,,,,253.78821360005531,254.79061530006584,253.78821360005531,254.79061530006584,253.78821360005531,254.79061530006584,253.78821360005531,254.79061530006584,right,1,0.26821549993474036,253.78821360005531,None,253.78821360005531,None,253.78821360005531,254.2897375000175,253.78821360005531,254.2897375000175,253.78821360005531,254.2897375000175,253.78821360005531,254.2897375000175,253.78821360005531,None,,,,,,,,,,,,,,,,,,,,,,,,,,,,,,,,,,,,,,,,,,11025,001,2024_Jan_08_0944,nback,2021.2.3,60.01983056327316,
2-back,instructions\back-2.png,conditions\2back-p.xlsx,instructions\2-BACK.png,"(25, 15)",practice,2,1,stim\yellow.png,stim\gray.png,stim\gray.png,stim\gray.png,right,1,0,1,0,0,2,2,2,0,10,10,10,,,,,,,,,,,,,,,,,,,,,,,,,,,255.29072350007482,256.2925769999856,255.29072350007482,256.2925769999856,255.29072350007482,256.2925769999856,255.29072350007482,256.2925769999856,right,1,0.15702009992673993,255.29072350007482,None,255.29072350007482,None,255.29072350007482,255.79118539998308,255.29072350007482,255.79118539998308,255.29072350007482,255.79118539998308,255.29072350007482,255.79118539998308,255.29072350007482,None,,,,,,,,,,,,,,,,,,,,,,,,,,,,,,,,,,,,,,,,,,11025,001,2024_Jan_08_0944,nback,2021.2.3,60.01983056327316,
2-back,instructions\back-2.png,conditions\2back-p.xlsx,instructions\2-BACK.png,"(25, 15)",practice,2,2,stim\gray.png,stim\yellow.png,stim\gray.png,stim\gray.png,down,1,0,1,0,0,2,2,2,0,11,11,11,,,,,,,,,,,,,,,,,,,,,,,,,,,256.7926133000292,257.7939253000077,256.7926133000292,257.7939253000077,256.7926133000292,257.7939253000077,256.7926133000292,257.7939253000077,down,1,0.1109318999806419,256.7926133000292,None,256.7926133000292,None,256.7926133000292,257.29399090004154,256.7926133000292,257.29399090004154,256.7926133000292,257.29399090004154,256.7926133000292,257.29399090004154,256.7926133000292,None,,,,,,,,,,,,,,,,,,,,,,,,,,,,,,,,,,,,,,,,,,11025,001,2024_Jan_08_0944,nback,2021.2.3,60.01983056327316,
2-back,instructions\back-2.png,conditions\2back-p.xlsx,instructions\2-BACK.png,"(25, 15)",practice,2,4,stim\gray.png,stim\gray.png,stim\gray.png,stim\yellow.png,up,1,0,1,0,0,2,2,2,0,12,12,12,,,,,,,,,,,,,,,,,,,,,,,,,,,258.2949030000018,259.29629089997616,258.2949030000018,259.29629089997616,258.2949030000018,259.29629089997616,258.2949030000018,259.29629089997616,up,1,0.2809512000530958,258.2949030000018,None,258.2949030000018,None,258.2949030000018,258.7963381999871,258.2949030000018,258.7963381999871,258.2949030000018,258.7963381999871,258.2949030000018,258.7963381999871,258.2949030000018,None,,,,,,,,,,,,,,,,,,,,,,,,,,,,,,,,,,,,,,,,,,11025,001,2024_Jan_08_0944,nback,2021.2.3,60.01983056327316,
2-back,instructions\back-2.png,conditions\2back-p.xlsx,instructions\2-BACK.png,"(25, 15)",practice,2,3,stim\gray.png,stim\gray.png,stim\yellow.png,stim\gray.png,left,1,0,1,0,0,2,2,2,0,13,13,13,,,,,,,,,,,,,,,,,,,,,,,,,,,259.79696110007353,260.80014469998423,259.79696110007353,260.80014469998423,259.79696110007353,260.80014469998423,259.79696110007353,260.80014469998423,left,1,0.2514054999919608,259.79696110007353,None,259.79696110007353,None,259.79696110007353,260.2980047999881,259.79696110007353,260.2980047999881,259.79696110007353,260.2980047999881,259.79696110007353,260.2980047999881,259.79696110007353,None,,,,,,,,,,,,,,,,,,,,,,,,,,,,,,,,,,,,,,,,,,11025,001,2024_Jan_08_0944,nback,2021.2.3,60.01983056327316,
2-back,instructions\back-2.png,conditions\2back-p.xlsx,instructions\2-BACK.png,"(25, 15)",practice,2,1,stim\yellow.png,stim\gray.png,stim\gray.png,stim\gray.png,down,1,0,1,0,0,2,2,2,0,14,14,14,,,,,,,,,,,,,,,,,,,,,,,,,,,261.2824435000075,262.2842865000712,261.2824435000075,262.2842865000712,261.2824435000075,262.2842865000712,261.2824435000075,262.2842865000712,down,1,0.20510560006368905,261.2824435000075,None,261.2824435000075,None,261.2824435000075,261.78393110004254,261.2824435000075,261.78393110004254,261.2824435000075,261.78393110004254,261.2824435000075,261.78393110004254,261.2824435000075,None,,,,,,,,,,,,,,,,,,,,,,,,,,,,,,,,,,,,,,,,,,11025,001,2024_Jan_08_0944,nback,2021.2.3,60.01983056327316,
2-back,instructions\back-2.png,conditions\2back-p.xlsx,instructions\2-BACK.png,"(25, 15)",practice,2,2,stim\gray.png,stim\yellow.png,stim\gray.png,stim\gray.png,right,1,0,1,0,0,2,2,2,0,15,15,15,,,,,,,,,,,,,,,,,,,,,,,,,,,262.7848952000495,263.78706420003437,262.7848952000495,263.78706420003437,262.7848952000495,263.78706420003437,262.7848952000495,263.78706420003437,right,1,0.2636318999575451,262.7848952000495,None,262.7848952000495,None,262.7848952000495,263.28627769998275,262.7848952000495,263.28627769998275,262.7848952000495,263.28627769998275,262.7848952000495,263.28627769998275,262.7848952000495,None,,,,,,,,,,,,,,,,,,,,,,,,,,,,,,,,,,,,,,,,,,11025,001,2024_Jan_08_0944,nback,2021.2.3,60.01983056327316,
2-back,instructions\back-2.png,conditions\2back-p.xlsx,instructions\2-BACK.png,"(25, 15)",practice,2,3,stim\gray.png,stim\gray.png,stim\yellow.png,stim\gray.png,up,1,0,1,0,0,2,2,2,0,16,16,16,,,,,,,,,,,,,,,,,,,,,,,,,,,264.2870089999633,265.28849040006753,264.2870089999633,265.28849040006753,264.2870089999633,265.28849040006753,264.2870089999633,265.28849040006753,up,1,0.1605872999643907,264.2870089999633,None,264.2870089999633,None,264.2870089999633,264.7884608999593,264.2870089999633,264.7884608999593,264.2870089999633,264.7884608999593,264.2870089999633,264.7884608999593,264.2870089999633,None,,,,,,,,,,,,,,,,,,,,,,,,,,,,,,,,,,,,,,,,,,11025,001,2024_Jan_08_0944,nback,2021.2.3,60.01983056327316,
2-back,instructions\back-2.png,conditions\2back-p.xlsx,instructions\2-BACK.png,"(25, 15)",practice,2,1,stim\yellow.png,stim\gray.png,stim\gray.png,stim\gray.png,left,1,0,1,0,0,2,2,2,0,17,17,17,,,,,,,,,,,,,,,,,,,,,,,,,,,265.789277200005,266.79082300001755,265.789277200005,266.79082300001755,265.789277200005,266.79082300001755,265.789277200005,266.79082300001755,right,0,1.4348277000244707,265.789277200005,None,265.789277200005,None,265.789277200005,266.2903421999654,265.789277200005,266.2903421999654,265.789277200005,266.2903421999654,265.789277200005,266.2903421999654,265.789277200005,None,,,,,,,,,,,,,,,,,,,,,,,,,,,,,,,,,,,,,,,,,,11025,001,2024_Jan_08_0944,nback,2021.2.3,60.01983056327316,
2-back,instructions\back-2.png,conditions\2back-p.xlsx,instructions\2-BACK.png,"(25, 15)",practice,2,4,stim\gray.png,stim\gray.png,stim\gray.png,stim\yellow.png,right,1,0,1,0,0,2,2,2,0,18,18,18,,,,,,,,,,,,,,,,,,,,,,,,,,,267.2920989000704,268.29309310007375,267.2920989000704,268.29309310007375,267.2920989000704,268.29309310007375,267.2920989000704,268.29309310007375,None,0,,267.2920989000704,None,267.2920989000704,None,267.2920989000704,267.79278849996626,267.2920989000704,267.79278849996626,267.2920989000704,267.79278849996626,267.2920989000704,267.79278849996626,267.2920989000704,None,,,,,,,,,,,,,,,,,,,,,,,,,,,,,,,,,,,,,,,,,,11025,001,2024_Jan_08_0944,nback,2021.2.3,60.01983056327316,
2-back,instructions\back-2.png,conditions\2back-p.xlsx,instructions\2-BACK.png,"(25, 15)",practice,2,2,stim\gray.png,stim\yellow.png,stim\gray.png,stim\gray.png,up,1,0,1,0,0,2,2,2,0,19,19,19,,,,,,,,,,,,,,,,,,,,,,,,,,,268.79408530006185,269.7959246999817,268.79408530006185,269.7959246999817,268.79408530006185,269.7959246999817,268.79408530006185,269.7959246999817,up,1,0.08570680010598153,268.79408530006185,None,268.79408530006185,None,268.79408530006185,269.2952580000274,268.79408530006185,269.2952580000274,268.79408530006185,269.2952580000274,268.79408530006185,269.2952580000274,268.79408530006185,None,,,,,,,,,,,,,,,,,,,,,,,,,,,,,,,,,,,,,,,,,,11025,001,2024_Jan_08_0944,nback,2021.2.3,60.01983056327316,
2-back,instructions\back-2.png,conditions\2back-p.xlsx,instructions\2-BACK.png,"(25, 15)",,,,,,,,,1,0,1,0,0,2,2,2,,,,,,,,,,,,,,,,,,,,,,,,,,,,,,,,,,,,,,,,,,,,,,,,,,,,,,,,,,,,,,,,,,,,,,,,,,,,,,,,,,,,,,,,,,,,,,,,,11025,001,2024_Jan_08_0944,nback,2021.2.3,60.01983056327316,
,,,,,,,,,,,,,1,0,1,0,,,,,,,,,,,,,,,,,,,,,,,,,,,,,,,,,,,,,,,,,,,,,,,,,,,,,,,,,,,,270.29596600006334,None,space,6.495679300045595,270.29596600006334,None,,,,,,,,,,,,,,,,,,,,,,,,,,,,,,,,,,,,11025,001,2024_Jan_08_0944,nback,2021.2.3,60.01983056327316,
,,,,,,,,,,,,,,,,,,,,,,,,,,,,,,,,,,,,,,,,,,,,,,,,,,,,,,,,,,,,,,,,,,,,,,,,,,,,,,,,,,276.8223847000627,None,space,37.95345650007948,276.8223847000627,None,,,,,,,,,,,,,,,,,,,,,,,,,,,,,,11025,001,2024_Jan_08_0944,nback,2021.2.3,60.01983056327316,
0-back,instructions\back-0.png,conditions\02back-e.xlsx,,,experiment,0,4,stim\gray.png,stim\gray.png,stim\gray.png,stim\yellow.png,down,,,,,,,,,,,,,0,0,0,7,0,0,0,0,,,,,,,,,,,,,,,314.9623196000466,319.47018970001955,319.41965499997605,None,,,,,,,,,,,,,,,,,,,,,,,,,,,,,,,,,,,,,,down,1,0.48497270001098514,319.8195782999974,None,319.8195782999974,None,319.8195782999974,320.8217710000463,319.8195782999974,320.8217710000463,319.8195782999974,320.8217710000463,319.8195782999974,320.8217710000463,319.8195782999974,320.319960599998,319.8195782999974,320.319960599998,319.8195782999974,320.319960599998,319.8195782999974,320.319960599998,319.8195782999974,None,,,,,11025,001,2024_Jan_08_0944,nback,2021.2.3,60.01983056327316,
0-back,instructions\back-0.png,conditions\02back-e.xlsx,,,experiment,0,2,stim\gray.png,stim\yellow.png,stim\gray.png,stim\gray.png,left,,,,,,,,,,,,,0,0,0,7,0,1,1,1,,,,,,,,,,,,,,,,,,,,,,,,,,,,,,,,,,,,,,,,,,,,,,,,,,,,,,,,left,1,0.47093630000017583,321.3050802999642,None,321.3050802999642,None,321.3050802999642,322.3064401000738,321.3050802999642,322.3064401000738,321.3050802999642,322.3064401000738,321.3050802999642,322.3064401000738,321.3050802999642,321.80562790005933,321.3050802999642,321.80562790005933,321.3050802999642,321.80562790005933,321.3050802999642,321.80562790005933,321.3050802999642,None,,,,,11025,001,2024_Jan_08_0944,nback,2021.2.3,60.01983056327316,
0-back,instructions\back-0.png,conditions\02back-e.xlsx,,,experiment,0,1,stim\yellow.png,stim\gray.png,stim\gray.png,stim\gray.png,up,,,,,,,,,,,,,0,0,0,7,0,2,2,2,,,,,,,,,,,,,,,,,,,,,,,,,,,,,,,,,,,,,,,,,,,,,,,,,,,,,,,,up,1,0.39284569991286844,322.80705699999817,None,322.80705699999817,None,322.80705699999817,323.8083823999623,322.80705699999817,323.8083823999623,322.80705699999817,323.8083823999623,322.80705699999817,323.8083823999623,322.80705699999817,323.30788840004243,322.80705699999817,323.30788840004243,322.80705699999817,323.30788840004243,322.80705699999817,323.30788840004243,322.80705699999817,None,,,,,11025,001,2024_Jan_08_0944,nback,2021.2.3,60.01983056327316,
0-back,instructions\back-0.png,conditions\02back-e.xlsx,,,experiment,0,2,stim\gray.png,stim\yellow.png,stim\gray.png,stim\gray.png,left,,,,,,,,,,,,,0,0,0,7,0,3,3,3,,,,,,,,,,,,,,,,,,,,,,,,,,,,,,,,,,,,,,,,,,,,,,,,,,,,,,,,left,1,0.34690360003151,324.30915770004503,None,324.30915770004503,None,324.30915770004503,325.31101070006844,324.30915770004503,325.31101070006844,324.30915770004503,325.31101070006844,324.30915770004503,325.31101070006844,324.30915770004503,324.81008540000767,324.30915770004503,324.81008540000767,324.30915770004503,324.81008540000767,324.30915770004503,324.81008540000767,324.30915770004503,None,,,,,11025,001,2024_Jan_08_0944,nback,2021.2.3,60.01983056327316,
0-back,instructions\back-0.png,conditions\02back-e.xlsx,,,experiment,0,3,stim\gray.png,stim\gray.png,stim\yellow.png,stim\gray.png,right,,,,,,,,,,,,,0,0,0,7,0,4,4,4,,,,,,,,,,,,,,,,,,,,,,,,,,,,,,,,,,,,,,,,,,,,,,,,,,,,,,,,right,1,0.32443160004913807,325.8116367000621,None,325.8116367000621,None,325.8116367000621,326.8130792999873,325.8116367000621,326.8130792999873,325.8116367000621,326.8130792999873,325.8116367000621,326.8130792999873,325.8116367000621,326.31237359996885,325.8116367000621,326.31237359996885,325.8116367000621,326.31237359996885,325.8116367000621,326.31237359996885,325.8116367000621,None,,,,,11025,001,2024_Jan_08_0944,nback,2021.2.3,60.01983056327316,
0-back,instructions\back-0.png,conditions\02back-e.xlsx,,,experiment,0,1,stim\yellow.png,stim\gray.png,stim\gray.png,stim\gray.png,up,,,,,,,,,,,,,0,0,0,7,0,5,5,5,,,,,,,,,,,,,,,,,,,,,,,,,,,,,,,,,,,,,,,,,,,,,,,,,,,,,,,,up,1,0.32562380004674196,327.3139460000675,None,327.3139460000675,None,327.3139460000675,328.31556370004546,327.3139460000675,328.31556370004546,327.3139460000675,328.31556370004546,327.3139460000675,328.31556370004546,327.3139460000675,327.8145838000346,327.3139460000675,327.8145838000346,327.3139460000675,327.8145838000346,327.3139460000675,327.8145838000346,327.3139460000675,None,,,,,11025,001,2024_Jan_08_0944,nback,2021.2.3,60.01983056327316,
0-back,instructions\back-0.png,conditions\02back-e.xlsx,,,experiment,0,2,stim\gray.png,stim\yellow.png,stim\gray.png,stim\gray.png,left,,,,,,,,,,,,,0,0,0,7,0,6,6,6,,,,,,,,,,,,,,,,,,,,,,,,,,,,,,,,,,,,,,,,,,,,,,,,,,,,,,,,left,1,0.32118510000873357,328.7992257999722,None,328.7992257999722,None,328.7992257999722,329.8016096999636,328.7992257999722,329.8016096999636,328.7992257999722,329.8016096999636,328.7992257999722,329.8016096999636,328.7992257999722,329.3000467000529,328.7992257999722,329.3000467000529,328.7992257999722,329.3000467000529,328.7992257999722,329.3000467000529,328.7992257999722,None,,,,,11025,001,2024_Jan_08_0944,nback,2021.2.3,60.01983056327316,
0-back,instructions\back-0.png,conditions\02back-e.xlsx,,,experiment,0,3,stim\gray.png,stim\gray.png,stim\yellow.png,stim\gray.png,right,,,,,,,,,,,,,0,0,0,7,0,7,7,7,,,,,,,,,,,,,,,,,,,,,,,,,,,,,,,,,,,,,,,,,,,,,,,,,,,,,,,,right,1,0.3377392999827862,330.3019065000117,None,330.3019065000117,None,330.3019065000117,331.30309329996817,330.3019065000117,331.30309329996817,330.3019065000117,331.30309329996817,330.3019065000117,331.30309329996817,330.3019065000117,330.80215060000774,330.3019065000117,330.80215060000774,330.3019065000117,330.80215060000774,330.3019065000117,330.80215060000774,330.3019065000117,None,,,,,11025,001,2024_Jan_08_0944,nback,2021.2.3,60.01983056327316,
0-back,instructions\back-0.png,conditions\02back-e.xlsx,,,experiment,0,4,stim\gray.png,stim\gray.png,stim\gray.png,stim\yellow.png,down,,,,,,,,,,,,,0,0,0,7,0,8,8,8,,,,,,,,,,,,,,,,,,,,,,,,,,,,,,,,,,,,,,,,,,,,,,,,,,,,,,,,down,1,0.3806036999449134,331.80371969996486,None,331.80371969996486,None,331.80371969996486,332.8052402000176,331.80371969996486,332.8052402000176,331.80371969996486,332.8052402000176,331.80371969996486,332.8052402000176,331.80371969996486,332.3049061000347,331.80371969996486,332.3049061000347,331.80371969996486,332.3049061000347,331.80371969996486,332.3049061000347,331.80371969996486,None,,,,,11025,001,2024_Jan_08_0944,nback,2021.2.3,60.01983056327316,
0-back,instructions\back-0.png,conditions\02back-e.xlsx,,,experiment,0,3,stim\gray.png,stim\gray.png,stim\yellow.png,stim\gray.png,right,,,,,,,,,,,,,0,0,0,7,0,9,9,9,,,,,,,,,,,,,,,,,,,,,,,,,,,,,,,,,,,,,,,,,,,,,,,,,,,,,,,,right,1,0.30185579997487366,333.30618980003055,None,333.30618980003055,None,333.30618980003055,334.3073142999783,333.30618980003055,334.3073142999783,333.30618980003055,334.3073142999783,333.30618980003055,334.3073142999783,333.30618980003055,333.8072134000249,333.30618980003055,333.8072134000249,333.30618980003055,333.8072134000249,333.30618980003055,333.8072134000249,333.30618980003055,None,,,,,11025,001,2024_Jan_08_0944,nback,2021.2.3,60.01983056327316,
0-back,instructions\back-0.png,conditions\02back-e.xlsx,,,experiment,0,1,stim\yellow.png,stim\gray.png,stim\gray.png,stim\gray.png,up,,,,,,,,,,,,,0,0,0,7,0,10,10,10,,,,,,,,,,,,,,,,,,,,,,,,,,,,,,,,,,,,,,,,,,,,,,,,,,,,,,,,up,1,0.35956110002007335,334.8081056000665,None,334.8081056000665,None,334.8081056000665,335.8097078000428,334.8081056000665,335.8097078000428,334.8081056000665,335.8097078000428,334.8081056000665,335.8097078000428,334.8081056000665,335.30942080006935,334.8081056000665,335.30942080006935,334.8081056000665,335.30942080006935,334.8081056000665,335.30942080006935,334.8081056000665,None,,,,,11025,001,2024_Jan_08_0944,nback,2021.2.3,60.01983056327316,
0-back,instructions\back-0.png,conditions\02back-e.xlsx,,,experiment,0,4,stim\gray.png,stim\gray.png,stim\gray.png,stim\yellow.png,down,,,,,,,,,,,,,0,0,0,7,0,11,11,11,,,,,,,,,,,,,,,,,,,,,,,,,,,,,,,,,,,,,,,,,,,,,,,,,,,,,,,,down,1,0.3297658999217674,336.3102673999965,None,336.3102673999965,None,336.3102673999965,337.3123741999734,336.3102673999965,337.3123741999734,336.3102673999965,337.3123741999734,336.3102673999965,337.3123741999734,336.3102673999965,336.8112369000446,336.3102673999965,336.8112369000446,336.3102673999965,336.8112369000446,336.3102673999965,336.8112369000446,336.3102673999965,None,,,,,11025,001,2024_Jan_08_0944,nback,2021.2.3,60.01983056327316,
0-back,instructions\back-0.png,conditions\02back-e.xlsx,,,experiment,0,3,stim\gray.png,stim\gray.png,stim\yellow.png,stim\gray.png,right,,,,,,,,,,,,,0,0,0,7,0,12,12,12,,,,,,,,,,,,,,,,,,,,,,,,,,,,,,,,,,,,,,,,,,,,,,,,,,,,,,,,right,1,0.3313166999723762,337.81284240004607,None,337.81284240004607,None,337.81284240004607,338.8141685000155,337.81284240004607,338.8141685000155,337.81284240004607,338.8141685000155,337.81284240004607,338.8141685000155,337.81284240004607,338.3133885000134,337.81284240004607,338.3133885000134,337.81284240004607,338.3133885000134,337.81284240004607,338.3133885000134,337.81284240004607,None,,,,,11025,001,2024_Jan_08_0944,nback,2021.2.3,60.01983056327316,
0-back,instructions\back-0.png,conditions\02back-e.xlsx,,,experiment,0,1,stim\yellow.png,stim\gray.png,stim\gray.png,stim\gray.png,up,,,,,,,,,,,,,0,0,0,7,0,13,13,13,,,,,,,,,,,,,,,,,,,,,,,,,,,,,,,,,,,,,,,,,,,,,,,,,,,,,,,,up,1,0.33313569996971637,339.3155523999594,None,339.3155523999594,None,339.3155523999594,340.31734680000227,339.3155523999594,340.31734680000227,339.3155523999594,340.31734680000227,339.3155523999594,340.31734680000227,339.3155523999594,339.8163102000253,339.3155523999594,339.8163102000253,339.3155523999594,339.8163102000253,339.3155523999594,339.8163102000253,339.3155523999594,None,,,,,11025,001,2024_Jan_08_0944,nback,2021.2.3,60.01983056327316,
