backseq,backinstr,backfile,instruction,size_in,Trialtype,back,number,P1,P2,P3,P4,corrAns,trials_practice.thisRepN,trials_practice.thisTrialN,trials_practice.thisN,trials_practice.thisIndex,trials.thisRepN,trials.thisTrialN,trials.thisN,trials.thisIndex,trials_3.thisRepN,trials_3.thisTrialN,trials_3.thisN,trials_3.thisIndex,trials_2.thisRepN,trials_2.thisTrialN,trials_2.thisN,trials_2.thisIndex,trials_4.thisRepN,trials_4.thisTrialN,trials_4.thisN,trials_4.thisIndex,image.started,image.stopped,image_2.started,image_2.stopped,key_resp.keys,key_resp.rt,key_resp.started,key_resp.stopped,image_3.started,image_3.stopped,key_resp_2.keys,key_resp_2.rt,key_resp_2.started,key_resp_2.stopped,image_4.started,image_4.stopped,text.started,text.stopped,H1.started,H1.stopped,H2.started,H2.stopped,H3.started,H3.stopped,H4.started,H4.stopped,key_resp_3.keys,key_resp_3.corr,key_resp_3.rt,key_resp_3.started,key_resp_3.stopped,text_4.started,text_4.stopped,F1.started,F1.stopped,F2.started,F2.stopped,F3.started,F3.stopped,F4.started,F4.stopped,image_7.started,image_7.stopped,text_5.started,text_5.stopped,key_resp_6.keys,key_resp_6.rt,key_resp_6.started,key_resp_6.stopped,image_5.started,image_5.stopped,key_resp_4.keys,key_resp_4.rt,key_resp_4.started,key_resp_4.stopped,key_resp_5.keys,key_resp_5.corr,key_resp_5.started,key_resp_5.stopped,text_3.started,text_3.stopped,H1_2.started,H1_2.stopped,H2_2.started,H2_2.stopped,H3_2.started,H3_2.stopped,H4_2.started,H4_2.stopped,F1_2.started,F1_2.stopped,F2_2.started,F2_2.stopped,F3_2.started,F3_2.stopped,F4_2.started,F4_2.stopped,image_8.started,image_8.stopped,key_resp_5.rt,text_2.started,text_2.stopped,image_6.started,image_6.stopped,participant,session,date,expName,psychopyVersion,frameRate,
,,,,,,,,,,,,,,,,,,,,,,,,,,,,,,,,,10.150546699995175,None,11.11915020016022,None,space,2.9963507999200374,11.11915020016022,None,,,,,,,,,,,,,,,,,,,,,,,,,,,,,,,,,,,,,,,,,,,,,,,,,,,,,,,,,,,,,,,,,,,,,,,,,,,,,11031,001,2024_Jan_11_1108,nback,2021.2.3,59.76096808251478,
0-back,instructions\back-0.png,conditions\0back-p.xlsx,instructions\0-BACK.png,"(15, 8)",practice,0,1,stim\yellow.png,stim\gray.png,stim\gray.png,stim\gray.png,up,0,0,0,0,0,0,0,0,0,0,0,0,,,,,,,,,,,,,,,,,14.190283000003546,None,space,2.172098800074309,14.190283000003546,None,16.526193300029263,21.033635700121522,20.98357620020397,None,21.41816970007494,22.41903330013156,21.41816970007494,22.41903330013156,21.41816970007494,22.41903330013156,21.41816970007494,22.41903330013156,up,1,0.6242581999395043,21.41816970007494,None,21.41816970007494,None,21.41816970007494,21.918370200088248,21.41816970007494,21.918370200088248,21.41816970007494,21.918370200088248,21.41816970007494,21.918370200088248,21.41816970007494,None,,,,,,,,,,,,,,,,,,,,,,,,,,,,,,,,,,,,,,,,,,11031,001,2024_Jan_11_1108,nback,2021.2.3,59.76096808251478,
0-back,instructions\back-0.png,conditions\0back-p.xlsx,instructions\0-BACK.png,"(15, 8)",practice,0,2,stim\gray.png,stim\yellow.png,stim\gray.png,stim\gray.png,left,0,0,0,0,0,0,0,0,0,1,1,1,,,,,,,,,,,,,,,,,,,,,,,,,,,22.90285410010256,23.905300100101158,22.90285410010256,23.905300100101158,22.90285410010256,23.905300100101158,22.90285410010256,23.905300100101158,left,1,0.8837607000023127,22.90285410010256,None,22.90285410010256,None,22.90285410010256,23.404878900153562,22.90285410010256,23.404878900153562,22.90285410010256,23.404878900153562,22.90285410010256,23.404878900153562,22.90285410010256,None,,,,,,,,,,,,,,,,,,,,,,,,,,,,,,,,,,,,,,,,,,11031,001,2024_Jan_11_1108,nback,2021.2.3,59.76096808251478,
0-back,instructions\back-0.png,conditions\0back-p.xlsx,instructions\0-BACK.png,"(15, 8)",practice,0,3,stim\gray.png,stim\gray.png,stim\yellow.png,stim\gray.png,right,0,0,0,0,0,0,0,0,0,2,2,2,,,,,,,,,,,,,,,,,,,,,,,,,,,24.405514599988237,25.407110100146383,24.405514599988237,25.407110100146383,24.405514599988237,25.407110100146383,24.405514599988237,25.407110100146383,right,1,0.5177311999723315,24.405514599988237,None,24.405514599988237,None,24.405514599988237,24.906710600014776,24.405514599988237,24.906710600014776,24.405514599988237,24.906710600014776,24.405514599988237,24.906710600014776,24.405514599988237,None,,,,,,,,,,,,,,,,,,,,,,,,,,,,,,,,,,,,,,,,,,11031,001,2024_Jan_11_1108,nback,2021.2.3,59.76096808251478,
0-back,instructions\back-0.png,conditions\0back-p.xlsx,instructions\0-BACK.png,"(15, 8)",practice,0,4,stim\gray.png,stim\gray.png,stim\gray.png,stim\yellow.png,down,0,0,0,0,0,0,0,0,0,3,3,3,,,,,,,,,,,,,,,,,,,,,,,,,,,25.90754030016251,26.90983090014197,25.90754030016251,26.90983090014197,25.90754030016251,26.90983090014197,25.90754030016251,26.90983090014197,down,1,0.38331490010023117,25.90754030016251,None,25.90754030016251,None,25.90754030016251,26.408843000186607,25.90754030016251,26.408843000186607,25.90754030016251,26.408843000186607,25.90754030016251,26.408843000186607,25.90754030016251,None,,,,,,,,,,,,,,,,,,,,,,,,,,,,,,,,,,,,,,,,,,11031,001,2024_Jan_11_1108,nback,2021.2.3,59.76096808251478,
0-back,instructions\back-0.png,conditions\0back-p.xlsx,instructions\0-BACK.png,"(15, 8)",practice,0,2,stim\gray.png,stim\yellow.png,stim\gray.png,stim\gray.png,left,0,0,0,0,0,0,0,0,0,4,4,4,,,,,,,,,,,,,,,,,,,,,,,,,,,27.409814200131223,28.41180600016378,27.409814200131223,28.41180600016378,27.409814200131223,28.41180600016378,27.409814200131223,28.41180600016378,left,1,0.5605851002037525,27.409814200131223,None,27.409814200131223,None,27.409814200131223,27.91054830001667,27.409814200131223,27.91054830001667,27.409814200131223,27.91054830001667,27.409814200131223,27.91054830001667,27.409814200131223,None,,,,,,,,,,,,,,,,,,,,,,,,,,,,,,,,,,,,,,,,,,11031,001,2024_Jan_11_1108,nback,2021.2.3,59.76096808251478,
0-back,instructions\back-0.png,conditions\0back-p.xlsx,instructions\0-BACK.png,"(15, 8)",practice,0,1,stim\yellow.png,stim\gray.png,stim\gray.png,stim\gray.png,up,0,0,0,0,0,0,0,0,0,5,5,5,,,,,,,,,,,,,,,,,,,,,,,,,,,28.911987400148064,29.914087400073186,28.911987400148064,29.914087400073186,28.911987400148064,29.914087400073186,28.911987400148064,29.914087400073186,up,1,0.4745134999975562,28.911987400148064,None,28.911987400148064,None,28.911987400148064,29.41286510019563,28.911987400148064,29.41286510019563,28.911987400148064,29.41286510019563,28.911987400148064,29.41286510019563,28.911987400148064,None,,,,,,,,,,,,,,,,,,,,,,,,,,,,,,,,,,,,,,,,,,11031,001,2024_Jan_11_1108,nback,2021.2.3,59.76096808251478,
0-back,instructions\back-0.png,conditions\0back-p.xlsx,instructions\0-BACK.png,"(15, 8)",practice,0,4,stim\gray.png,stim\gray.png,stim\gray.png,stim\yellow.png,down,0,0,0,0,0,0,0,0,0,6,6,6,,,,,,,,,,,,,,,,,,,,,,,,,,,30.41411510016769,31.416260600090027,30.41411510016769,31.416260600090027,30.41411510016769,31.416260600090027,30.41411510016769,31.416260600090027,down,1,0.684794900007546,30.41411510016769,None,30.41411510016769,None,30.41411510016769,30.91562100010924,30.41411510016769,30.91562100010924,30.41411510016769,30.91562100010924,30.41411510016769,30.91562100010924,30.41411510016769,None,,,,,,,,,,,,,,,,,,,,,,,,,,,,,,,,,,,,,,,,,,11031,001,2024_Jan_11_1108,nback,2021.2.3,59.76096808251478,
0-back,instructions\back-0.png,conditions\0back-p.xlsx,instructions\0-BACK.png,"(15, 8)",practice,0,3,stim\gray.png,stim\gray.png,stim\yellow.png,stim\gray.png,right,0,0,0,0,0,0,0,0,0,7,7,7,,,,,,,,,,,,,,,,,,,,,,,,,,,31.899705999996513,32.901985000120476,31.899705999996513,32.901985000120476,31.899705999996513,32.901985000120476,31.899705999996513,32.901985000120476,right,1,0.3511196000035852,31.899705999996513,None,31.899705999996513,None,31.899705999996513,32.401090800063685,31.899705999996513,32.401090800063685,31.899705999996513,32.401090800063685,31.899705999996513,32.401090800063685,31.899705999996513,None,,,,,,,,,,,,,,,,,,,,,,,,,,,,,,,,,,,,,,,,,,11031,001,2024_Jan_11_1108,nback,2021.2.3,59.76096808251478,
0-back,instructions\back-0.png,conditions\0back-p.xlsx,instructions\0-BACK.png,"(15, 8)",practice,0,3,stim\gray.png,stim\gray.png,stim\yellow.png,stim\gray.png,right,0,0,0,0,0,0,0,0,0,8,8,8,,,,,,,,,,,,,,,,,,,,,,,,,,,33.40233020018786,34.404260999988765,33.40233020018786,34.404260999988765,33.40233020018786,34.404260999988765,33.40233020018786,34.404260999988765,right,1,0.48050459986552596,33.40233020018786,None,33.40233020018786,None,33.40233020018786,33.90270690014586,33.40233020018786,33.90270690014586,33.40233020018786,33.90270690014586,33.40233020018786,33.90270690014586,33.40233020018786,None,,,,,,,,,,,,,,,,,,,,,,,,,,,,,,,,,,,,,,,,,,11031,001,2024_Jan_11_1108,nback,2021.2.3,59.76096808251478,
0-back,instructions\back-0.png,conditions\0back-p.xlsx,instructions\0-BACK.png,"(15, 8)",practice,0,4,stim\gray.png,stim\gray.png,stim\gray.png,stim\yellow.png,down,0,0,0,0,0,0,0,0,0,9,9,9,,,,,,,,,,,,,,,,,,,,,,,,,,,34.90483420016244,35.90558040002361,34.90483420016244,35.90558040002361,34.90483420016244,35.90558040002361,34.90483420016244,35.90558040002361,down,1,0.6340395000297576,34.90483420016244,None,34.90483420016244,None,34.90483420016244,35.404788200045004,34.90483420016244,35.404788200045004,34.90483420016244,35.404788200045004,34.90483420016244,35.404788200045004,34.90483420016244,None,,,,,,,,,,,,,,,,,,,,,,,,,,,,,,,,,,,,,,,,,,11031,001,2024_Jan_11_1108,nback,2021.2.3,59.76096808251478,
0-back,instructions\back-0.png,conditions\0back-p.xlsx,instructions\0-BACK.png,"(15, 8)",practice,0,1,stim\yellow.png,stim\gray.png,stim\gray.png,stim\gray.png,up,0,0,0,0,0,0,0,0,0,10,10,10,,,,,,,,,,,,,,,,,,,,,,,,,,,36.4065380000975,37.407950200140476,36.4065380000975,37.407950200140476,36.4065380000975,37.407950200140476,36.4065380000975,37.407950200140476,up,1,0.37985599995590746,36.4065380000975,None,36.4065380000975,None,36.4065380000975,36.90800130018033,36.4065380000975,36.90800130018033,36.4065380000975,36.90800130018033,36.4065380000975,36.90800130018033,36.4065380000975,None,,,,,,,,,,,,,,,,,,,,,,,,,,,,,,,,,,,,,,,,,,11031,001,2024_Jan_11_1108,nback,2021.2.3,59.76096808251478,
0-back,instructions\back-0.png,conditions\0back-p.xlsx,instructions\0-BACK.png,"(15, 8)",practice,0,2,stim\gray.png,stim\yellow.png,stim\gray.png,stim\gray.png,left,0,0,0,0,0,0,0,0,0,11,11,11,,,,,,,,,,,,,,,,,,,,,,,,,,,37.908792100148275,38.91014340007678,37.908792100148275,38.91014340007678,37.908792100148275,38.91014340007678,37.908792100148275,38.91014340007678,left,1,0.3255655001848936,37.908792100148275,None,37.908792100148275,None,37.908792100148275,38.409433600027114,37.908792100148275,38.409433600027114,37.908792100148275,38.409433600027114,37.908792100148275,38.409433600027114,37.908792100148275,None,,,,,,,,,,,,,,,,,,,,,,,,,,,,,,,,,,,,,,,,,,11031,001,2024_Jan_11_1108,nback,2021.2.3,59.76096808251478,
0-back,instructions\back-0.png,conditions\0back-p.xlsx,instructions\0-BACK.png,"(15, 8)",practice,0,4,stim\gray.png,stim\gray.png,stim\gray.png,stim\yellow.png,down,0,0,0,0,0,0,0,0,0,12,12,12,,,,,,,,,,,,,,,,,,,,,,,,,,,39.4107164000161,40.41309480019845,39.4107164000161,40.41309480019845,39.4107164000161,40.41309480019845,39.4107164000161,40.41309480019845,down,1,0.7036789997946471,39.4107164000161,None,39.4107164000161,None,39.4107164000161,39.911801000125706,39.4107164000161,39.911801000125706,39.4107164000161,39.911801000125706,39.4107164000161,39.911801000125706,39.4107164000161,None,,,,,,,,,,,,,,,,,,,,,,,,,,,,,,,,,,,,,,,,,,11031,001,2024_Jan_11_1108,nback,2021.2.3,59.76096808251478,
0-back,instructions\back-0.png,conditions\0back-p.xlsx,instructions\0-BACK.png,"(15, 8)",practice,0,3,stim\gray.png,stim\gray.png,stim\yellow.png,stim\gray.png,right,0,0,0,0,0,0,0,0,0,13,13,13,,,,,,,,,,,,,,,,,,,,,,,,,,,40.91337550012395,41.91509130015038,40.91337550012395,41.91509130015038,40.91337550012395,41.91509130015038,40.91337550012395,41.91509130015038,right,1,0.38514350005425513,40.91337550012395,None,40.91337550012395,None,40.91337550012395,41.41363470000215,40.91337550012395,41.41363470000215,40.91337550012395,41.41363470000215,40.91337550012395,41.41363470000215,40.91337550012395,None,,,,,,,,,,,,,,,,,,,,,,,,,,,,,,,,,,,,,,,,,,11031,001,2024_Jan_11_1108,nback,2021.2.3,59.76096808251478,
0-back,instructions\back-0.png,conditions\0back-p.xlsx,instructions\0-BACK.png,"(15, 8)",practice,0,1,stim\yellow.png,stim\gray.png,stim\gray.png,stim\gray.png,up,0,0,0,0,0,0,0,0,0,14,14,14,,,,,,,,,,,,,,,,,,,,,,,,,,,42.398606200004,43.40016860002652,42.398606200004,43.40016860002652,42.398606200004,43.40016860002652,42.398606200004,43.40016860002652,up,1,0.3962215001229197,42.398606200004,None,42.398606200004,None,42.398606200004,42.89954730006866,42.398606200004,42.89954730006866,42.398606200004,42.89954730006866,42.398606200004,42.89954730006866,42.398606200004,None,,,,,,,,,,,,,,,,,,,,,,,,,,,,,,,,,,,,,,,,,,11031,001,2024_Jan_11_1108,nback,2021.2.3,59.76096808251478,
0-back,instructions\back-0.png,conditions\0back-p.xlsx,instructions\0-BACK.png,"(15, 8)",practice,0,2,stim\gray.png,stim\yellow.png,stim\gray.png,stim\gray.png,left,0,0,0,0,0,0,0,0,0,15,15,15,,,,,,,,,,,,,,,,,,,,,,,,,,,43.90149150020443,44.90210050018504,43.90149150020443,44.90210050018504,43.90149150020443,44.90210050018504,43.90149150020443,44.90210050018504,left,1,0.3172832001000643,43.90149150020443,None,43.90149150020443,None,43.90149150020443,44.4016582001932,43.90149150020443,44.4016582001932,43.90149150020443,44.4016582001932,43.90149150020443,44.4016582001932,43.90149150020443,None,,,,,,,,,,,,,,,,,,,,,,,,,,,,,,,,,,,,,,,,,,11031,001,2024_Jan_11_1108,nback,2021.2.3,59.76096808251478,
0-back,instructions\back-0.png,conditions\0back-p.xlsx,instructions\0-BACK.png,"(15, 8)",practice,0,3,stim\gray.png,stim\gray.png,stim\yellow.png,stim\gray.png,right,0,0,0,0,0,0,0,0,0,16,16,16,,,,,,,,,,,,,,,,,,,,,,,,,,,45.40307780005969,46.405285499989986,45.40307780005969,46.405285499989986,45.40307780005969,46.405285499989986,45.40307780005969,46.405285499989986,right,1,0.4395824000239372,45.40307780005969,None,45.40307780005969,None,45.40307780005969,45.90369210019708,45.40307780005969,45.90369210019708,45.40307780005969,45.90369210019708,45.40307780005969,45.90369210019708,45.40307780005969,None,,,,,,,,,,,,,,,,,,,,,,,,,,,,,,,,,,,,,,,,,,11031,001,2024_Jan_11_1108,nback,2021.2.3,59.76096808251478,
0-back,instructions\back-0.png,conditions\0back-p.xlsx,instructions\0-BACK.png,"(15, 8)",practice,0,1,stim\yellow.png,stim\gray.png,stim\gray.png,stim\gray.png,up,0,0,0,0,0,0,0,0,0,17,17,17,,,,,,,,,,,,,,,,,,,,,,,,,,,46.905404300196096,47.907361100194976,46.905404300196096,47.907361100194976,46.905404300196096,47.907361100194976,46.905404300196096,47.907361100194976,up,1,0.5052989998366684,46.905404300196096,None,46.905404300196096,None,46.905404300196096,47.40666169999167,46.905404300196096,47.40666169999167,46.905404300196096,47.40666169999167,46.905404300196096,47.40666169999167,46.905404300196096,None,,,,,,,,,,,,,,,,,,,,,,,,,,,,,,,,,,,,,,,,,,11031,001,2024_Jan_11_1108,nback,2021.2.3,59.76096808251478,
0-back,instructions\back-0.png,conditions\0back-p.xlsx,instructions\0-BACK.png,"(15, 8)",practice,0,4,stim\gray.png,stim\gray.png,stim\gray.png,stim\yellow.png,down,0,0,0,0,0,0,0,0,0,18,18,18,,,,,,,,,,,,,,,,,,,,,,,,,,,48.40742380009033,49.40905450005084,48.40742380009033,49.40905450005084,48.40742380009033,49.40905450005084,48.40742380009033,49.40905450005084,down,1,0.6109903999604285,48.40742380009033,None,48.40742380009033,None,48.40742380009033,48.90859580016695,48.40742380009033,48.90859580016695,48.40742380009033,48.90859580016695,48.40742380009033,48.90859580016695,48.40742380009033,None,,,,,,,,,,,,,,,,,,,,,,,,,,,,,,,,,,,,,,,,,,11031,001,2024_Jan_11_1108,nback,2021.2.3,59.76096808251478,
0-back,instructions\back-0.png,conditions\0back-p.xlsx,instructions\0-BACK.png,"(15, 8)",practice,0,2,stim\gray.png,stim\yellow.png,stim\gray.png,stim\gray.png,left,0,0,0,0,0,0,0,0,0,19,19,19,,,,,,,,,,,,,,,,,,,,,,,,,,,49.910485400119796,50.9120654000435,49.910485400119796,50.9120654000435,49.910485400119796,50.9120654000435,49.910485400119796,50.9120654000435,left,1,0.36378580005839467,49.910485400119796,None,49.910485400119796,None,49.910485400119796,50.41049150004983,49.910485400119796,50.41049150004983,49.910485400119796,50.41049150004983,49.910485400119796,50.41049150004983,49.910485400119796,None,,,,,,,,,,,,,,,,,,,,,,,,,,,,,,,,,,,,,,,,,,11031,001,2024_Jan_11_1108,nback,2021.2.3,59.76096808251478,
0-back,instructions\back-0.png,conditions\0back-p.xlsx,instructions\0-BACK.png,"(15, 8)",,,,,,,,,0,0,0,0,0,0,0,0,,,,,,,,,,,,,,,,,,,,,,,,,,,,,,,,,,,,,,,,,,,,,,,,,,,,,,,,,,,,,,,,,,,,,,,,,,,,,,,,,,,,,,,,,,,,,,,,,11031,001,2024_Jan_11_1108,nback,2021.2.3,59.76096808251478,
1-back,instructions\back-1.png,conditions\1back-p.xlsx,instructions\1-BACK.png,"(25, 15)",practice,1,1,stim\yellow.png,stim\gray.png,stim\gray.png,stim\gray.png,None,0,0,0,0,0,1,1,1,0,0,0,0,,,,,,,,,,,,,,,,,51.563335800077766,None,space,3.631028899922967,51.563335800077766,None,55.3505010001827,59.858461500145495,59.84266100008972,None,60.24212020006962,61.243213300127536,60.24212020006962,61.243213300127536,60.24212020006962,61.243213300127536,60.24212020006962,61.243213300127536,up,0,0.5526723000220954,60.24212020006962,None,60.24212020006962,None,60.24212020006962,60.74268370005302,60.24212020006962,60.74268370005302,60.24212020006962,60.74268370005302,60.24212020006962,60.74268370005302,60.24212020006962,None,,,,,,,,,,,,,,,,,,,,,,,,,,,,,,,,,,,,,,,,,,11031,001,2024_Jan_11_1108,nback,2021.2.3,59.76096808251478,
1-back,instructions\back-1.png,conditions\1back-p.xlsx,instructions\1-BACK.png,"(25, 15)",practice,1,2,stim\gray.png,stim\yellow.png,stim\gray.png,stim\gray.png,up,0,0,0,0,0,1,1,1,0,1,1,1,,,,,,,,,,,,,,,,,,,,,,,,,,,61.72683530021459,62.72960630012676,61.72683530021459,62.72960630012676,61.72683530021459,62.72960630012676,61.72683530021459,62.72960630012676,up,1,1.2681611001025885,61.72683530021459,None,61.72683530021459,None,61.72683530021459,62.228504800004885,61.72683530021459,62.228504800004885,61.72683530021459,62.228504800004885,61.72683530021459,62.228504800004885,61.72683530021459,None,,,,,,,,,,,,,,,,,,,,,,,,,,,,,,,,,,,,,,,,,,11031,001,2024_Jan_11_1108,nback,2021.2.3,59.76096808251478,
1-back,instructions\back-1.png,conditions\1back-p.xlsx,instructions\1-BACK.png,"(25, 15)",practice,1,3,stim\gray.png,stim\gray.png,stim\yellow.png,stim\gray.png,left,0,0,0,0,0,1,1,1,0,2,2,2,,,,,,,,,,,,,,,,,,,,,,,,,,,63.229311500210315,64.23102500010282,63.229311500210315,64.23102500010282,63.229311500210315,64.23102500010282,63.229311500210315,64.23102500010282,None,0,,63.229311500210315,None,63.229311500210315,None,63.229311500210315,63.73069029999897,63.229311500210315,63.73069029999897,63.229311500210315,63.73069029999897,63.229311500210315,63.73069029999897,63.229311500210315,None,,,,,,,,,,,,,,,,,,,,,,,,,,,,,,,,,,,,,,,,,,11031,001,2024_Jan_11_1108,nback,2021.2.3,59.76096808251478,
1-back,instructions\back-1.png,conditions\1back-p.xlsx,instructions\1-BACK.png,"(25, 15)",practice,1,4,stim\gray.png,stim\gray.png,stim\gray.png,stim\yellow.png,right,0,0,0,0,0,1,1,1,0,3,3,3,,,,,,,,,,,,,,,,,,,,,,,,,,,64.73250480019487,65.73327080020681,64.73250480019487,65.73327080020681,64.73250480019487,65.73327080020681,64.73250480019487,65.73327080020681,None,0,,64.73250480019487,None,64.73250480019487,None,64.73250480019487,65.23254640004598,64.73250480019487,65.23254640004598,64.73250480019487,65.23254640004598,64.73250480019487,65.23254640004598,64.73250480019487,None,,,,,,,,,,,,,,,,,,,,,,,,,,,,,,,,,,,,,,,,,,11031,001,2024_Jan_11_1108,nback,2021.2.3,59.76096808251478,
1-back,instructions\back-1.png,conditions\1back-p.xlsx,instructions\1-BACK.png,"(25, 15)",practice,1,2,stim\gray.png,stim\yellow.png,stim\gray.png,stim\gray.png,down,0,0,0,0,0,1,1,1,0,4,4,4,,,,,,,,,,,,,,,,,,,,,,,,,,,66.23417310020886,67.2364847001154,66.23417310020886,67.2364847001154,66.23417310020886,67.2364847001154,66.23417310020886,67.2364847001154,left,0,0.44814560003578663,66.23417310020886,None,66.23417310020886,None,66.23417310020886,66.73459930019453,66.23417310020886,66.73459930019453,66.23417310020886,66.73459930019453,66.23417310020886,66.73459930019453,66.23417310020886,None,,,,,,,,,,,,,,,,,,,,,,,,,,,,,,,,,,,,,,,,,,11031,001,2024_Jan_11_1108,nback,2021.2.3,59.76096808251478,
1-back,instructions\back-1.png,conditions\1back-p.xlsx,instructions\1-BACK.png,"(25, 15)",practice,1,1,stim\yellow.png,stim\gray.png,stim\gray.png,stim\gray.png,left,0,0,0,0,0,1,1,1,0,5,5,5,,,,,,,,,,,,,,,,,,,,,,,,,,,67.73684440017678,68.73773220018484,67.73684440017678,68.73773220018484,67.73684440017678,68.73773220018484,67.73684440017678,68.73773220018484,None,0,,67.73684440017678,None,67.73684440017678,None,67.73684440017678,68.23707890021615,67.73684440017678,68.23707890021615,67.73684440017678,68.23707890021615,67.73684440017678,68.23707890021615,67.73684440017678,None,,,,,,,,,,,,,,,,,,,,,,,,,,,,,,,,,,,,,,,,,,11031,001,2024_Jan_11_1108,nback,2021.2.3,59.76096808251478,
1-back,instructions\back-1.png,conditions\1back-p.xlsx,instructions\1-BACK.png,"(25, 15)",practice,1,4,stim\gray.png,stim\gray.png,stim\gray.png,stim\yellow.png,up,0,0,0,0,0,1,1,1,0,6,6,6,,,,,,,,,,,,,,,,,,,,,,,,,,,69.22165990015492,70.22381680016406,69.22165990015492,70.22381680016406,69.22165990015492,70.22381680016406,69.22165990015492,70.22381680016406,None,0,,69.22165990015492,None,69.22165990015492,None,69.22165990015492,69.72262330004014,69.22165990015492,69.72262330004014,69.22165990015492,69.72262330004014,69.22165990015492,69.72262330004014,69.22165990015492,None,,,,,,,,,,,,,,,,,,,,,,,,,,,,,,,,,,,,,,,,,,11031,001,2024_Jan_11_1108,nback,2021.2.3,59.76096808251478,
1-back,instructions\back-1.png,conditions\1back-p.xlsx,instructions\1-BACK.png,"(25, 15)",practice,1,3,stim\gray.png,stim\gray.png,stim\yellow.png,stim\gray.png,down,0,0,0,0,0,1,1,1,0,7,7,7,,,,,,,,,,,,,,,,,,,,,,,,,,,70.72396720014513,71.7256071001757,70.72396720014513,71.7256071001757,70.72396720014513,71.7256071001757,70.72396720014513,71.7256071001757,None,0,,70.72396720014513,None,70.72396720014513,None,70.72396720014513,71.22469280008227,70.72396720014513,71.22469280008227,70.72396720014513,71.22469280008227,70.72396720014513,71.22469280008227,70.72396720014513,None,,,,,,,,,,,,,,,,,,,,,,,,,,,,,,,,,,,,,,,,,,11031,001,2024_Jan_11_1108,nback,2021.2.3,59.76096808251478,
1-back,instructions\back-1.png,conditions\1back-p.xlsx,instructions\1-BACK.png,"(25, 15)",practice,1,3,stim\gray.png,stim\gray.png,stim\yellow.png,stim\gray.png,right,0,0,0,0,0,1,1,1,0,8,8,8,,,,,,,,,,,,,,,,,,,,,,,,,,,72.22596510010771,73.22765940008685,72.22596510010771,73.22765940008685,72.22596510010771,73.22765940008685,72.22596510010771,73.22765940008685,None,0,,72.22596510010771,None,72.22596510010771,None,72.22596510010771,72.72698560007848,72.22596510010771,72.72698560007848,72.22596510010771,72.72698560007848,72.22596510010771,72.72698560007848,72.22596510010771,None,,,,,,,,,,,,,,,,,,,,,,,,,,,,,,,,,,,,,,,,,,11031,001,2024_Jan_11_1108,nback,2021.2.3,59.76096808251478,
1-back,instructions\back-1.png,conditions\1back-p.xlsx,instructions\1-BACK.png,"(25, 15)",practice,1,4,stim\gray.png,stim\gray.png,stim\gray.png,stim\yellow.png,right,0,0,0,0,0,1,1,1,0,9,9,9,,,,,,,,,,,,,,,,,,,,,,,,,,,73.72835740004666,74.72988100000657,73.72835740004666,74.72988100000657,73.72835740004666,74.72988100000657,73.72835740004666,74.72988100000657,None,0,,73.72835740004666,None,73.72835740004666,None,73.72835740004666,74.22904560016468,73.72835740004666,74.22904560016468,73.72835740004666,74.22904560016468,73.72835740004666,74.22904560016468,73.72835740004666,None,,,,,,,,,,,,,,,,,,,,,,,,,,,,,,,,,,,,,,,,,,11031,001,2024_Jan_11_1108,nback,2021.2.3,59.76096808251478,
1-back,instructions\back-1.png,conditions\1back-p.xlsx,instructions\1-BACK.png,"(25, 15)",practice,1,1,stim\yellow.png,stim\gray.png,stim\gray.png,stim\gray.png,down,0,0,0,0,0,1,1,1,0,10,10,10,,,,,,,,,,,,,,,,,,,,,,,,,,,75.23051220015623,76.23211070010439,75.23051220015623,76.23211070010439,75.23051220015623,76.23211070010439,75.23051220015623,76.23211070010439,None,0,,75.23051220015623,None,75.23051220015623,None,75.23051220015623,75.73118890007026,75.23051220015623,75.73118890007026,75.23051220015623,75.73118890007026,75.23051220015623,75.73118890007026,75.23051220015623,None,,,,,,,,,,,,,,,,,,,,,,,,,,,,,,,,,,,,,,,,,,11031,001,2024_Jan_11_1108,nback,2021.2.3,59.76096808251478,
1-back,instructions\back-1.png,conditions\1back-p.xlsx,instructions\1-BACK.png,"(25, 15)",practice,1,2,stim\gray.png,stim\yellow.png,stim\gray.png,stim\gray.png,up,0,0,0,0,0,1,1,1,0,11,11,11,,,,,,,,,,,,,,,,,,,,,,,,,,,76.73283790005371,77.73446270008571,76.73283790005371,77.73446270008571,76.73283790005371,77.73446270008571,76.73283790005371,77.73446270008571,up,1,0.27744399989023805,76.73283790005371,None,76.73283790005371,None,76.73283790005371,77.23377910000272,76.73283790005371,77.23377910000272,76.73283790005371,77.23377910000272,76.73283790005371,77.23377910000272,76.73283790005371,None,,,,,,,,,,,,,,,,,,,,,,,,,,,,,,,,,,,,,,,,,,11031,001,2024_Jan_11_1108,nback,2021.2.3,59.76096808251478,
1-back,instructions\back-1.png,conditions\1back-p.xlsx,instructions\1-BACK.png,"(25, 15)",practice,1,4,stim\gray.png,stim\gray.png,stim\gray.png,stim\yellow.png,left,0,0,0,0,0,1,1,1,0,12,12,12,,,,,,,,,,,,,,,,,,,,,,,,,,,78.23512020008639,79.23656240012497,78.23512020008639,79.23656240012497,78.23512020008639,79.23656240012497,78.23512020008639,79.23656240012497,left,1,1.0239099999889731,78.23512020008639,None,78.23512020008639,None,78.23512020008639,78.73577260016464,78.23512020008639,78.73577260016464,78.23512020008639,78.73577260016464,78.23512020008639,78.73577260016464,78.23512020008639,None,,,,,,,,,,,,,,,,,,,,,,,,,,,,,,,,,,,,,,,,,,11031,001,2024_Jan_11_1108,nback,2021.2.3,59.76096808251478,
1-back,instructions\back-1.png,conditions\1back-p.xlsx,instructions\1-BACK.png,"(25, 15)",practice,1,3,stim\gray.png,stim\gray.png,stim\yellow.png,stim\gray.png,down,0,0,0,0,0,1,1,1,0,13,13,13,,,,,,,,,,,,,,,,,,,,,,,,,,,79.73743640002795,80.73909930000082,79.73743640002795,80.73909930000082,79.73743640002795,80.73909930000082,79.73743640002795,80.73909930000082,None,0,,79.73743640002795,None,79.73743640002795,None,79.73743640002795,80.23878990020603,79.73743640002795,80.23878990020603,79.73743640002795,80.23878990020603,79.73743640002795,80.23878990020603,79.73743640002795,None,,,,,,,,,,,,,,,,,,,,,,,,,,,,,,,,,,,,,,,,,,11031,001,2024_Jan_11_1108,nback,2021.2.3,59.76096808251478,
1-back,instructions\back-1.png,conditions\1back-p.xlsx,instructions\1-BACK.png,"(25, 15)",practice,1,1,stim\yellow.png,stim\gray.png,stim\gray.png,stim\gray.png,right,0,0,0,0,0,1,1,1,0,14,14,14,,,,,,,,,,,,,,,,,,,,,,,,,,,81.22302660020068,82.22490610019304,81.22302660020068,82.22490610019304,81.22302660020068,82.22490610019304,81.22302660020068,82.22490610019304,right,1,1.4034578998107463,81.22302660020068,None,81.22302660020068,None,81.22302660020068,81.72383270016871,81.22302660020068,81.72383270016871,81.22302660020068,81.72383270016871,81.22302660020068,81.72383270016871,81.22302660020068,None,,,,,,,,,,,,,,,,,,,,,,,,,,,,,,,,,,,,,,,,,,11031,001,2024_Jan_11_1108,nback,2021.2.3,59.76096808251478,
1-back,instructions\back-1.png,conditions\1back-p.xlsx,instructions\1-BACK.png,"(25, 15)",practice,1,2,stim\gray.png,stim\yellow.png,stim\gray.png,stim\gray.png,up,0,0,0,0,0,1,1,1,0,15,15,15,,,,,,,,,,,,,,,,,,,,,,,,,,,82.72492300020531,83.72712699999101,82.72492300020531,83.72712699999101,82.72492300020531,83.72712699999101,82.72492300020531,83.72712699999101,None,0,,82.72492300020531,None,82.72492300020531,None,82.72492300020531,83.225785800023,82.72492300020531,83.225785800023,82.72492300020531,83.225785800023,82.72492300020531,83.225785800023,82.72492300020531,None,,,,,,,,,,,,,,,,,,,,,,,,,,,,,,,,,,,,,,,,,,11031,001,2024_Jan_11_1108,nback,2021.2.3,59.76096808251478,
1-back,instructions\back-1.png,conditions\1back-p.xlsx,instructions\1-BACK.png,"(25, 15)",practice,1,3,stim\gray.png,stim\gray.png,stim\yellow.png,stim\gray.png,left,0,0,0,0,0,1,1,1,0,16,16,16,,,,,,,,,,,,,,,,,,,,,,,,,,,84.22734490013681,85.2287508000154,84.22734490013681,85.2287508000154,84.22734490013681,85.2287508000154,84.22734490013681,85.2287508000154,left,1,0.759358299896121,84.22734490013681,None,84.22734490013681,None,84.22734490013681,84.7281035000924,84.22734490013681,84.7281035000924,84.22734490013681,84.7281035000924,84.22734490013681,84.7281035000924,84.22734490013681,None,,,,,,,,,,,,,,,,,,,,,,,,,,,,,,,,,,,,,,,,,,11031,001,2024_Jan_11_1108,nback,2021.2.3,59.76096808251478,
1-back,instructions\back-1.png,conditions\1back-p.xlsx,instructions\1-BACK.png,"(25, 15)",practice,1,1,stim\yellow.png,stim\gray.png,stim\gray.png,stim\gray.png,right,0,0,0,0,0,1,1,1,0,17,17,17,,,,,,,,,,,,,,,,,,,,,,,,,,,85.72959850006737,86.7314781001769,85.72959850006737,86.7314781001769,85.72959850006737,86.7314781001769,85.72959850006737,86.7314781001769,None,0,,85.72959850006737,None,85.72959850006737,None,85.72959850006737,86.2306763001252,85.72959850006737,86.2306763001252,85.72959850006737,86.2306763001252,85.72959850006737,86.2306763001252,85.72959850006737,None,,,,,,,,,,,,,,,,,,,,,,,,,,,,,,,,,,,,,,,,,,11031,001,2024_Jan_11_1108,nback,2021.2.3,59.76096808251478,
1-back,instructions\back-1.png,conditions\1back-p.xlsx,instructions\1-BACK.png,"(25, 15)",practice,1,4,stim\gray.png,stim\gray.png,stim\gray.png,stim\yellow.png,up,0,0,0,0,0,1,1,1,0,18,18,18,,,,,,,,,,,,,,,,,,,,,,,,,,,87.23188990005292,88.23453430016525,87.23188990005292,88.23453430016525,87.23188990005292,88.23453430016525,87.23188990005292,88.23453430016525,up,1,0.7069258000701666,87.23188990005292,None,87.23188990005292,None,87.23188990005292,87.73298780014738,87.23188990005292,87.73298780014738,87.23188990005292,87.73298780014738,87.23188990005292,87.73298780014738,87.23188990005292,None,,,,,,,,,,,,,,,,,,,,,,,,,,,,,,,,,,,,,,,,,,11031,001,2024_Jan_11_1108,nback,2021.2.3,59.76096808251478,
1-back,instructions\back-1.png,conditions\1back-p.xlsx,instructions\1-BACK.png,"(25, 15)",practice,1,2,stim\gray.png,stim\yellow.png,stim\gray.png,stim\gray.png,down,0,0,0,0,0,1,1,1,0,19,19,19,,,,,,,,,,,,,,,,,,,,,,,,,,,88.73379440000281,89.73616600013338,88.73379440000281,89.73616600013338,88.73379440000281,89.73616600013338,88.73379440000281,89.73616600013338,down,1,0.9890209999866784,88.73379440000281,None,88.73379440000281,None,88.73379440000281,89.23478990001604,88.73379440000281,89.23478990001604,88.73379440000281,89.23478990001604,88.73379440000281,89.23478990001604,88.73379440000281,None,,,,,,,,,,,,,,,,,,,,,,,,,,,,,,,,,,,,,,,,,,11031,001,2024_Jan_11_1108,nback,2021.2.3,59.76096808251478,
1-back,instructions\back-1.png,conditions\1back-p.xlsx,instructions\1-BACK.png,"(25, 15)",,,,,,,,,0,0,0,0,0,1,1,1,,,,,,,,,,,,,,,,,,,,,,,,,,,,,,,,,,,,,,,,,,,,,,,,,,,,,,,,,,,,,,,,,,,,,,,,,,,,,,,,,,,,,,,,,,,,,,,,,11031,001,2024_Jan_11_1108,nback,2021.2.3,59.76096808251478,
2-back,instructions\back-2.png,conditions\2back-p.xlsx,instructions\2-BACK.png,"(25, 15)",practice,2,1,stim\yellow.png,stim\gray.png,stim\gray.png,stim\gray.png,None,0,0,0,0,0,2,2,2,0,0,0,0,,,,,,,,,,,,,,,,,90.53716010018252,None,space,9.825493299867958,90.53716010018252,None,100.55074129998684,105.05865980009548,105.00885850004852,None,105.40940750017762,106.41075900010765,105.40940750017762,106.41075900010765,105.40940750017762,106.41075900010765,105.40940750017762,106.41075900010765,None,1,,105.40940750017762,None,105.40940750017762,None,105.40940750017762,105.90945860021748,105.40940750017762,105.90945860021748,105.40940750017762,105.90945860021748,105.40940750017762,105.90945860021748,105.40940750017762,None,,,,,,,,,,,,,,,,,,,,,,,,,,,,,,,,,,,,,,,,,,11031,001,2024_Jan_11_1108,nback,2021.2.3,59.76096808251478,
2-back,instructions\back-2.png,conditions\2back-p.xlsx,instructions\2-BACK.png,"(25, 15)",practice,2,2,stim\gray.png,stim\yellow.png,stim\gray.png,stim\gray.png,None,0,0,0,0,0,2,2,2,0,1,1,1,,,,,,,,,,,,,,,,,,,,,,,,,,,106.89410070003942,107.89631110010669,106.89410070003942,107.89631110010669,106.89410070003942,107.89631110010669,106.89410070003942,107.89631110010669,None,1,,106.89410070003942,None,106.89410070003942,None,106.89410070003942,107.39477610005997,106.89410070003942,107.39477610005997,106.89410070003942,107.39477610005997,106.89410070003942,107.39477610005997,106.89410070003942,None,,,,,,,,,,,,,,,,,,,,,,,,,,,,,,,,,,,,,,,,,,11031,001,2024_Jan_11_1108,nback,2021.2.3,59.76096808251478,
2-back,instructions\back-2.png,conditions\2back-p.xlsx,instructions\2-BACK.png,"(25, 15)",practice,2,3,stim\gray.png,stim\gray.png,stim\yellow.png,stim\gray.png,up,0,0,0,0,0,2,2,2,0,2,2,2,,,,,,,,,,,,,,,,,,,,,,,,,,,108.39631890016608,109.39809940010309,108.39631890016608,109.39809940010309,108.39631890016608,109.39809940010309,108.39631890016608,109.39809940010309,up,1,0.8622673000209033,108.39631890016608,None,108.39631890016608,None,108.39631890016608,108.89765739999712,108.39631890016608,108.89765739999712,108.39631890016608,108.89765739999712,108.39631890016608,108.89765739999712,108.39631890016608,None,,,,,,,,,,,,,,,,,,,,,,,,,,,,,,,,,,,,,,,,,,11031,001,2024_Jan_11_1108,nback,2021.2.3,59.76096808251478,
2-back,instructions\back-2.png,conditions\2back-p.xlsx,instructions\2-BACK.png,"(25, 15)",practice,2,4,stim\gray.png,stim\gray.png,stim\gray.png,stim\yellow.png,left,0,0,0,0,0,2,2,2,0,3,3,3,,,,,,,,,,,,,,,,,,,,,,,,,,,109.89869590010494,110.90019450010732,109.89869590010494,110.90019450010732,109.89869590010494,110.90019450010732,109.89869590010494,110.90019450010732,left,1,0.1038115001283586,109.89869590010494,None,109.89869590010494,None,109.89869590010494,110.39951930008829,109.89869590010494,110.39951930008829,109.89869590010494,110.39951930008829,109.89869590010494,110.39951930008829,109.89869590010494,None,,,,,,,,,,,,,,,,,,,,,,,,,,,,,,,,,,,,,,,,,,11031,001,2024_Jan_11_1108,nback,2021.2.3,59.76096808251478,
2-back,instructions\back-2.png,conditions\2back-p.xlsx,instructions\2-BACK.png,"(25, 15)",practice,2,2,stim\gray.png,stim\yellow.png,stim\gray.png,stim\gray.png,right,0,0,0,0,0,2,2,2,0,4,4,4,,,,,,,,,,,,,,,,,,,,,,,,,,,111.40092560020275,112.40307640004903,111.40092560020275,112.40307640004903,111.40092560020275,112.40307640004903,111.40092560020275,112.40307640004903,left,0,0.3144654999487102,111.40092560020275,None,111.40092560020275,None,111.40092560020275,111.90300240018405,111.40092560020275,111.90300240018405,111.40092560020275,111.90300240018405,111.40092560020275,111.90300240018405,111.40092560020275,None,,,,,,,,,,,,,,,,,,,,,,,,,,,,,,,,,,,,,,,,,,11031,001,2024_Jan_11_1108,nback,2021.2.3,59.76096808251478,
2-back,instructions\back-2.png,conditions\2back-p.xlsx,instructions\2-BACK.png,"(25, 15)",practice,2,1,stim\yellow.png,stim\gray.png,stim\gray.png,stim\gray.png,down,0,0,0,0,0,2,2,2,0,5,5,5,,,,,,,,,,,,,,,,,,,,,,,,,,,112.90317180007696,113.90482500009239,112.90317180007696,113.90482500009239,112.90317180007696,113.90482500009239,112.90317180007696,113.90482500009239,None,0,,112.90317180007696,None,112.90317180007696,None,112.90317180007696,113.40399270015769,112.90317180007696,113.40399270015769,112.90317180007696,113.40399270015769,112.90317180007696,113.40399270015769,112.90317180007696,None,,,,,,,,,,,,,,,,,,,,,,,,,,,,,,,,,,,,,,,,,,11031,001,2024_Jan_11_1108,nback,2021.2.3,59.76096808251478,
2-back,instructions\back-2.png,conditions\2back-p.xlsx,instructions\2-BACK.png,"(25, 15)",practice,2,4,stim\gray.png,stim\gray.png,stim\gray.png,stim\yellow.png,left,0,0,0,0,0,2,2,2,0,6,6,6,,,,,,,,,,,,,,,,,,,,,,,,,,,114.38870920008048,115.39013820001855,114.38870920008048,115.39013820001855,114.38870920008048,115.39013820001855,114.38870920008048,115.39013820001855,down,0,0.37416840018704534,114.38870920008048,None,114.38870920008048,None,114.38870920008048,114.89032220002264,114.38870920008048,114.89032220002264,114.38870920008048,114.89032220002264,114.38870920008048,114.89032220002264,114.38870920008048,None,,,,,,,,,,,,,,,,,,,,,,,,,,,,,,,,,,,,,,,,,,11031,001,2024_Jan_11_1108,nback,2021.2.3,59.76096808251478,
2-back,instructions\back-2.png,conditions\2back-p.xlsx,instructions\2-BACK.png,"(25, 15)",practice,2,3,stim\gray.png,stim\gray.png,stim\yellow.png,stim\gray.png,up,0,0,0,0,0,2,2,2,0,7,7,7,,,,,,,,,,,,,,,,,,,,,,,,,,,115.89138330006972,116.8926620001439,115.89138330006972,116.8926620001439,115.89138330006972,116.8926620001439,115.89138330006972,116.8926620001439,None,0,,115.89138330006972,None,115.89138330006972,None,115.89138330006972,116.3924304000102,115.89138330006972,116.3924304000102,115.89138330006972,116.3924304000102,115.89138330006972,116.3924304000102,115.89138330006972,None,,,,,,,,,,,,,,,,,,,,,,,,,,,,,,,,,,,,,,,,,,11031,001,2024_Jan_11_1108,nback,2021.2.3,59.76096808251478,
2-back,instructions\back-2.png,conditions\2back-p.xlsx,instructions\2-BACK.png,"(25, 15)",practice,2,3,stim\gray.png,stim\gray.png,stim\yellow.png,stim\gray.png,down,0,0,0,0,0,2,2,2,0,8,8,8,,,,,,,,,,,,,,,,,,,,,,,,,,,117.39321560016833,118.39499710011296,117.39321560016833,118.39499710011296,117.39321560016833,118.39499710011296,117.39321560016833,118.39499710011296,None,0,,117.39321560016833,None,117.39321560016833,None,117.39321560016833,117.89447530009784,117.39321560016833,117.89447530009784,117.39321560016833,117.89447530009784,117.39321560016833,117.89447530009784,117.39321560016833,None,,,,,,,,,,,,,,,,,,,,,,,,,,,,,,,,,,,,,,,,,,11031,001,2024_Jan_11_1108,nback,2021.2.3,59.76096808251478,
2-back,instructions\back-2.png,conditions\2back-p.xlsx,instructions\2-BACK.png,"(25, 15)",practice,2,4,stim\gray.png,stim\gray.png,stim\gray.png,stim\yellow.png,right,0,0,0,0,0,2,2,2,0,9,9,9,,,,,,,,,,,,,,,,,,,,,,,,,,,118.89551579998806,119.896782200085,118.89551579998806,119.896782200085,118.89551579998806,119.896782200085,118.89551579998806,119.896782200085,None,0,,118.89551579998806,None,118.89551579998806,None,118.89551579998806,119.3960378000047,118.89551579998806,119.3960378000047,118.89551579998806,119.3960378000047,118.89551579998806,119.3960378000047,118.89551579998806,None,,,,,,,,,,,,,,,,,,,,,,,,,,,,,,,,,,,,,,,,,,11031,001,2024_Jan_11_1108,nback,2021.2.3,59.76096808251478,
2-back,instructions\back-2.png,conditions\2back-p.xlsx,instructions\2-BACK.png,"(25, 15)",practice,2,1,stim\yellow.png,stim\gray.png,stim\gray.png,stim\gray.png,right,0,0,0,0,0,2,2,2,0,10,10,10,,,,,,,,,,,,,,,,,,,,,,,,,,,120.3975918001961,121.39909430011176,120.3975918001961,121.39909430011176,120.3975918001961,121.39909430011176,120.3975918001961,121.39909430011176,None,0,,120.3975918001961,None,120.3975918001961,None,120.3975918001961,120.8990217000246,120.3975918001961,120.8990217000246,120.3975918001961,120.8990217000246,120.3975918001961,120.8990217000246,120.3975918001961,None,,,,,,,,,,,,,,,,,,,,,,,,,,,,,,,,,,,,,,,,,,11031,001,2024_Jan_11_1108,nback,2021.2.3,59.76096808251478,
2-back,instructions\back-2.png,conditions\2back-p.xlsx,instructions\2-BACK.png,"(25, 15)",practice,2,2,stim\gray.png,stim\yellow.png,stim\gray.png,stim\gray.png,down,0,0,0,0,0,2,2,2,0,11,11,11,,,,,,,,,,,,,,,,,,,,,,,,,,,121.89980860007927,122.90207509999163,121.89980860007927,122.90207509999163,121.89980860007927,122.90207509999163,121.89980860007927,122.90207509999163,left,0,0.878705200040713,121.89980860007927,None,121.89980860007927,None,121.89980860007927,122.40107020013966,121.89980860007927,122.40107020013966,121.89980860007927,122.40107020013966,121.89980860007927,122.40107020013966,121.89980860007927,None,,,,,,,,,,,,,,,,,,,,,,,,,,,,,,,,,,,,,,,,,,11031,001,2024_Jan_11_1108,nback,2021.2.3,59.76096808251478,
2-back,instructions\back-2.png,conditions\2back-p.xlsx,instructions\2-BACK.png,"(25, 15)",practice,2,4,stim\gray.png,stim\gray.png,stim\gray.png,stim\yellow.png,up,0,0,0,0,0,2,2,2,0,12,12,12,,,,,,,,,,,,,,,,,,,,,,,,,,,123.4018287002109,124.40420330013148,123.4018287002109,124.40420330013148,123.4018287002109,124.40420330013148,123.4018287002109,124.40420330013148,up,1,1.0086121000349522,123.4018287002109,None,123.4018287002109,None,123.4018287002109,123.9027960000094,123.4018287002109,123.9027960000094,123.4018287002109,123.9027960000094,123.4018287002109,123.9027960000094,123.4018287002109,None,,,,,,,,,,,,,,,,,,,,,,,,,,,,,,,,,,,,,,,,,,11031,001,2024_Jan_11_1108,nback,2021.2.3,59.76096808251478,
2-back,instructions\back-2.png,conditions\2back-p.xlsx,instructions\2-BACK.png,"(25, 15)",practice,2,3,stim\gray.png,stim\gray.png,stim\yellow.png,stim\gray.png,left,0,0,0,0,0,2,2,2,0,13,13,13,,,,,,,,,,,,,,,,,,,,,,,,,,,124.8873281001579,125.88952470012009,124.8873281001579,125.88952470012009,124.8873281001579,125.88952470012009,124.8873281001579,125.88952470012009,None,0,,124.8873281001579,None,124.8873281001579,None,124.8873281001579,125.3888176002074,124.8873281001579,125.3888176002074,124.8873281001579,125.3888176002074,124.8873281001579,125.3888176002074,124.8873281001579,None,,,,,,,,,,,,,,,,,,,,,,,,,,,,,,,,,,,,,,,,,,11031,001,2024_Jan_11_1108,nback,2021.2.3,59.76096808251478,
2-back,instructions\back-2.png,conditions\2back-p.xlsx,instructions\2-BACK.png,"(25, 15)",practice,2,1,stim\yellow.png,stim\gray.png,stim\gray.png,stim\gray.png,down,0,0,0,0,0,2,2,2,0,14,14,14,,,,,,,,,,,,,,,,,,,,,,,,,,,126.38997240015306,127.39128160011023,126.38997240015306,127.39128160011023,126.38997240015306,127.39128160011023,126.38997240015306,127.39128160011023,left,0,0.09264160017482936,126.38997240015306,None,126.38997240015306,None,126.38997240015306,126.89124760008417,126.38997240015306,126.89124760008417,126.38997240015306,126.89124760008417,126.38997240015306,126.89124760008417,126.38997240015306,None,,,,,,,,,,,,,,,,,,,,,,,,,,,,,,,,,,,,,,,,,,11031,001,2024_Jan_11_1108,nback,2021.2.3,59.76096808251478,
2-back,instructions\back-2.png,conditions\2back-p.xlsx,instructions\2-BACK.png,"(25, 15)",practice,2,2,stim\gray.png,stim\yellow.png,stim\gray.png,stim\gray.png,right,0,0,0,0,0,2,2,2,0,15,15,15,,,,,,,,,,,,,,,,,,,,,,,,,,,127.89250630000606,128.8937460000161,127.89250630000606,128.8937460000161,127.89250630000606,128.8937460000161,127.89250630000606,128.8937460000161,None,0,,127.89250630000606,None,127.89250630000606,None,127.89250630000606,128.39286880008876,127.89250630000606,128.39286880008876,127.89250630000606,128.39286880008876,127.89250630000606,128.39286880008876,127.89250630000606,None,,,,,,,,,,,,,,,,,,,,,,,,,,,,,,,,,,,,,,,,,,11031,001,2024_Jan_11_1108,nback,2021.2.3,59.76096808251478,
2-back,instructions\back-2.png,conditions\2back-p.xlsx,instructions\2-BACK.png,"(25, 15)",practice,2,3,stim\gray.png,stim\gray.png,stim\yellow.png,stim\gray.png,up,0,0,0,0,0,2,2,2,0,16,16,16,,,,,,,,,,,,,,,,,,,,,,,,,,,129.39415240008384,130.39599500014447,129.39415240008384,130.39599500014447,129.39415240008384,130.39599500014447,129.39415240008384,130.39599500014447,left,0,1.0166813998948783,129.39415240008384,None,129.39415240008384,None,129.39415240008384,129.89557230006903,129.39415240008384,129.89557230006903,129.39415240008384,129.89557230006903,129.39415240008384,129.89557230006903,129.39415240008384,None,,,,,,,,,,,,,,,,,,,,,,,,,,,,,,,,,,,,,,,,,,11031,001,2024_Jan_11_1108,nback,2021.2.3,59.76096808251478,
2-back,instructions\back-2.png,conditions\2back-p.xlsx,instructions\2-BACK.png,"(25, 15)",practice,2,1,stim\yellow.png,stim\gray.png,stim\gray.png,stim\gray.png,left,0,0,0,0,0,2,2,2,0,17,17,17,,,,,,,,,,,,,,,,,,,,,,,,,,,130.8967832000926,131.8980445000343,130.8967832000926,131.8980445000343,130.8967832000926,131.8980445000343,130.8967832000926,131.8980445000343,None,0,,130.8967832000926,None,130.8967832000926,None,130.8967832000926,131.39714330015704,130.8967832000926,131.39714330015704,130.8967832000926,131.39714330015704,130.8967832000926,131.39714330015704,130.8967832000926,None,,,,,,,,,,,,,,,,,,,,,,,,,,,,,,,,,,,,,,,,,,11031,001,2024_Jan_11_1108,nback,2021.2.3,59.76096808251478,
2-back,instructions\back-2.png,conditions\2back-p.xlsx,instructions\2-BACK.png,"(25, 15)",practice,2,4,stim\gray.png,stim\gray.png,stim\gray.png,stim\yellow.png,right,0,0,0,0,0,2,2,2,0,18,18,18,,,,,,,,,,,,,,,,,,,,,,,,,,,132.3992225001566,133.40080350008793,132.3992225001566,133.40080350008793,132.3992225001566,133.40080350008793,132.3992225001566,133.40080350008793,right,1,0.10724769998341799,132.3992225001566,None,132.3992225001566,None,132.3992225001566,132.90013480000198,132.3992225001566,132.90013480000198,132.3992225001566,132.90013480000198,132.3992225001566,132.90013480000198,132.3992225001566,None,,,,,,,,,,,,,,,,,,,,,,,,,,,,,,,,,,,,,,,,,,11031,001,2024_Jan_11_1108,nback,2021.2.3,59.76096808251478,
2-back,instructions\back-2.png,conditions\2back-p.xlsx,instructions\2-BACK.png,"(25, 15)",practice,2,2,stim\gray.png,stim\yellow.png,stim\gray.png,stim\gray.png,up,0,0,0,0,0,2,2,2,0,19,19,19,,,,,,,,,,,,,,,,,,,,,,,,,,,133.90099290013313,134.90250030020252,133.90099290013313,134.90250030020252,133.90099290013313,134.90250030020252,133.90099290013313,134.90250030020252,None,0,,133.90099290013313,None,133.90099290013313,None,133.90099290013313,134.40145500004292,133.90099290013313,134.40145500004292,133.90099290013313,134.40145500004292,133.90099290013313,134.40145500004292,133.90099290013313,None,,,,,,,,,,,,,,,,,,,,,,,,,,,,,,,,,,,,,,,,,,11031,001,2024_Jan_11_1108,nback,2021.2.3,59.76096808251478,
2-back,instructions\back-2.png,conditions\2back-p.xlsx,instructions\2-BACK.png,"(25, 15)",,,,,,,,,0,0,0,0,0,2,2,2,,,,,,,,,,,,,,,,,,,,,,,,,,,,,,,,,,,,,,,,,,,,,,,,,,,,,,,,,,,,,,,,,,,,,,,,,,,,,,,,,,,,,,,,,,,,,,,,,11031,001,2024_Jan_11_1108,nback,2021.2.3,59.76096808251478,
,,,,,,,,,,,,,0,0,0,0,,,,,,,,,,,,,,,,,,,,,,,,,,,,,,,,,,,,,,,,,,,,,,,,,,,,,,,,,,,,135.4041820000857,None,s,34.60633530002087,135.4041820000857,None,,,,,,,,,,,,,,,,,,,,,,,,,,,,,,,,,,,,11031,001,2024_Jan_11_1108,nback,2021.2.3,59.76096808251478,
0-back,instructions\back-0.png,conditions\0back-p.xlsx,instructions\0-BACK.png,"(15, 8)",practice,0,1,stim\yellow.png,stim\gray.png,stim\gray.png,stim\gray.png,up,1,0,1,0,0,0,0,0,0,0,0,0,,,,,,,,,,,,,,,,,170.1544925000053,None,space,7.6003335998393595,170.1544925000053,None,177.96610520011745,182.47390940017067,182.39114459999837,None,182.80786729999818,183.8087693999987,182.80786729999818,183.8087693999987,182.80786729999818,183.8087693999987,182.80786729999818,183.8087693999987,up,1,0.4266642997972667,182.80786729999818,None,182.80786729999818,None,182.80786729999818,183.30808009998873,182.80786729999818,183.30808009998873,182.80786729999818,183.30808009998873,182.80786729999818,183.30808009998873,182.80786729999818,None,,,,,,,,,,,,,,,,,,,,,,,,,,,,,,,,,,,,,,,,,,11031,001,2024_Jan_11_1108,nback,2021.2.3,59.76096808251478,
0-back,instructions\back-0.png,conditions\0back-p.xlsx,instructions\0-BACK.png,"(15, 8)",practice,0,2,stim\gray.png,stim\yellow.png,stim\gray.png,stim\gray.png,left,1,0,1,0,0,0,0,0,0,1,1,1,,,,,,,,,,,,,,,,,,,,,,,,,,,184.29200800019316,185.29432650003582,184.29200800019316,185.29432650003582,184.29200800019316,185.29432650003582,184.29200800019316,185.29432650003582,left,1,0.39907769998535514,184.29200800019316,None,184.29200800019316,None,184.29200800019316,184.79304350004531,184.29200800019316,184.79304350004531,184.29200800019316,184.79304350004531,184.29200800019316,184.79304350004531,184.29200800019316,None,,,,,,,,,,,,,,,,,,,,,,,,,,,,,,,,,,,,,,,,,,11031,001,2024_Jan_11_1108,nback,2021.2.3,59.76096808251478,
0-back,instructions\back-0.png,conditions\0back-p.xlsx,instructions\0-BACK.png,"(15, 8)",practice,0,3,stim\gray.png,stim\gray.png,stim\yellow.png,stim\gray.png,right,1,0,1,0,0,0,0,0,0,2,2,2,,,,,,,,,,,,,,,,,,,,,,,,,,,185.79462890001014,186.79631980019622,185.79462890001014,186.79631980019622,185.79462890001014,186.79631980019622,185.79462890001014,186.79631980019622,right,1,0.36012089997529984,185.79462890001014,None,185.79462890001014,None,185.79462890001014,186.29597100010142,185.79462890001014,186.29597100010142,185.79462890001014,186.29597100010142,185.79462890001014,186.29597100010142,185.79462890001014,None,,,,,,,,,,,,,,,,,,,,,,,,,,,,,,,,,,,,,,,,,,11031,001,2024_Jan_11_1108,nback,2021.2.3,59.76096808251478,
0-back,instructions\back-0.png,conditions\0back-p.xlsx,instructions\0-BACK.png,"(15, 8)",practice,0,4,stim\gray.png,stim\gray.png,stim\gray.png,stim\yellow.png,down,1,0,1,0,0,0,0,0,0,3,3,3,,,,,,,,,,,,,,,,,,,,,,,,,,,187.29698230000213,188.29888800019398,187.29698230000213,188.29888800019398,187.29698230000213,188.29888800019398,187.29698230000213,188.29888800019398,down,1,0.28175970003940165,187.29698230000213,None,187.29698230000213,None,187.29698230000213,187.79741460015066,187.29698230000213,187.79741460015066,187.29698230000213,187.79741460015066,187.29698230000213,187.79741460015066,187.29698230000213,None,,,,,,,,,,,,,,,,,,,,,,,,,,,,,,,,,,,,,,,,,,11031,001,2024_Jan_11_1108,nback,2021.2.3,59.76096808251478,
0-back,instructions\back-0.png,conditions\0back-p.xlsx,instructions\0-BACK.png,"(15, 8)",practice,0,2,stim\gray.png,stim\yellow.png,stim\gray.png,stim\gray.png,left,1,0,1,0,0,0,0,0,0,4,4,4,,,,,,,,,,,,,,,,,,,,,,,,,,,188.79893040005118,189.8013195001986,188.79893040005118,189.8013195001986,188.79893040005118,189.8013195001986,188.79893040005118,189.8013195001986,left,1,0.387622999958694,188.79893040005118,None,188.79893040005118,None,188.79893040005118,189.29991950001568,188.79893040005118,189.29991950001568,188.79893040005118,189.29991950001568,188.79893040005118,189.29991950001568,188.79893040005118,None,,,,,,,,,,,,,,,,,,,,,,,,,,,,,,,,,,,,,,,,,,11031,001,2024_Jan_11_1108,nback,2021.2.3,59.76096808251478,
0-back,instructions\back-0.png,conditions\0back-p.xlsx,instructions\0-BACK.png,"(15, 8)",practice,0,1,stim\yellow.png,stim\gray.png,stim\gray.png,stim\gray.png,up,1,0,1,0,0,0,0,0,0,5,5,5,,,,,,,,,,,,,,,,,,,,,,,,,,,190.30119750020094,191.30295120016672,190.30119750020094,191.30295120016672,190.30119750020094,191.30295120016672,190.30119750020094,191.30295120016672,up,1,0.365610099863261,190.30119750020094,None,190.30119750020094,None,190.30119750020094,190.80320800002664,190.30119750020094,190.80320800002664,190.30119750020094,190.80320800002664,190.30119750020094,190.80320800002664,190.30119750020094,None,,,,,,,,,,,,,,,,,,,,,,,,,,,,,,,,,,,,,,,,,,11031,001,2024_Jan_11_1108,nback,2021.2.3,59.76096808251478,
0-back,instructions\back-0.png,conditions\0back-p.xlsx,instructions\0-BACK.png,"(15, 8)",practice,0,4,stim\gray.png,stim\gray.png,stim\gray.png,stim\yellow.png,down,1,0,1,0,0,0,0,0,0,6,6,6,,,,,,,,,,,,,,,,,,,,,,,,,,,191.7867190001998,192.78827950009145,191.7867190001998,192.78827950009145,191.7867190001998,192.78827950009145,191.7867190001998,192.78827950009145,down,1,0.7280568000860512,191.7867190001998,None,191.7867190001998,None,191.7867190001998,192.28749320004135,191.7867190001998,192.28749320004135,191.7867190001998,192.28749320004135,191.7867190001998,192.28749320004135,191.7867190001998,None,,,,,,,,,,,,,,,,,,,,,,,,,,,,,,,,,,,,,,,,,,11031,001,2024_Jan_11_1108,nback,2021.2.3,59.76096808251478,
0-back,instructions\back-0.png,conditions\0back-p.xlsx,instructions\0-BACK.png,"(15, 8)",practice,0,3,stim\gray.png,stim\gray.png,stim\yellow.png,stim\gray.png,right,1,0,1,0,0,0,0,0,0,7,7,7,,,,,,,,,,,,,,,,,,,,,,,,,,,193.28977260016836,194.2904340000823,193.28977260016836,194.2904340000823,193.28977260016836,194.2904340000823,193.28977260016836,194.2904340000823,right,1,0.48143810010515153,193.28977260016836,None,193.28977260016836,None,193.28977260016836,193.79018150013871,193.28977260016836,193.79018150013871,193.28977260016836,193.79018150013871,193.28977260016836,193.79018150013871,193.28977260016836,None,,,,,,,,,,,,,,,,,,,,,,,,,,,,,,,,,,,,,,,,,,11031,001,2024_Jan_11_1108,nback,2021.2.3,59.76096808251478,
0-back,instructions\back-0.png,conditions\0back-p.xlsx,instructions\0-BACK.png,"(15, 8)",practice,0,3,stim\gray.png,stim\gray.png,stim\yellow.png,stim\gray.png,right,1,0,1,0,0,0,0,0,0,8,8,8,,,,,,,,,,,,,,,,,,,,,,,,,,,194.7911854002159,195.79268180020154,194.7911854002159,195.79268180020154,194.7911854002159,195.79268180020154,194.7911854002159,195.79268180020154,right,1,0.48440600000321865,194.7911854002159,None,194.7911854002159,None,194.7911854002159,195.29209800017998,194.7911854002159,195.29209800017998,194.7911854002159,195.29209800017998,194.7911854002159,195.29209800017998,194.7911854002159,None,,,,,,,,,,,,,,,,,,,,,,,,,,,,,,,,,,,,,,,,,,11031,001,2024_Jan_11_1108,nback,2021.2.3,59.76096808251478,
0-back,instructions\back-0.png,conditions\0back-p.xlsx,instructions\0-BACK.png,"(15, 8)",practice,0,4,stim\gray.png,stim\gray.png,stim\gray.png,stim\yellow.png,down,1,0,1,0,0,0,0,0,0,9,9,9,,,,,,,,,,,,,,,,,,,,,,,,,,,196.293465499999,197.29607360018417,196.293465499999,197.29607360018417,196.293465499999,197.29607360018417,196.293465499999,197.29607360018417,down,1,0.7650710998568684,196.293465499999,None,196.293465499999,None,196.293465499999,196.7942702001892,196.293465499999,196.7942702001892,196.293465499999,196.7942702001892,196.293465499999,196.7942702001892,196.293465499999,None,,,,,,,,,,,,,,,,,,,,,,,,,,,,,,,,,,,,,,,,,,11031,001,2024_Jan_11_1108,nback,2021.2.3,59.76096808251478,
0-back,instructions\back-0.png,conditions\0back-p.xlsx,instructions\0-BACK.png,"(15, 8)",practice,0,1,stim\yellow.png,stim\gray.png,stim\gray.png,stim\gray.png,up,1,0,1,0,0,0,0,0,0,10,10,10,,,,,,,,,,,,,,,,,,,,,,,,,,,197.7955920000095,198.79780560010113,197.7955920000095,198.79780560010113,197.7955920000095,198.79780560010113,197.7955920000095,198.79780560010113,up,1,0.5269478999543935,197.7955920000095,None,197.7955920000095,None,197.7955920000095,198.29639450018294,197.7955920000095,198.29639450018294,197.7955920000095,198.29639450018294,197.7955920000095,198.29639450018294,197.7955920000095,None,,,,,,,,,,,,,,,,,,,,,,,,,,,,,,,,,,,,,,,,,,11031,001,2024_Jan_11_1108,nback,2021.2.3,59.76096808251478,
0-back,instructions\back-0.png,conditions\0back-p.xlsx,instructions\0-BACK.png,"(15, 8)",practice,0,2,stim\gray.png,stim\yellow.png,stim\gray.png,stim\gray.png,left,1,0,1,0,0,0,0,0,0,11,11,11,,,,,,,,,,,,,,,,,,,,,,,,,,,199.29781130002812,200.3004157000687,199.29781130002812,200.3004157000687,199.29781130002812,200.3004157000687,199.29781130002812,200.3004157000687,left,1,0.3768138000741601,199.29781130002812,None,199.29781130002812,None,199.29781130002812,199.79876590007916,199.29781130002812,199.79876590007916,199.29781130002812,199.79876590007916,199.29781130002812,199.79876590007916,199.29781130002812,None,,,,,,,,,,,,,,,,,,,,,,,,,,,,,,,,,,,,,,,,,,11031,001,2024_Jan_11_1108,nback,2021.2.3,59.76096808251478,
0-back,instructions\back-0.png,conditions\0back-p.xlsx,instructions\0-BACK.png,"(15, 8)",practice,0,4,stim\gray.png,stim\gray.png,stim\gray.png,stim\yellow.png,down,1,0,1,0,0,0,0,0,0,12,12,12,,,,,,,,,,,,,,,,,,,,,,,,,,,200.8005717000924,201.80225090007298,200.8005717000924,201.80225090007298,200.8005717000924,201.80225090007298,200.8005717000924,201.80225090007298,down,1,0.6984465999994427,200.8005717000924,None,200.8005717000924,None,200.8005717000924,201.30079830018803,200.8005717000924,201.30079830018803,200.8005717000924,201.30079830018803,200.8005717000924,201.30079830018803,200.8005717000924,None,,,,,,,,,,,,,,,,,,,,,,,,,,,,,,,,,,,,,,,,,,11031,001,2024_Jan_11_1108,nback,2021.2.3,59.76096808251478,
0-back,instructions\back-0.png,conditions\0back-p.xlsx,instructions\0-BACK.png,"(15, 8)",practice,0,3,stim\gray.png,stim\gray.png,stim\yellow.png,stim\gray.png,right,1,0,1,0,0,0,0,0,0,13,13,13,,,,,,,,,,,,,,,,,,,,,,,,,,,202.30215970007703,203.3037957001943,202.30215970007703,203.3037957001943,202.30215970007703,203.3037957001943,202.30215970007703,203.3037957001943,right,1,0.460452200146392,202.30215970007703,None,202.30215970007703,None,202.30215970007703,202.80362640018575,202.30215970007703,202.80362640018575,202.30215970007703,202.80362640018575,202.30215970007703,202.80362640018575,202.30215970007703,None,,,,,,,,,,,,,,,,,,,,,,,,,,,,,,,,,,,,,,,,,,11031,001,2024_Jan_11_1108,nback,2021.2.3,59.76096808251478,
0-back,instructions\back-0.png,conditions\0back-p.xlsx,instructions\0-BACK.png,"(15, 8)",practice,0,1,stim\yellow.png,stim\gray.png,stim\gray.png,stim\gray.png,up,1,0,1,0,0,0,0,0,0,14,14,14,,,,,,,,,,,,,,,,,,,,,,,,,,,203.78771160007454,204.78922150004655,203.78771160007454,204.78922150004655,203.78771160007454,204.78922150004655,203.78771160007454,204.78922150004655,up,1,0.358914399985224,203.78771160007454,None,203.78771160007454,None,203.78771160007454,204.28879860020243,203.78771160007454,204.28879860020243,203.78771160007454,204.28879860020243,203.78771160007454,204.28879860020243,203.78771160007454,None,,,,,,,,,,,,,,,,,,,,,,,,,,,,,,,,,,,,,,,,,,11031,001,2024_Jan_11_1108,nback,2021.2.3,59.76096808251478,
0-back,instructions\back-0.png,conditions\0back-p.xlsx,instructions\0-BACK.png,"(15, 8)",practice,0,2,stim\gray.png,stim\yellow.png,stim\gray.png,stim\gray.png,left,1,0,1,0,0,0,0,0,0,15,15,15,,,,,,,,,,,,,,,,,,,,,,,,,,,205.2899567000568,206.29175640014,205.2899567000568,206.29175640014,205.2899567000568,206.29175640014,205.2899567000568,206.29175640014,left,1,0.39259569998830557,205.2899567000568,None,205.2899567000568,None,205.2899567000568,205.790653700009,205.2899567000568,205.790653700009,205.2899567000568,205.790653700009,205.2899567000568,205.790653700009,205.2899567000568,None,,,,,,,,,,,,,,,,,,,,,,,,,,,,,,,,,,,,,,,,,,11031,001,2024_Jan_11_1108,nback,2021.2.3,59.76096808251478,
0-back,instructions\back-0.png,conditions\0back-p.xlsx,instructions\0-BACK.png,"(15, 8)",practice,0,3,stim\gray.png,stim\gray.png,stim\yellow.png,stim\gray.png,right,1,0,1,0,0,0,0,0,0,16,16,16,,,,,,,,,,,,,,,,,,,,,,,,,,,206.7922402000986,207.79475520015694,206.7922402000986,207.79475520015694,206.7922402000986,207.79475520015694,206.7922402000986,207.79475520015694,right,1,0.4263852001167834,206.7922402000986,None,206.7922402000986,None,206.7922402000986,207.29300230019726,206.7922402000986,207.29300230019726,206.7922402000986,207.29300230019726,206.7922402000986,207.29300230019726,206.7922402000986,None,,,,,,,,,,,,,,,,,,,,,,,,,,,,,,,,,,,,,,,,,,11031,001,2024_Jan_11_1108,nback,2021.2.3,59.76096808251478,
0-back,instructions\back-0.png,conditions\0back-p.xlsx,instructions\0-BACK.png,"(15, 8)",practice,0,1,stim\yellow.png,stim\gray.png,stim\gray.png,stim\gray.png,up,1,0,1,0,0,0,0,0,0,17,17,17,,,,,,,,,,,,,,,,,,,,,,,,,,,208.2945486002136,209.29641330009326,208.2945486002136,209.29641330009326,208.2945486002136,209.29641330009326,208.2945486002136,209.29641330009326,up,1,0.6200912001077086,208.2945486002136,None,208.2945486002136,None,208.2945486002136,208.79551650001667,208.2945486002136,208.79551650001667,208.2945486002136,208.79551650001667,208.2945486002136,208.79551650001667,208.2945486002136,None,,,,,,,,,,,,,,,,,,,,,,,,,,,,,,,,,,,,,,,,,,11031,001,2024_Jan_11_1108,nback,2021.2.3,59.76096808251478,
0-back,instructions\back-0.png,conditions\0back-p.xlsx,instructions\0-BACK.png,"(15, 8)",practice,0,4,stim\gray.png,stim\gray.png,stim\gray.png,stim\yellow.png,down,1,0,1,0,0,0,0,0,0,18,18,18,,,,,,,,,,,,,,,,,,,,,,,,,,,209.79756800015457,210.79859620006755,209.79756800015457,210.79859620006755,209.79756800015457,210.79859620006755,209.79756800015457,210.79859620006755,down,1,0.5811949002090842,209.79756800015457,None,209.79756800015457,None,209.79756800015457,210.29796950006858,209.79756800015457,210.29796950006858,209.79756800015457,210.29796950006858,209.79756800015457,210.29796950006858,209.79756800015457,None,,,,,,,,,,,,,,,,,,,,,,,,,,,,,,,,,,,,,,,,,,11031,001,2024_Jan_11_1108,nback,2021.2.3,59.76096808251478,
0-back,instructions\back-0.png,conditions\0back-p.xlsx,instructions\0-BACK.png,"(15, 8)",practice,0,2,stim\gray.png,stim\yellow.png,stim\gray.png,stim\gray.png,left,1,0,1,0,0,0,0,0,0,19,19,19,,,,,,,,,,,,,,,,,,,,,,,,,,,211.29898419999518,212.30174650019035,211.29898419999518,212.30174650019035,211.29898419999518,212.30174650019035,211.29898419999518,212.30174650019035,left,1,0.5354490000754595,211.29898419999518,None,211.29898419999518,None,211.29898419999518,211.79977180017158,211.29898419999518,211.79977180017158,211.29898419999518,211.79977180017158,211.29898419999518,211.79977180017158,211.29898419999518,None,,,,,,,,,,,,,,,,,,,,,,,,,,,,,,,,,,,,,,,,,,11031,001,2024_Jan_11_1108,nback,2021.2.3,59.76096808251478,
0-back,instructions\back-0.png,conditions\0back-p.xlsx,instructions\0-BACK.png,"(15, 8)",,,,,,,,,1,0,1,0,0,0,0,0,,,,,,,,,,,,,,,,,,,,,,,,,,,,,,,,,,,,,,,,,,,,,,,,,,,,,,,,,,,,,,,,,,,,,,,,,,,,,,,,,,,,,,,,,,,,,,,,,11031,001,2024_Jan_11_1108,nback,2021.2.3,59.76096808251478,
1-back,instructions\back-1.png,conditions\1back-p.xlsx,instructions\1-BACK.png,"(25, 15)",practice,1,1,stim\yellow.png,stim\gray.png,stim\gray.png,stim\gray.png,None,1,0,1,0,0,1,1,1,0,0,0,0,,,,,,,,,,,,,,,,,212.96797580015846,None,space,24.210616399999708,212.96797580015846,None,237.3540057002101,241.8618821001146,241.84452750021592,None,242.2292657000944,243.2295218000654,242.2292657000944,243.2295218000654,242.2292657000944,243.2295218000654,242.2292657000944,243.2295218000654,None,1,,242.2292657000944,None,242.2292657000944,None,242.2292657000944,242.7313410001807,242.2292657000944,242.7313410001807,242.2292657000944,242.7313410001807,242.2292657000944,242.7313410001807,242.2292657000944,None,,,,,,,,,,,,,,,,,,,,,,,,,,,,,,,,,,,,,,,,,,11031,001,2024_Jan_11_1108,nback,2021.2.3,59.76096808251478,
1-back,instructions\back-1.png,conditions\1back-p.xlsx,instructions\1-BACK.png,"(25, 15)",practice,1,2,stim\gray.png,stim\yellow.png,stim\gray.png,stim\gray.png,up,1,0,1,0,0,1,1,1,0,1,1,1,,,,,,,,,,,,,,,,,,,,,,,,,,,243.71358040021732,244.71504879998975,243.71358040021732,244.71504879998975,243.71358040021732,244.71504879998975,243.71358040021732,244.71504879998975,left,0,0.9770857999101281,243.71358040021732,None,243.71358040021732,None,243.71358040021732,244.21488270000555,243.71358040021732,244.21488270000555,243.71358040021732,244.21488270000555,243.71358040021732,244.21488270000555,243.71358040021732,None,,,,,,,,,,,,,,,,,,,,,,,,,,,,,,,,,,,,,,,,,,11031,001,2024_Jan_11_1108,nback,2021.2.3,59.76096808251478,
1-back,instructions\back-1.png,conditions\1back-p.xlsx,instructions\1-BACK.png,"(25, 15)",practice,1,3,stim\gray.png,stim\gray.png,stim\yellow.png,stim\gray.png,left,1,0,1,0,0,1,1,1,0,2,2,2,,,,,,,,,,,,,,,,,,,,,,,,,,,245.21566440002061,246.21785300015472,245.21566440002061,246.21785300015472,245.21566440002061,246.21785300015472,245.21566440002061,246.21785300015472,None,0,,245.21566440002061,None,245.21566440002061,None,245.21566440002061,245.71771780005656,245.21566440002061,245.71771780005656,245.21566440002061,245.71771780005656,245.21566440002061,245.71771780005656,245.21566440002061,None,,,,,,,,,,,,,,,,,,,,,,,,,,,,,,,,,,,,,,,,,,11031,001,2024_Jan_11_1108,nback,2021.2.3,59.76096808251478,
1-back,instructions\back-1.png,conditions\1back-p.xlsx,instructions\1-BACK.png,"(25, 15)",practice,1,4,stim\gray.png,stim\gray.png,stim\gray.png,stim\yellow.png,right,1,0,1,0,0,1,1,1,0,3,3,3,,,,,,,,,,,,,,,,,,,,,,,,,,,246.71829790016636,247.72040780005045,246.71829790016636,247.72040780005045,246.71829790016636,247.72040780005045,246.71829790016636,247.72040780005045,right,1,0.3487717001698911,246.71829790016636,None,246.71829790016636,None,246.71829790016636,247.2186168001499,246.71829790016636,247.2186168001499,246.71829790016636,247.2186168001499,246.71829790016636,247.2186168001499,246.71829790016636,None,,,,,,,,,,,,,,,,,,,,,,,,,,,,,,,,,,,,,,,,,,11031,001,2024_Jan_11_1108,nback,2021.2.3,59.76096808251478,
1-back,instructions\back-1.png,conditions\1back-p.xlsx,instructions\1-BACK.png,"(25, 15)",practice,1,2,stim\gray.png,stim\yellow.png,stim\gray.png,stim\gray.png,down,1,0,1,0,0,1,1,1,0,4,4,4,,,,,,,,,,,,,,,,,,,,,,,,,,,248.220319500193,249.2225246001035,248.220319500193,249.2225246001035,248.220319500193,249.2225246001035,248.220319500193,249.2225246001035,down,1,0.4384816000238061,248.220319500193,None,248.220319500193,None,248.220319500193,248.72150450013578,248.220319500193,248.72150450013578,248.220319500193,248.72150450013578,248.220319500193,248.72150450013578,248.220319500193,None,,,,,,,,,,,,,,,,,,,,,,,,,,,,,,,,,,,,,,,,,,11031,001,2024_Jan_11_1108,nback,2021.2.3,59.76096808251478,
1-back,instructions\back-1.png,conditions\1back-p.xlsx,instructions\1-BACK.png,"(25, 15)",practice,1,1,stim\yellow.png,stim\gray.png,stim\gray.png,stim\gray.png,left,1,0,1,0,0,1,1,1,0,5,5,5,,,,,,,,,,,,,,,,,,,,,,,,,,,249.7235003001988,250.7241036000196,249.7235003001988,250.7241036000196,249.7235003001988,250.7241036000196,249.7235003001988,250.7241036000196,left,1,0.7593364999629557,249.7235003001988,None,249.7235003001988,None,249.7235003001988,250.2232146000024,249.7235003001988,250.2232146000024,249.7235003001988,250.2232146000024,249.7235003001988,250.2232146000024,249.7235003001988,None,,,,,,,,,,,,,,,,,,,,,,,,,,,,,,,,,,,,,,,,,,11031,001,2024_Jan_11_1108,nback,2021.2.3,59.76096808251478,
1-back,instructions\back-1.png,conditions\1back-p.xlsx,instructions\1-BACK.png,"(25, 15)",practice,1,4,stim\gray.png,stim\gray.png,stim\gray.png,stim\yellow.png,up,1,0,1,0,0,1,1,1,0,6,6,6,,,,,,,,,,,,,,,,,,,,,,,,,,,251.2088496000506,252.21032030018978,251.2088496000506,252.21032030018978,251.2088496000506,252.21032030018978,251.2088496000506,252.21032030018978,up,1,0.8417587000876665,251.2088496000506,None,251.2088496000506,None,251.2088496000506,251.70922349998727,251.2088496000506,251.70922349998727,251.2088496000506,251.70922349998727,251.2088496000506,251.70922349998727,251.2088496000506,None,,,,,,,,,,,,,,,,,,,,,,,,,,,,,,,,,,,,,,,,,,11031,001,2024_Jan_11_1108,nback,2021.2.3,59.76096808251478,
1-back,instructions\back-1.png,conditions\1back-p.xlsx,instructions\1-BACK.png,"(25, 15)",practice,1,3,stim\gray.png,stim\gray.png,stim\yellow.png,stim\gray.png,down,1,0,1,0,0,1,1,1,0,7,7,7,,,,,,,,,,,,,,,,,,,,,,,,,,,252.7101118999999,253.71169830020517,252.7101118999999,253.71169830020517,252.7101118999999,253.71169830020517,252.7101118999999,253.71169830020517,down,1,0.5487122999038547,252.7101118999999,None,252.7101118999999,None,252.7101118999999,253.21140060015023,252.7101118999999,253.21140060015023,252.7101118999999,253.21140060015023,252.7101118999999,253.21140060015023,252.7101118999999,None,,,,,,,,,,,,,,,,,,,,,,,,,,,,,,,,,,,,,,,,,,11031,001,2024_Jan_11_1108,nback,2021.2.3,59.76096808251478,
1-back,instructions\back-1.png,conditions\1back-p.xlsx,instructions\1-BACK.png,"(25, 15)",practice,1,3,stim\gray.png,stim\gray.png,stim\yellow.png,stim\gray.png,right,1,0,1,0,0,1,1,1,0,8,8,8,,,,,,,,,,,,,,,,,,,,,,,,,,,254.212517300155,255.21458110003732,254.212517300155,255.21458110003732,254.212517300155,255.21458110003732,254.212517300155,255.21458110003732,right,1,0.4942326999735087,254.212517300155,None,254.212517300155,None,254.212517300155,254.71328640007414,254.212517300155,254.71328640007414,254.212517300155,254.71328640007414,254.212517300155,254.71328640007414,254.212517300155,None,,,,,,,,,,,,,,,,,,,,,,,,,,,,,,,,,,,,,,,,,,11031,001,2024_Jan_11_1108,nback,2021.2.3,59.76096808251478,
1-back,instructions\back-1.png,conditions\1back-p.xlsx,instructions\1-BACK.png,"(25, 15)",practice,1,4,stim\gray.png,stim\gray.png,stim\gray.png,stim\yellow.png,right,1,0,1,0,0,1,1,1,0,9,9,9,,,,,,,,,,,,,,,,,,,,,,,,,,,255.71465940005146,256.71732980012894,255.71465940005146,256.71732980012894,255.71465940005146,256.71732980012894,255.71465940005146,256.71732980012894,right,1,0.34388020006008446,255.71465940005146,None,255.71465940005146,None,255.71465940005146,256.21533780009486,255.71465940005146,256.21533780009486,255.71465940005146,256.21533780009486,255.71465940005146,256.21533780009486,255.71465940005146,None,,,,,,,,,,,,,,,,,,,,,,,,,,,,,,,,,,,,,,,,,,11031,001,2024_Jan_11_1108,nback,2021.2.3,59.76096808251478,
1-back,instructions\back-1.png,conditions\1back-p.xlsx,instructions\1-BACK.png,"(25, 15)",practice,1,1,stim\yellow.png,stim\gray.png,stim\gray.png,stim\gray.png,down,1,0,1,0,0,1,1,1,0,10,10,10,,,,,,,,,,,,,,,,,,,,,,,,,,,257.2174241000321,258.21826300001703,257.2174241000321,258.21826300001703,257.2174241000321,258.21826300001703,257.2174241000321,258.21826300001703,down,1,0.385279200039804,257.2174241000321,None,257.2174241000321,None,257.2174241000321,257.71818980015814,257.2174241000321,257.71818980015814,257.2174241000321,257.71818980015814,257.2174241000321,257.71818980015814,257.2174241000321,None,,,,,,,,,,,,,,,,,,,,,,,,,,,,,,,,,,,,,,,,,,11031,001,2024_Jan_11_1108,nback,2021.2.3,59.76096808251478,
1-back,instructions\back-1.png,conditions\1back-p.xlsx,instructions\1-BACK.png,"(25, 15)",practice,1,2,stim\gray.png,stim\yellow.png,stim\gray.png,stim\gray.png,up,1,0,1,0,0,1,1,1,0,11,11,11,,,,,,,,,,,,,,,,,,,,,,,,,,,258.71925600012764,259.7222320002038,258.71925600012764,259.7222320002038,258.71925600012764,259.7222320002038,258.71925600012764,259.7222320002038,None,0,,258.71925600012764,None,258.71925600012764,None,258.71925600012764,259.22067760000937,258.71925600012764,259.22067760000937,258.71925600012764,259.22067760000937,258.71925600012764,259.22067760000937,258.71925600012764,None,,,,,,,,,,,,,,,,,,,,,,,,,,,,,,,,,,,,,,,,,,11031,001,2024_Jan_11_1108,nback,2021.2.3,59.76096808251478,
1-back,instructions\back-1.png,conditions\1back-p.xlsx,instructions\1-BACK.png,"(25, 15)",practice,1,4,stim\gray.png,stim\gray.png,stim\gray.png,stim\yellow.png,left,1,0,1,0,0,1,1,1,0,12,12,12,,,,,,,,,,,,,,,,,,,,,,,,,,,260.2214007000439,261.22325230017304,260.2214007000439,261.22325230017304,260.2214007000439,261.22325230017304,260.2214007000439,261.22325230017304,left,1,0.26908320002257824,260.2214007000439,None,260.2214007000439,None,260.2214007000439,260.7222120000515,260.2214007000439,260.7222120000515,260.2214007000439,260.7222120000515,260.2214007000439,260.7222120000515,260.2214007000439,None,,,,,,,,,,,,,,,,,,,,,,,,,,,,,,,,,,,,,,,,,,11031,001,2024_Jan_11_1108,nback,2021.2.3,59.76096808251478,
1-back,instructions\back-1.png,conditions\1back-p.xlsx,instructions\1-BACK.png,"(25, 15)",practice,1,3,stim\gray.png,stim\gray.png,stim\yellow.png,stim\gray.png,down,1,0,1,0,0,1,1,1,0,13,13,13,,,,,,,,,,,,,,,,,,,,,,,,,,,261.7236001000274,262.72525200014934,261.7236001000274,262.72525200014934,261.7236001000274,262.72525200014934,261.7236001000274,262.72525200014934,None,0,,261.7236001000274,None,261.7236001000274,None,261.7236001000274,262.2250630001072,261.7236001000274,262.2250630001072,261.7236001000274,262.2250630001072,261.7236001000274,262.2250630001072,261.7236001000274,None,,,,,,,,,,,,,,,,,,,,,,,,,,,,,,,,,,,,,,,,,,11031,001,2024_Jan_11_1108,nback,2021.2.3,59.76096808251478,
1-back,instructions\back-1.png,conditions\1back-p.xlsx,instructions\1-BACK.png,"(25, 15)",practice,1,1,stim\yellow.png,stim\gray.png,stim\gray.png,stim\gray.png,right,1,0,1,0,0,1,1,1,0,14,14,14,,,,,,,,,,,,,,,,,,,,,,,,,,,263.2091446002014,264.2115003000945,263.2091446002014,264.2115003000945,263.2091446002014,264.2115003000945,263.2091446002014,264.2115003000945,left,0,1.0415721000172198,263.2091446002014,None,263.2091446002014,None,263.2091446002014,263.71006130008027,263.2091446002014,263.71006130008027,263.2091446002014,263.71006130008027,263.2091446002014,263.71006130008027,263.2091446002014,None,,,,,,,,,,,,,,,,,,,,,,,,,,,,,,,,,,,,,,,,,,11031,001,2024_Jan_11_1108,nback,2021.2.3,59.76096808251478,
1-back,instructions\back-1.png,conditions\1back-p.xlsx,instructions\1-BACK.png,"(25, 15)",practice,1,2,stim\gray.png,stim\yellow.png,stim\gray.png,stim\gray.png,up,1,0,1,0,0,1,1,1,0,15,15,15,,,,,,,,,,,,,,,,,,,,,,,,,,,264.7116696999874,265.71300720004365,264.7116696999874,265.71300720004365,264.7116696999874,265.71300720004365,264.7116696999874,265.71300720004365,right,0,1.2526320000179112,264.7116696999874,None,264.7116696999874,None,264.7116696999874,265.21213370002806,264.7116696999874,265.21213370002806,264.7116696999874,265.21213370002806,264.7116696999874,265.21213370002806,264.7116696999874,None,,,,,,,,,,,,,,,,,,,,,,,,,,,,,,,,,,,,,,,,,,11031,001,2024_Jan_11_1108,nback,2021.2.3,59.76096808251478,
1-back,instructions\back-1.png,conditions\1back-p.xlsx,instructions\1-BACK.png,"(25, 15)",practice,1,3,stim\gray.png,stim\gray.png,stim\yellow.png,stim\gray.png,left,1,0,1,0,0,1,1,1,0,16,16,16,,,,,,,,,,,,,,,,,,,,,,,,,,,266.21417640009895,267.2151111001149,266.21417640009895,267.2151111001149,266.21417640009895,267.2151111001149,266.21417640009895,267.2151111001149,None,0,,266.21417640009895,None,266.21417640009895,None,266.21417640009895,266.71472930000164,266.21417640009895,266.71472930000164,266.21417640009895,266.71472930000164,266.21417640009895,266.71472930000164,266.21417640009895,None,,,,,,,,,,,,,,,,,,,,,,,,,,,,,,,,,,,,,,,,,,11031,001,2024_Jan_11_1108,nback,2021.2.3,59.76096808251478,
1-back,instructions\back-1.png,conditions\1back-p.xlsx,instructions\1-BACK.png,"(25, 15)",practice,1,1,stim\yellow.png,stim\gray.png,stim\gray.png,stim\gray.png,right,1,0,1,0,0,1,1,1,0,17,17,17,,,,,,,,,,,,,,,,,,,,,,,,,,,267.7164179000538,268.7175925001502,267.7164179000538,268.7175925001502,267.7164179000538,268.7175925001502,267.7164179000538,268.7175925001502,down,0,1.1350259999744594,267.7164179000538,None,267.7164179000538,None,267.7164179000538,268.21670230012387,267.7164179000538,268.21670230012387,267.7164179000538,268.21670230012387,267.7164179000538,268.21670230012387,267.7164179000538,None,,,,,,,,,,,,,,,,,,,,,,,,,,,,,,,,,,,,,,,,,,11031,001,2024_Jan_11_1108,nback,2021.2.3,59.76096808251478,
1-back,instructions\back-1.png,conditions\1back-p.xlsx,instructions\1-BACK.png,"(25, 15)",practice,1,4,stim\gray.png,stim\gray.png,stim\gray.png,stim\yellow.png,up,1,0,1,0,0,1,1,1,0,18,18,18,,,,,,,,,,,,,,,,,,,,,,,,,,,269.2187801001128,270.22038300009444,269.2187801001128,270.22038300009444,269.2187801001128,270.22038300009444,269.2187801001128,270.22038300009444,None,0,,269.2187801001128,None,269.2187801001128,None,269.2187801001128,269.7196342002135,269.2187801001128,269.7196342002135,269.2187801001128,269.7196342002135,269.2187801001128,269.7196342002135,269.2187801001128,None,,,,,,,,,,,,,,,,,,,,,,,,,,,,,,,,,,,,,,,,,,11031,001,2024_Jan_11_1108,nback,2021.2.3,59.76096808251478,
1-back,instructions\back-1.png,conditions\1back-p.xlsx,instructions\1-BACK.png,"(25, 15)",practice,1,2,stim\gray.png,stim\yellow.png,stim\gray.png,stim\gray.png,down,1,0,1,0,0,1,1,1,0,19,19,19,,,,,,,,,,,,,,,,,,,,,,,,,,,270.7214211001992,271.72264450020157,270.7214211001992,271.72264450020157,270.7214211001992,271.72264450020157,270.7214211001992,271.72264450020157,right,0,1.049198399996385,270.7214211001992,None,270.7214211001992,None,270.7214211001992,271.2211722000502,270.7214211001992,271.2211722000502,270.7214211001992,271.2211722000502,270.7214211001992,271.2211722000502,270.7214211001992,None,,,,,,,,,,,,,,,,,,,,,,,,,,,,,,,,,,,,,,,,,,11031,001,2024_Jan_11_1108,nback,2021.2.3,59.76096808251478,
1-back,instructions\back-1.png,conditions\1back-p.xlsx,instructions\1-BACK.png,"(25, 15)",,,,,,,,,1,0,1,0,0,1,1,1,,,,,,,,,,,,,,,,,,,,,,,,,,,,,,,,,,,,,,,,,,,,,,,,,,,,,,,,,,,,,,,,,,,,,,,,,,,,,,,,,,,,,,,,,,,,,,,,,11031,001,2024_Jan_11_1108,nback,2021.2.3,59.76096808251478,
2-back,instructions\back-2.png,conditions\2back-p.xlsx,instructions\2-BACK.png,"(25, 15)",practice,2,1,stim\yellow.png,stim\gray.png,stim\gray.png,stim\gray.png,None,1,0,1,0,0,2,2,2,0,0,0,0,,,,,,,,,,,,,,,,,272.37354410020635,None,space,16.493180999998003,272.37354410020635,None,289.08066740003414,293.5891255000606,293.5542091000825,None,293.92223380017094,294.92421220010146,293.92223380017094,294.92421220010146,293.92223380017094,294.92421220010146,293.92223380017094,294.92421220010146,None,1,,293.92223380017094,None,293.92223380017094,None,293.92223380017094,294.42230390012264,293.92223380017094,294.42230390012264,293.92223380017094,294.42230390012264,293.92223380017094,294.42230390012264,293.92223380017094,None,,,,,,,,,,,,,,,,,,,,,,,,,,,,,,,,,,,,,,,,,,11031,001,2024_Jan_11_1108,nback,2021.2.3,59.76096808251478,
2-back,instructions\back-2.png,conditions\2back-p.xlsx,instructions\2-BACK.png,"(25, 15)",practice,2,2,stim\gray.png,stim\yellow.png,stim\gray.png,stim\gray.png,None,1,0,1,0,0,2,2,2,0,1,1,1,,,,,,,,,,,,,,,,,,,,,,,,,,,295.4069475000724,296.4088830000255,295.4069475000724,296.4088830000255,295.4069475000724,296.4088830000255,295.4069475000724,296.4088830000255,up,0,1.1799271998461336,295.4069475000724,None,295.4069475000724,None,295.4069475000724,295.90763490018435,295.4069475000724,295.90763490018435,295.4069475000724,295.90763490018435,295.4069475000724,295.90763490018435,295.4069475000724,None,,,,,,,,,,,,,,,,,,,,,,,,,,,,,,,,,,,,,,,,,,11031,001,2024_Jan_11_1108,nback,2021.2.3,59.76096808251478,
2-back,instructions\back-2.png,conditions\2back-p.xlsx,instructions\2-BACK.png,"(25, 15)",practice,2,3,stim\gray.png,stim\gray.png,stim\yellow.png,stim\gray.png,up,1,0,1,0,0,2,2,2,0,2,2,2,,,,,,,,,,,,,,,,,,,,,,,,,,,296.9090976000298,297.9113679002039,296.9090976000298,297.9113679002039,296.9090976000298,297.9113679002039,296.9090976000298,297.9113679002039,None,0,,296.9090976000298,None,296.9090976000298,None,296.9090976000298,297.4112675001379,296.9090976000298,297.4112675001379,296.9090976000298,297.4112675001379,296.9090976000298,297.4112675001379,296.9090976000298,None,,,,,,,,,,,,,,,,,,,,,,,,,,,,,,,,,,,,,,,,,,11031,001,2024_Jan_11_1108,nback,2021.2.3,59.76096808251478,
2-back,instructions\back-2.png,conditions\2back-p.xlsx,instructions\2-BACK.png,"(25, 15)",practice,2,4,stim\gray.png,stim\gray.png,stim\gray.png,stim\yellow.png,left,1,0,1,0,0,2,2,2,0,3,3,3,,,,,,,,,,,,,,,,,,,,,,,,,,,298.41231829999015,299.4130524001084,298.41231829999015,299.4130524001084,298.41231829999015,299.4130524001084,298.41231829999015,299.4130524001084,left,1,0.9263486000709236,298.41231829999015,None,298.41231829999015,None,298.41231829999015,298.9120261000935,298.41231829999015,298.9120261000935,298.41231829999015,298.9120261000935,298.41231829999015,298.9120261000935,298.41231829999015,None,,,,,,,,,,,,,,,,,,,,,,,,,,,,,,,,,,,,,,,,,,11031,001,2024_Jan_11_1108,nback,2021.2.3,59.76096808251478,
2-back,instructions\back-2.png,conditions\2back-p.xlsx,instructions\2-BACK.png,"(25, 15)",practice,2,2,stim\gray.png,stim\yellow.png,stim\gray.png,stim\gray.png,right,1,0,1,0,0,2,2,2,0,4,4,4,,,,,,,,,,,,,,,,,,,,,,,,,,,299.91364200017415,300.91592910001054,299.91364200017415,300.91592910001054,299.91364200017415,300.91592910001054,299.91364200017415,300.91592910001054,None,0,,299.91364200017415,None,299.91364200017415,None,299.91364200017415,300.41451110015623,299.91364200017415,300.41451110015623,299.91364200017415,300.41451110015623,299.91364200017415,300.41451110015623,299.91364200017415,None,,,,,,,,,,,,,,,,,,,,,,,,,,,,,,,,,,,,,,,,,,11031,001,2024_Jan_11_1108,nback,2021.2.3,59.76096808251478,
2-back,instructions\back-2.png,conditions\2back-p.xlsx,instructions\2-BACK.png,"(25, 15)",practice,2,1,stim\yellow.png,stim\gray.png,stim\gray.png,stim\gray.png,down,1,0,1,0,0,2,2,2,0,5,5,5,,,,,,,,,,,,,,,,,,,,,,,,,,,301.41646130010486,302.4182749001775,301.41646130010486,302.4182749001775,301.41646130010486,302.4182749001775,301.41646130010486,302.4182749001775,None,0,,301.41646130010486,None,301.41646130010486,None,301.41646130010486,301.9165432001464,301.41646130010486,301.9165432001464,301.41646130010486,301.9165432001464,301.41646130010486,301.9165432001464,301.41646130010486,None,,,,,,,,,,,,,,,,,,,,,,,,,,,,,,,,,,,,,,,,,,11031,001,2024_Jan_11_1108,nback,2021.2.3,59.76096808251478,
2-back,instructions\back-2.png,conditions\2back-p.xlsx,instructions\2-BACK.png,"(25, 15)",practice,2,4,stim\gray.png,stim\gray.png,stim\gray.png,stim\yellow.png,left,1,0,1,0,0,2,2,2,0,6,6,6,,,,,,,,,,,,,,,,,,,,,,,,,,,302.91910780011676,303.92089479998685,302.91910780011676,303.92089479998685,302.91910780011676,303.92089479998685,302.91910780011676,303.92089479998685,right,0,0.12356659979559481,302.91910780011676,None,302.91910780011676,None,302.91910780011676,303.41938440012746,302.91910780011676,303.41938440012746,302.91910780011676,303.41938440012746,302.91910780011676,303.41938440012746,302.91910780011676,None,,,,,,,,,,,,,,,,,,,,,,,,,,,,,,,,,,,,,,,,,,11031,001,2024_Jan_11_1108,nback,2021.2.3,59.76096808251478,
2-back,instructions\back-2.png,conditions\2back-p.xlsx,instructions\2-BACK.png,"(25, 15)",practice,2,3,stim\gray.png,stim\gray.png,stim\yellow.png,stim\gray.png,up,1,0,1,0,0,2,2,2,0,7,7,7,,,,,,,,,,,,,,,,,,,,,,,,,,,304.40358870010823,305.4051000000909,304.40358870010823,305.4051000000909,304.40358870010823,305.4051000000909,304.40358870010823,305.4051000000909,None,0,,304.40358870010823,None,304.40358870010823,None,304.40358870010823,304.90426650014706,304.40358870010823,304.90426650014706,304.40358870010823,304.90426650014706,304.40358870010823,304.90426650014706,304.40358870010823,None,,,,,,,,,,,,,,,,,,,,,,,,,,,,,,,,,,,,,,,,,,11031,001,2024_Jan_11_1108,nback,2021.2.3,59.76096808251478,
2-back,instructions\back-2.png,conditions\2back-p.xlsx,instructions\2-BACK.png,"(25, 15)",practice,2,3,stim\gray.png,stim\gray.png,stim\yellow.png,stim\gray.png,down,1,0,1,0,0,2,2,2,0,8,8,8,,,,,,,,,,,,,,,,,,,,,,,,,,,305.9056118000299,306.90772550017573,305.9056118000299,306.90772550017573,305.9056118000299,306.90772550017573,305.9056118000299,306.90772550017573,down,1,0.6492808000184596,305.9056118000299,None,305.9056118000299,None,305.9056118000299,306.40663330000825,305.9056118000299,306.40663330000825,305.9056118000299,306.40663330000825,305.9056118000299,306.40663330000825,305.9056118000299,None,,,,,,,,,,,,,,,,,,,,,,,,,,,,,,,,,,,,,,,,,,11031,001,2024_Jan_11_1108,nback,2021.2.3,59.76096808251478,
2-back,instructions\back-2.png,conditions\2back-p.xlsx,instructions\2-BACK.png,"(25, 15)",practice,2,4,stim\gray.png,stim\gray.png,stim\gray.png,stim\yellow.png,right,1,0,1,0,0,2,2,2,0,9,9,9,,,,,,,,,,,,,,,,,,,,,,,,,,,307.40797050017864,308.4103793001268,307.40797050017864,308.4103793001268,307.40797050017864,308.4103793001268,307.40797050017864,308.4103793001268,None,0,,307.40797050017864,None,307.40797050017864,None,307.40797050017864,307.9088207001332,307.40797050017864,307.9088207001332,307.40797050017864,307.9088207001332,307.40797050017864,307.9088207001332,307.40797050017864,None,,,,,,,,,,,,,,,,,,,,,,,,,,,,,,,,,,,,,,,,,,11031,001,2024_Jan_11_1108,nback,2021.2.3,59.76096808251478,
2-back,instructions\back-2.png,conditions\2back-p.xlsx,instructions\2-BACK.png,"(25, 15)",practice,2,1,stim\yellow.png,stim\gray.png,stim\gray.png,stim\gray.png,right,1,0,1,0,0,2,2,2,0,10,10,10,,,,,,,,,,,,,,,,,,,,,,,,,,,308.91035380004905,309.91150510008447,308.91035380004905,309.91150510008447,308.91035380004905,309.91150510008447,308.91035380004905,309.91150510008447,None,0,,308.91035380004905,None,308.91035380004905,None,308.91035380004905,309.41179100004956,308.91035380004905,309.41179100004956,308.91035380004905,309.41179100004956,308.91035380004905,309.41179100004956,308.91035380004905,None,,,,,,,,,,,,,,,,,,,,,,,,,,,,,,,,,,,,,,,,,,11031,001,2024_Jan_11_1108,nback,2021.2.3,59.76096808251478,
2-back,instructions\back-2.png,conditions\2back-p.xlsx,instructions\2-BACK.png,"(25, 15)",practice,2,2,stim\gray.png,stim\yellow.png,stim\gray.png,stim\gray.png,down,1,0,1,0,0,2,2,2,0,11,11,11,,,,,,,,,,,,,,,,,,,,,,,,,,,310.4124884000048,311.4141868001316,310.4124884000048,311.4141868001316,310.4124884000048,311.4141868001316,310.4124884000048,311.4141868001316,None,0,,310.4124884000048,None,310.4124884000048,None,310.4124884000048,310.9143719000276,310.4124884000048,310.9143719000276,310.4124884000048,310.9143719000276,310.4124884000048,310.9143719000276,310.4124884000048,None,,,,,,,,,,,,,,,,,,,,,,,,,,,,,,,,,,,,,,,,,,11031,001,2024_Jan_11_1108,nback,2021.2.3,59.76096808251478,
2-back,instructions\back-2.png,conditions\2back-p.xlsx,instructions\2-BACK.png,"(25, 15)",practice,2,4,stim\gray.png,stim\gray.png,stim\gray.png,stim\yellow.png,up,1,0,1,0,0,2,2,2,0,12,12,12,,,,,,,,,,,,,,,,,,,,,,,,,,,311.9148330001626,312.9163168000523,311.9148330001626,312.9163168000523,311.9148330001626,312.9163168000523,311.9148330001626,312.9163168000523,None,0,,311.9148330001626,None,311.9148330001626,None,311.9148330001626,312.41567040001974,311.9148330001626,312.41567040001974,311.9148330001626,312.41567040001974,311.9148330001626,312.41567040001974,311.9148330001626,None,,,,,,,,,,,,,,,,,,,,,,,,,,,,,,,,,,,,,,,,,,11031,001,2024_Jan_11_1108,nback,2021.2.3,59.76096808251478,
2-back,instructions\back-2.png,conditions\2back-p.xlsx,instructions\2-BACK.png,"(25, 15)",practice,2,3,stim\gray.png,stim\gray.png,stim\yellow.png,stim\gray.png,left,1,0,1,0,0,2,2,2,0,13,13,13,,,,,,,,,,,,,,,,,,,,,,,,,,,313.4033831001725,314.41830940009095,313.4033831001725,314.41830940009095,313.4033831001725,314.41830940009095,313.4033831001725,314.41830940009095,None,0,,313.4033831001725,None,313.4033831001725,None,313.4033831001725,313.9178115001414,313.4033831001725,313.9178115001414,313.4033831001725,313.9178115001414,313.4033831001725,313.9178115001414,313.4033831001725,None,,,,,,,,,,,,,,,,,,,,,,,,,,,,,,,,,,,,,,,,,,11031,001,2024_Jan_11_1108,nback,2021.2.3,59.76096808251478,
2-back,instructions\back-2.png,conditions\2back-p.xlsx,instructions\2-BACK.png,"(25, 15)",practice,2,1,stim\yellow.png,stim\gray.png,stim\gray.png,stim\gray.png,down,1,0,1,0,0,2,2,2,0,14,14,14,,,,,,,,,,,,,,,,,,,,,,,,,,,314.90369600011036,315.90451390016824,314.90369600011036,315.90451390016824,314.90369600011036,315.90451390016824,314.90369600011036,315.90451390016824,None,0,,314.90369600011036,None,314.90369600011036,None,314.90369600011036,315.4039746001363,314.90369600011036,315.4039746001363,314.90369600011036,315.4039746001363,314.90369600011036,315.4039746001363,314.90369600011036,None,,,,,,,,,,,,,,,,,,,,,,,,,,,,,,,,,,,,,,,,,,11031,001,2024_Jan_11_1108,nback,2021.2.3,59.76096808251478,
2-back,instructions\back-2.png,conditions\2back-p.xlsx,instructions\2-BACK.png,"(25, 15)",practice,2,2,stim\gray.png,stim\yellow.png,stim\gray.png,stim\gray.png,right,1,0,1,0,0,2,2,2,0,15,15,15,,,,,,,,,,,,,,,,,,,,,,,,,,,316.40531210019253,317.4062030001078,316.40531210019253,317.4062030001078,316.40531210019253,317.4062030001078,316.40531210019253,317.4062030001078,None,0,,316.40531210019253,None,316.40531210019253,None,316.40531210019253,316.90607810020447,316.40531210019253,316.90607810020447,316.40531210019253,316.90607810020447,316.40531210019253,316.90607810020447,316.40531210019253,None,,,,,,,,,,,,,,,,,,,,,,,,,,,,,,,,,,,,,,,,,,11031,001,2024_Jan_11_1108,nback,2021.2.3,59.76096808251478,
2-back,instructions\back-2.png,conditions\2back-p.xlsx,instructions\2-BACK.png,"(25, 15)",practice,2,3,stim\gray.png,stim\gray.png,stim\yellow.png,stim\gray.png,up,1,0,1,0,0,2,2,2,0,16,16,16,,,,,,,,,,,,,,,,,,,,,,,,,,,317.9069636000786,318.90835440019146,317.9069636000786,318.90835440019146,317.9069636000786,318.90835440019146,317.9069636000786,318.90835440019146,None,0,,317.9069636000786,None,317.9069636000786,None,317.9069636000786,318.4074759001378,317.9069636000786,318.4074759001378,317.9069636000786,318.4074759001378,317.9069636000786,318.4074759001378,317.9069636000786,None,,,,,,,,,,,,,,,,,,,,,,,,,,,,,,,,,,,,,,,,,,11031,001,2024_Jan_11_1108,nback,2021.2.3,59.76096808251478,
2-back,instructions\back-2.png,conditions\2back-p.xlsx,instructions\2-BACK.png,"(25, 15)",practice,2,1,stim\yellow.png,stim\gray.png,stim\gray.png,stim\gray.png,left,1,0,1,0,0,2,2,2,0,17,17,17,,,,,,,,,,,,,,,,,,,,,,,,,,,319.4091382001061,320.41054060007446,319.4091382001061,320.41054060007446,319.4091382001061,320.41054060007446,319.4091382001061,320.41054060007446,None,0,,319.4091382001061,None,319.4091382001061,None,319.4091382001061,319.910188900074,319.4091382001061,319.910188900074,319.4091382001061,319.910188900074,319.4091382001061,319.910188900074,319.4091382001061,None,,,,,,,,,,,,,,,,,,,,,,,,,,,,,,,,,,,,,,,,,,11031,001,2024_Jan_11_1108,nback,2021.2.3,59.76096808251478,
2-back,instructions\back-2.png,conditions\2back-p.xlsx,instructions\2-BACK.png,"(25, 15)",practice,2,4,stim\gray.png,stim\gray.png,stim\gray.png,stim\yellow.png,right,1,0,1,0,0,2,2,2,0,18,18,18,,,,,,,,,,,,,,,,,,,,,,,,,,,320.9116406000685,321.91322200000286,320.9116406000685,321.91322200000286,320.9116406000685,321.91322200000286,320.9116406000685,321.91322200000286,None,0,,320.9116406000685,None,320.9116406000685,None,320.9116406000685,321.41283600009046,320.9116406000685,321.41283600009046,320.9116406000685,321.41283600009046,320.9116406000685,321.41283600009046,320.9116406000685,None,,,,,,,,,,,,,,,,,,,,,,,,,,,,,,,,,,,,,,,,,,11031,001,2024_Jan_11_1108,nback,2021.2.3,59.76096808251478,
2-back,instructions\back-2.png,conditions\2back-p.xlsx,instructions\2-BACK.png,"(25, 15)",practice,2,2,stim\gray.png,stim\yellow.png,stim\gray.png,stim\gray.png,up,1,0,1,0,0,2,2,2,0,19,19,19,,,,,,,,,,,,,,,,,,,,,,,,,,,322.4133479001466,323.4157140001189,322.4133479001466,323.4157140001189,322.4133479001466,323.4157140001189,322.4133479001466,323.4157140001189,None,0,,322.4133479001466,None,322.4133479001466,None,322.4133479001466,322.9145303000696,322.4133479001466,322.9145303000696,322.4133479001466,322.9145303000696,322.4133479001466,322.9145303000696,322.4133479001466,None,,,,,,,,,,,,,,,,,,,,,,,,,,,,,,,,,,,,,,,,,,11031,001,2024_Jan_11_1108,nback,2021.2.3,59.76096808251478,
2-back,instructions\back-2.png,conditions\2back-p.xlsx,instructions\2-BACK.png,"(25, 15)",,,,,,,,,1,0,1,0,0,2,2,2,,,,,,,,,,,,,,,,,,,,,,,,,,,,,,,,,,,,,,,,,,,,,,,,,,,,,,,,,,,,,,,,,,,,,,,,,,,,,,,,,,,,,,,,,,,,,,,,,11031,001,2024_Jan_11_1108,nback,2021.2.3,59.76096808251478,
,,,,,,,,,,,,,1,0,1,0,,,,,,,,,,,,,,,,,,,,,,,,,,,,,,,,,,,,,,,,,,,,,,,,,,,,,,,,,,,,323.9168506001588,None,space,21.349933200050145,323.9168506001588,None,,,,,,,,,,,,,,,,,,,,,,,,,,,,,,,,,,,,11031,001,2024_Jan_11_1108,nback,2021.2.3,59.76096808251478,
,,,,,,,,,,,,,,,,,,,,,,,,,,,,,,,,,,,,,,,,,,,,,,,,,,,,,,,,,,,,,,,,,,,,,,,,,,,,,,,,,,345.2977297999896,None,space,158.80958729982376,345.2977297999896,None,,,,,,,,,,,,,,,,,,,,,,,,,,,,,,11031,001,2024_Jan_11_1108,nback,2021.2.3,59.76096808251478,
2-back,instructions\back-2.png,conditions\21back-e.xlsx,,,experiment,2,3,stim\gray.png,stim\gray.png,stim\yellow.png,stim\gray.png,None,,,,,,,,,,,,,0,0,0,3,0,0,0,0,,,,,,,,,,,,,,,504.29972790018655,508.8096196001861,508.77367980009876,None,,,,,,,,,,,,,,,,,,,,,,,,,,,,,,,,,,,,,,None,1,509.15614820015617,None,509.15614820015617,None,509.15614820015617,510.1590329001192,509.15614820015617,510.1590329001192,509.15614820015617,510.1590329001192,509.15614820015617,510.1590329001192,509.15614820015617,509.6576867001131,509.15614820015617,509.6576867001131,509.15614820015617,509.6576867001131,509.15614820015617,509.6576867001131,509.15614820015617,None,,,,,,11031,001,2024_Jan_11_1108,nback,2021.2.3,59.76096808251478,
2-back,instructions\back-2.png,conditions\21back-e.xlsx,,,experiment,2,4,stim\gray.png,stim\gray.png,stim\gray.png,stim\yellow.png,None,,,,,,,,,,,,,0,0,0,3,0,1,1,1,,,,,,,,,,,,,,,,,,,,,,,,,,,,,,,,,,,,,,,,,,,,,,,,,,,,,,,,None,1,510.6424615001306,None,510.6424615001306,None,510.6424615001306,511.64416660019197,510.6424615001306,511.64416660019197,510.6424615001306,511.64416660019197,510.6424615001306,511.64416660019197,510.6424615001306,511.1432183000725,510.6424615001306,511.1432183000725,510.6424615001306,511.1432183000725,510.6424615001306,511.1432183000725,510.6424615001306,None,,,,,,11031,001,2024_Jan_11_1108,nback,2021.2.3,59.76096808251478,
2-back,instructions\back-2.png,conditions\21back-e.xlsx,,,experiment,2,1,stim\yellow.png,stim\gray.png,stim\gray.png,stim\gray.png,right,,,,,,,,,,,,,0,0,0,3,0,2,2,2,,,,,,,,,,,,,,,,,,,,,,,,,,,,,,,,,,,,,,,,,,,,,,,,,,,,,,,,right,1,512.1449932001997,None,512.1449932001997,None,512.1449932001997,513.147931399988,512.1449932001997,513.147931399988,512.1449932001997,513.147931399988,512.1449932001997,513.147931399988,512.1449932001997,512.6453474001028,512.1449932001997,512.6453474001028,512.1449932001997,512.6453474001028,512.1449932001997,512.6453474001028,512.1449932001997,None,0.4824749999679625,,,,,11031,001,2024_Jan_11_1108,nback,2021.2.3,59.76096808251478,
2-back,instructions\back-2.png,conditions\21back-e.xlsx,,,experiment,2,2,stim\gray.png,stim\yellow.png,stim\gray.png,stim\gray.png,down,,,,,,,,,,,,,0,0,0,3,0,3,3,3,,,,,,,,,,,,,,,,,,,,,,,,,,,,,,,,,,,,,,,,,,,,,,,,,,,,,,,,None,0,513.6469812002033,None,513.6469812002033,None,513.6469812002033,514.6490308002103,513.6469812002033,514.6490308002103,513.6469812002033,514.6490308002103,513.6469812002033,514.6490308002103,513.6469812002033,514.1488660001196,513.6469812002033,514.1488660001196,513.6469812002033,514.1488660001196,513.6469812002033,514.1488660001196,513.6469812002033,None,,,,,,11031,001,2024_Jan_11_1108,nback,2021.2.3,59.76096808251478,
2-back,instructions\back-2.png,conditions\21back-e.xlsx,,,experiment,2,1,stim\yellow.png,stim\gray.png,stim\gray.png,stim\gray.png,up,,,,,,,,,,,,,0,0,0,3,0,4,4,4,,,,,,,,,,,,,,,,,,,,,,,,,,,,,,,,,,,,,,,,,,,,,,,,,,,,,,,,down,0,515.1493792000692,None,515.1493792000692,None,515.1493792000692,516.1508675001096,515.1493792000692,516.1508675001096,515.1493792000692,516.1508675001096,515.1493792000692,516.1508675001096,515.1493792000692,515.6499151000753,515.1493792000692,515.6499151000753,515.1493792000692,515.6499151000753,515.1493792000692,515.6499151000753,515.1493792000692,None,0.5018362000118941,,,,,11031,001,2024_Jan_11_1108,nback,2021.2.3,59.76096808251478,
2-back,instructions\back-2.png,conditions\21back-e.xlsx,,,experiment,2,2,stim\gray.png,stim\yellow.png,stim\gray.png,stim\gray.png,left,,,,,,,,,,,,,0,0,0,3,0,5,5,5,,,,,,,,,,,,,,,,,,,,,,,,,,,,,,,,,,,,,,,,,,,,,,,,,,,,,,,,up,0,516.6514748001937,None,516.6514748001937,None,516.6514748001937,517.6530647000764,516.6514748001937,517.6530647000764,516.6514748001937,517.6530647000764,516.6514748001937,517.6530647000764,516.6514748001937,517.1523552001454,516.6514748001937,517.1523552001454,516.6514748001937,517.1523552001454,516.6514748001937,517.1523552001454,516.6514748001937,None,0.5435850000940263,,,,,11031,001,2024_Jan_11_1108,nback,2021.2.3,59.76096808251478,
2-back,instructions\back-2.png,conditions\21back-e.xlsx,,,experiment,2,3,stim\gray.png,stim\gray.png,stim\yellow.png,stim\gray.png,up,,,,,,,,,,,,,0,0,0,3,0,6,6,6,,,,,,,,,,,,,,,,,,,,,,,,,,,,,,,,,,,,,,,,,,,,,,,,,,,,,,,,left,0,518.1368231000379,None,518.1368231000379,None,518.1368231000379,519.1384525999893,518.1368231000379,519.1384525999893,518.1368231000379,519.1384525999893,518.1368231000379,519.1384525999893,518.1368231000379,518.637784200022,518.1368231000379,518.637784200022,518.1368231000379,518.637784200022,518.1368231000379,518.637784200022,518.1368231000379,None,0.7222815998829901,,,,,11031,001,2024_Jan_11_1108,nback,2021.2.3,59.76096808251478,
2-back,instructions\back-2.png,conditions\21back-e.xlsx,,,experiment,2,4,stim\gray.png,stim\gray.png,stim\gray.png,stim\yellow.png,left,,,,,,,,,,,,,0,0,0,3,0,7,7,7,,,,,,,,,,,,,,,,,,,,,,,,,,,,,,,,,,,,,,,,,,,,,,,,,,,,,,,,up,0,519.639122000197,None,519.639122000197,None,519.639122000197,520.6414515001234,519.639122000197,520.6414515001234,519.639122000197,520.6414515001234,519.639122000197,520.6414515001234,519.639122000197,520.139919700101,519.639122000197,520.139919700101,519.639122000197,520.139919700101,519.639122000197,520.139919700101,519.639122000197,None,0.8598257000558078,,,,,11031,001,2024_Jan_11_1108,nback,2021.2.3,59.76096808251478,
2-back,instructions\back-2.png,conditions\21back-e.xlsx,,,experiment,2,3,stim\gray.png,stim\gray.png,stim\yellow.png,stim\gray.png,right,,,,,,,,,,,,,0,0,0,3,0,8,8,8,,,,,,,,,,,,,,,,,,,,,,,,,,,,,,,,,,,,,,,,,,,,,,,,,,,,,,,,None,0,521.1414024000987,None,521.1414024000987,None,521.1414024000987,522.1428583001252,521.1414024000987,522.1428583001252,521.1414024000987,522.1428583001252,521.1414024000987,522.1428583001252,521.1414024000987,521.6420898002107,521.1414024000987,521.6420898002107,521.1414024000987,521.6420898002107,521.1414024000987,521.6420898002107,521.1414024000987,None,,,,,,11031,001,2024_Jan_11_1108,nback,2021.2.3,59.76096808251478,
2-back,instructions\back-2.png,conditions\21back-e.xlsx,,,experiment,2,1,stim\yellow.png,stim\gray.png,stim\gray.png,stim\gray.png,down,,,,,,,,,,,,,0,0,0,3,0,9,9,9,,,,,,,,,,,,,,,,,,,,,,,,,,,,,,,,,,,,,,,,,,,,,,,,,,,,,,,,None,0,522.6436130001675,None,522.6436130001675,None,522.6436130001675,523.6453054000158,522.6436130001675,523.6453054000158,522.6436130001675,523.6453054000158,522.6436130001675,523.6453054000158,522.6436130001675,523.1443144001532,522.6436130001675,523.1443144001532,522.6436130001675,523.1443144001532,522.6436130001675,523.1443144001532,522.6436130001675,None,,,,,,11031,001,2024_Jan_11_1108,nback,2021.2.3,59.76096808251478,
2-back,instructions\back-2.png,conditions\21back-e.xlsx,,,experiment,2,4,stim\gray.png,stim\gray.png,stim\gray.png,stim\yellow.png,right,,,,,,,,,,,,,0,0,0,3,0,10,10,10,,,,,,,,,,,,,,,,,,,,,,,,,,,,,,,,,,,,,,,,,,,,,,,,,,,,,,,,left,0,524.1459596999921,None,524.1459596999921,None,524.1459596999921,525.1472964000423,524.1459596999921,525.1472964000423,524.1459596999921,525.1472964000423,524.1459596999921,525.1472964000423,524.1459596999921,524.64667190006,524.1459596999921,524.64667190006,524.1459596999921,524.64667190006,524.1459596999921,524.64667190006,524.1459596999921,None,0.28099250001832843,,,,,11031,001,2024_Jan_11_1108,nback,2021.2.3,59.76096808251478,
2-back,instructions\back-2.png,conditions\21back-e.xlsx,,,experiment,2,2,stim\gray.png,stim\yellow.png,stim\gray.png,stim\gray.png,up,,,,,,,,,,,,,0,0,0,3,0,11,11,11,,,,,,,,,,,,,,,,,,,,,,,,,,,,,,,,,,,,,,,,,,,,,,,,,,,,,,,,up,1,525.6488819001243,None,525.6488819001243,None,525.6488819001243,526.6499075000174,525.6488819001243,526.6499075000174,525.6488819001243,526.6499075000174,525.6488819001243,526.6499075000174,525.6488819001243,526.1495405000169,525.6488819001243,526.1495405000169,525.6488819001243,526.1495405000169,525.6488819001243,526.1495405000169,525.6488819001243,None,0.12236210005357862,,,,,11031,001,2024_Jan_11_1108,nback,2021.2.3,59.76096808251478,
2-back,instructions\back-2.png,conditions\21back-e.xlsx,,,experiment,2,4,stim\gray.png,stim\gray.png,stim\gray.png,stim\yellow.png,down,,,,,,,,,,,,,0,0,0,3,0,12,12,12,,,,,,,,,,,,,,,,,,,,,,,,,,,,,,,,,,,,,,,,,,,,,,,,,,,,,,,,down,1,527.1503468002193,None,527.1503468002193,None,527.1503468002193,528.1524514001794,527.1503468002193,528.1524514001794,527.1503468002193,528.1524514001794,527.1503468002193,528.1524514001794,527.1503468002193,527.6522276001051,527.1503468002193,527.6522276001051,527.1503468002193,527.6522276001051,527.1503468002193,527.6522276001051,527.1503468002193,None,0.17283639986999333,,,,,11031,001,2024_Jan_11_1108,nback,2021.2.3,59.76096808251478,
2-back,instructions\back-2.png,conditions\21back-e.xlsx,,,experiment,2,3,stim\gray.png,stim\gray.png,stim\yellow.png,stim\gray.png,left,,,,,,,,,,,,,0,0,0,3,0,13,13,13,,,,,,,,,,,,,,,,,,,,,,,,,,,,,,,,,,,,,,,,,,,,,,,,,,,,,,,,down,0,528.6525509001222,None,528.6525509001222,None,528.6525509001222,529.6545205002185,528.6525509001222,529.6545205002185,528.6525509001222,529.6545205002185,528.6525509001222,529.6545205002185,528.6525509001222,529.1545794000849,528.6525509001222,529.1545794000849,528.6525509001222,529.1545794000849,528.6525509001222,529.1545794000849,528.6525509001222,None,1.1349162000697106,,,,,11031,001,2024_Jan_11_1108,nback,2021.2.3,59.76096808251478,
2-back,instructions\back-2.png,conditions\21back-e.xlsx,,,experiment,2,1,stim\yellow.png,stim\gray.png,stim\gray.png,stim\gray.png,down,,,,,,,,,,,,,0,0,0,3,0,14,14,14,,,,,,,,,,,,,,,,,,,,,,,,,,,,,,,,,,,,,,,,,,,,,,,,,,,,,,,,left,0,530.1380495000631,None,530.1380495000631,None,530.1380495000631,531.139636100037,530.1380495000631,531.139636100037,530.1380495000631,531.139636100037,530.1380495000631,531.139636100037,530.1380495000631,530.6390253000427,530.1380495000631,530.6390253000427,530.1380495000631,530.6390253000427,530.1380495000631,530.6390253000427,530.1380495000631,None,0.865007400047034,,,,,11031,001,2024_Jan_11_1108,nback,2021.2.3,59.76096808251478,
