backseq,backinstr,backfile,instruction,size_in,Trialtype,back,number,P1,P2,P3,P4,corrAns,trials_practice.thisRepN,trials_practice.thisTrialN,trials_practice.thisN,trials_practice.thisIndex,trials.thisRepN,trials.thisTrialN,trials.thisN,trials.thisIndex,trials_3.thisRepN,trials_3.thisTrialN,trials_3.thisN,trials_3.thisIndex,trials_2.thisRepN,trials_2.thisTrialN,trials_2.thisN,trials_2.thisIndex,trials_4.thisRepN,trials_4.thisTrialN,trials_4.thisN,trials_4.thisIndex,image.started,image.stopped,image_2.started,image_2.stopped,key_resp.keys,key_resp.rt,key_resp.started,key_resp.stopped,image_3.started,image_3.stopped,key_resp_2.keys,key_resp_2.rt,key_resp_2.started,key_resp_2.stopped,image_4.started,image_4.stopped,text.started,text.stopped,H1.started,H1.stopped,H2.started,H2.stopped,H3.started,H3.stopped,H4.started,H4.stopped,key_resp_3.keys,key_resp_3.corr,key_resp_3.rt,key_resp_3.started,key_resp_3.stopped,text_4.started,text_4.stopped,F1.started,F1.stopped,F2.started,F2.stopped,F3.started,F3.stopped,F4.started,F4.stopped,image_7.started,image_7.stopped,text_5.started,text_5.stopped,key_resp_6.keys,key_resp_6.rt,key_resp_6.started,key_resp_6.stopped,image_5.started,image_5.stopped,key_resp_4.keys,key_resp_4.rt,key_resp_4.started,key_resp_4.stopped,key_resp_5.keys,key_resp_5.corr,key_resp_5.started,key_resp_5.stopped,text_3.started,text_3.stopped,H1_2.started,H1_2.stopped,H2_2.started,H2_2.stopped,H3_2.started,H3_2.stopped,H4_2.started,H4_2.stopped,F1_2.started,F1_2.stopped,F2_2.started,F2_2.stopped,F3_2.started,F3_2.stopped,F4_2.started,F4_2.stopped,image_8.started,image_8.stopped,key_resp_5.rt,text_2.started,text_2.stopped,image_6.started,image_6.stopped,participant,session,date,expName,psychopyVersion,frameRate,
,,,,,,,,,,,,,,,,,,,,,,,,,,,,,,,,,11.251599100185558,None,12.203846800141037,None,space,5.6984228999353945,12.203846800141037,None,,,,,,,,,,,,,,,,,,,,,,,,,,,,,,,,,,,,,,,,,,,,,,,,,,,,,,,,,,,,,,,,,,,,,,,,,,,,,11033,001,2024_Jan_11_1853,nback,2021.2.3,59.8901375596576,
0-back,instructions\back-0.png,conditions\0back-p.xlsx,instructions\0-BACK.png,"(15, 8)",practice,0,1,stim\yellow.png,stim\gray.png,stim\gray.png,stim\gray.png,up,0,0,0,0,0,0,0,0,0,0,0,0,,,,,,,,,,,,,,,,,17.97964600007981,None,space,1.6194652998819947,17.97964600007981,None,19.764753200113773,24.272705000126734,24.205367600079626,None,24.639880700036883,25.640434000175446,24.639880700036883,25.640434000175446,24.639880700036883,25.640434000175446,24.639880700036883,25.640434000175446,up,1,0.45461080013774335,24.639880700036883,None,24.639880700036883,None,24.639880700036883,25.139567899983376,24.639880700036883,25.139567899983376,24.639880700036883,25.139567899983376,24.639880700036883,25.139567899983376,24.639880700036883,None,,,,,,,,,,,,,,,,,,,,,,,,,,,,,,,,,,,,,,,,,,11033,001,2024_Jan_11_1853,nback,2021.2.3,59.8901375596576,
0-back,instructions\back-0.png,conditions\0back-p.xlsx,instructions\0-BACK.png,"(15, 8)",practice,0,2,stim\gray.png,stim\yellow.png,stim\gray.png,stim\gray.png,left,0,0,0,0,0,0,0,0,0,1,1,1,,,,,,,,,,,,,,,,,,,,,,,,,,,26.123976000119,27.12625510012731,26.123976000119,27.12625510012731,26.123976000119,27.12625510012731,26.123976000119,27.12625510012731,left,1,0.45855219988152385,26.123976000119,None,26.123976000119,None,26.123976000119,26.62547400011681,26.123976000119,26.62547400011681,26.123976000119,26.62547400011681,26.123976000119,26.62547400011681,26.123976000119,None,,,,,,,,,,,,,,,,,,,,,,,,,,,,,,,,,,,,,,,,,,11033,001,2024_Jan_11_1853,nback,2021.2.3,59.8901375596576,
0-back,instructions\back-0.png,conditions\0back-p.xlsx,instructions\0-BACK.png,"(15, 8)",practice,0,3,stim\gray.png,stim\gray.png,stim\yellow.png,stim\gray.png,right,0,0,0,0,0,0,0,0,0,2,2,2,,,,,,,,,,,,,,,,,,,,,,,,,,,27.62667700019665,28.628398400032893,27.62667700019665,28.628398400032893,27.62667700019665,28.628398400032893,27.62667700019665,28.628398400032893,right,1,0.30785979982465506,27.62667700019665,None,27.62667700019665,None,27.62667700019665,28.127224300056696,27.62667700019665,28.127224300056696,27.62667700019665,28.127224300056696,27.62667700019665,28.127224300056696,27.62667700019665,None,,,,,,,,,,,,,,,,,,,,,,,,,,,,,,,,,,,,,,,,,,11033,001,2024_Jan_11_1853,nback,2021.2.3,59.8901375596576,
0-back,instructions\back-0.png,conditions\0back-p.xlsx,instructions\0-BACK.png,"(15, 8)",practice,0,4,stim\gray.png,stim\gray.png,stim\gray.png,stim\yellow.png,down,0,0,0,0,0,0,0,0,0,3,3,3,,,,,,,,,,,,,,,,,,,,,,,,,,,29.12864980008453,30.130209600087255,29.12864980008453,30.130209600087255,29.12864980008453,30.130209600087255,29.12864980008453,30.130209600087255,down,1,0.5176783998031169,29.12864980008453,None,29.12864980008453,None,29.12864980008453,29.630133799975738,29.12864980008453,29.630133799975738,29.12864980008453,29.630133799975738,29.12864980008453,29.630133799975738,29.12864980008453,None,,,,,,,,,,,,,,,,,,,,,,,,,,,,,,,,,,,,,,,,,,11033,001,2024_Jan_11_1853,nback,2021.2.3,59.8901375596576,
0-back,instructions\back-0.png,conditions\0back-p.xlsx,instructions\0-BACK.png,"(15, 8)",practice,0,2,stim\gray.png,stim\yellow.png,stim\gray.png,stim\gray.png,left,0,0,0,0,0,0,0,0,0,4,4,4,,,,,,,,,,,,,,,,,,,,,,,,,,,30.63090890017338,31.632298400159925,30.63090890017338,31.632298400159925,30.63090890017338,31.632298400159925,30.63090890017338,31.632298400159925,left,1,0.4073582000564784,30.63090890017338,None,30.63090890017338,None,30.63090890017338,31.132405400043353,30.63090890017338,31.132405400043353,30.63090890017338,31.132405400043353,30.63090890017338,31.132405400043353,30.63090890017338,None,,,,,,,,,,,,,,,,,,,,,,,,,,,,,,,,,,,,,,,,,,11033,001,2024_Jan_11_1853,nback,2021.2.3,59.8901375596576,
0-back,instructions\back-0.png,conditions\0back-p.xlsx,instructions\0-BACK.png,"(15, 8)",practice,0,1,stim\yellow.png,stim\gray.png,stim\gray.png,stim\gray.png,up,0,0,0,0,0,0,0,0,0,5,5,5,,,,,,,,,,,,,,,,,,,,,,,,,,,32.13317570020445,33.13723140000366,32.13317570020445,33.13723140000366,32.13317570020445,33.13723140000366,32.13317570020445,33.13723140000366,up,1,0.45724229980260134,32.13317570020445,None,32.13317570020445,None,32.13317570020445,32.63460460002534,32.13317570020445,32.63460460002534,32.13317570020445,32.63460460002534,32.13317570020445,32.63460460002534,32.13317570020445,None,,,,,,,,,,,,,,,,,,,,,,,,,,,,,,,,,,,,,,,,,,11033,001,2024_Jan_11_1853,nback,2021.2.3,59.8901375596576,
0-back,instructions\back-0.png,conditions\0back-p.xlsx,instructions\0-BACK.png,"(15, 8)",practice,0,4,stim\gray.png,stim\gray.png,stim\gray.png,stim\yellow.png,down,0,0,0,0,0,0,0,0,0,6,6,6,,,,,,,,,,,,,,,,,,,,,,,,,,,33.635118999984115,34.637445100117475,33.635118999984115,34.637445100117475,33.635118999984115,34.637445100117475,33.635118999984115,34.637445100117475,down,1,0.38738679978996515,33.635118999984115,None,33.635118999984115,None,33.635118999984115,34.13672860013321,33.635118999984115,34.13672860013321,33.635118999984115,34.13672860013321,33.635118999984115,34.13672860013321,33.635118999984115,None,,,,,,,,,,,,,,,,,,,,,,,,,,,,,,,,,,,,,,,,,,11033,001,2024_Jan_11_1853,nback,2021.2.3,59.8901375596576,
0-back,instructions\back-0.png,conditions\0back-p.xlsx,instructions\0-BACK.png,"(15, 8)",practice,0,3,stim\gray.png,stim\gray.png,stim\yellow.png,stim\gray.png,right,0,0,0,0,0,0,0,0,0,7,7,7,,,,,,,,,,,,,,,,,,,,,,,,,,,35.12173350015655,36.1230429999996,35.12173350015655,36.1230429999996,35.12173350015655,36.1230429999996,35.12173350015655,36.1230429999996,right,1,0.34088579984381795,35.12173350015655,None,35.12173350015655,None,35.12173350015655,35.62237690016627,35.12173350015655,35.62237690016627,35.12173350015655,35.62237690016627,35.12173350015655,35.62237690016627,35.12173350015655,None,,,,,,,,,,,,,,,,,,,,,,,,,,,,,,,,,,,,,,,,,,11033,001,2024_Jan_11_1853,nback,2021.2.3,59.8901375596576,
0-back,instructions\back-0.png,conditions\0back-p.xlsx,instructions\0-BACK.png,"(15, 8)",practice,0,3,stim\gray.png,stim\gray.png,stim\yellow.png,stim\gray.png,right,0,0,0,0,0,0,0,0,0,8,8,8,,,,,,,,,,,,,,,,,,,,,,,,,,,36.6235574001912,37.62517990008928,36.6235574001912,37.62517990008928,36.6235574001912,37.62517990008928,36.6235574001912,37.62517990008928,right,1,0.319144899956882,36.6235574001912,None,36.6235574001912,None,36.6235574001912,37.12388280010782,36.6235574001912,37.12388280010782,36.6235574001912,37.12388280010782,36.6235574001912,37.12388280010782,36.6235574001912,None,,,,,,,,,,,,,,,,,,,,,,,,,,,,,,,,,,,,,,,,,,11033,001,2024_Jan_11_1853,nback,2021.2.3,59.8901375596576,
0-back,instructions\back-0.png,conditions\0back-p.xlsx,instructions\0-BACK.png,"(15, 8)",practice,0,4,stim\gray.png,stim\gray.png,stim\gray.png,stim\yellow.png,down,0,0,0,0,0,0,0,0,0,9,9,9,,,,,,,,,,,,,,,,,,,,,,,,,,,38.1252947000321,39.12754340004176,38.1252947000321,39.12754340004176,38.1252947000321,39.12754340004176,38.1252947000321,39.12754340004176,down,1,0.5212546000257134,38.1252947000321,None,38.1252947000321,None,38.1252947000321,38.626041900133714,38.1252947000321,38.626041900133714,38.1252947000321,38.626041900133714,38.1252947000321,38.626041900133714,38.1252947000321,None,,,,,,,,,,,,,,,,,,,,,,,,,,,,,,,,,,,,,,,,,,11033,001,2024_Jan_11_1853,nback,2021.2.3,59.8901375596576,
0-back,instructions\back-0.png,conditions\0back-p.xlsx,instructions\0-BACK.png,"(15, 8)",practice,0,1,stim\yellow.png,stim\gray.png,stim\gray.png,stim\gray.png,up,0,0,0,0,0,0,0,0,0,10,10,10,,,,,,,,,,,,,,,,,,,,,,,,,,,39.628283800091594,40.6304372001905,39.628283800091594,40.6304372001905,39.628283800091594,40.6304372001905,39.628283800091594,40.6304372001905,up,1,0.48250889987684786,39.628283800091594,None,39.628283800091594,None,39.628283800091594,40.128356700064614,39.628283800091594,40.128356700064614,39.628283800091594,40.128356700064614,39.628283800091594,40.128356700064614,39.628283800091594,None,,,,,,,,,,,,,,,,,,,,,,,,,,,,,,,,,,,,,,,,,,11033,001,2024_Jan_11_1853,nback,2021.2.3,59.8901375596576,
0-back,instructions\back-0.png,conditions\0back-p.xlsx,instructions\0-BACK.png,"(15, 8)",practice,0,2,stim\gray.png,stim\yellow.png,stim\gray.png,stim\gray.png,left,0,0,0,0,0,0,0,0,0,11,11,11,,,,,,,,,,,,,,,,,,,,,,,,,,,41.13050330011174,42.13263630005531,41.13050330011174,42.13263630005531,41.13050330011174,42.13263630005531,41.13050330011174,42.13263630005531,left,1,0.3481803999748081,41.13050330011174,None,41.13050330011174,None,41.13050330011174,41.63061060011387,41.13050330011174,41.63061060011387,41.13050330011174,41.63061060011387,41.13050330011174,41.63061060011387,41.13050330011174,None,,,,,,,,,,,,,,,,,,,,,,,,,,,,,,,,,,,,,,,,,,11033,001,2024_Jan_11_1853,nback,2021.2.3,59.8901375596576,
0-back,instructions\back-0.png,conditions\0back-p.xlsx,instructions\0-BACK.png,"(15, 8)",practice,0,4,stim\gray.png,stim\gray.png,stim\gray.png,stim\yellow.png,down,0,0,0,0,0,0,0,0,0,12,12,12,,,,,,,,,,,,,,,,,,,,,,,,,,,42.63196020014584,43.633500300114974,42.63196020014584,43.633500300114974,42.63196020014584,43.633500300114974,42.63196020014584,43.633500300114974,down,1,0.4146497000474483,42.63196020014584,None,42.63196020014584,None,42.63196020014584,43.1338812999893,42.63196020014584,43.1338812999893,42.63196020014584,43.1338812999893,42.63196020014584,43.1338812999893,42.63196020014584,None,,,,,,,,,,,,,,,,,,,,,,,,,,,,,,,,,,,,,,,,,,11033,001,2024_Jan_11_1853,nback,2021.2.3,59.8901375596576,
0-back,instructions\back-0.png,conditions\0back-p.xlsx,instructions\0-BACK.png,"(15, 8)",practice,0,3,stim\gray.png,stim\gray.png,stim\yellow.png,stim\gray.png,right,0,0,0,0,0,0,0,0,0,13,13,13,,,,,,,,,,,,,,,,,,,,,,,,,,,44.13551400019787,45.13569190003909,44.13551400019787,45.13569190003909,44.13551400019787,45.13569190003909,44.13551400019787,45.13569190003909,right,1,0.34288459992967546,44.13551400019787,None,44.13551400019787,None,44.13551400019787,44.635862700175494,44.13551400019787,44.635862700175494,44.13551400019787,44.635862700175494,44.13551400019787,44.635862700175494,44.13551400019787,None,,,,,,,,,,,,,,,,,,,,,,,,,,,,,,,,,,,,,,,,,,11033,001,2024_Jan_11_1853,nback,2021.2.3,59.8901375596576,
0-back,instructions\back-0.png,conditions\0back-p.xlsx,instructions\0-BACK.png,"(15, 8)",practice,0,1,stim\yellow.png,stim\gray.png,stim\gray.png,stim\gray.png,up,0,0,0,0,0,0,0,0,0,14,14,14,,,,,,,,,,,,,,,,,,,,,,,,,,,45.620054700179026,46.62135500018485,45.620054700179026,46.62135500018485,45.620054700179026,46.62135500018485,45.620054700179026,46.62135500018485,up,1,0.36306619993411005,45.620054700179026,None,45.620054700179026,None,45.620054700179026,46.12047450011596,45.620054700179026,46.12047450011596,45.620054700179026,46.12047450011596,45.620054700179026,46.12047450011596,45.620054700179026,None,,,,,,,,,,,,,,,,,,,,,,,,,,,,,,,,,,,,,,,,,,11033,001,2024_Jan_11_1853,nback,2021.2.3,59.8901375596576,
0-back,instructions\back-0.png,conditions\0back-p.xlsx,instructions\0-BACK.png,"(15, 8)",practice,0,2,stim\gray.png,stim\yellow.png,stim\gray.png,stim\gray.png,left,0,0,0,0,0,0,0,0,0,15,15,15,,,,,,,,,,,,,,,,,,,,,,,,,,,47.12223530001938,48.124652500031516,47.12223530001938,48.124652500031516,47.12223530001938,48.124652500031516,47.12223530001938,48.124652500031516,left,1,0.34081070008687675,47.12223530001938,None,47.12223530001938,None,47.12223530001938,47.62479570019059,47.12223530001938,47.62479570019059,47.12223530001938,47.62479570019059,47.12223530001938,47.62479570019059,47.12223530001938,None,,,,,,,,,,,,,,,,,,,,,,,,,,,,,,,,,,,,,,,,,,11033,001,2024_Jan_11_1853,nback,2021.2.3,59.8901375596576,
0-back,instructions\back-0.png,conditions\0back-p.xlsx,instructions\0-BACK.png,"(15, 8)",practice,0,3,stim\gray.png,stim\gray.png,stim\yellow.png,stim\gray.png,right,0,0,0,0,0,0,0,0,0,16,16,16,,,,,,,,,,,,,,,,,,,,,,,,,,,48.62425860017538,49.625631500035524,48.62425860017538,49.625631500035524,48.62425860017538,49.625631500035524,48.62425860017538,49.625631500035524,right,1,0.3021069001406431,48.62425860017538,None,48.62425860017538,None,48.62425860017538,49.12520210002549,48.62425860017538,49.12520210002549,48.62425860017538,49.12520210002549,48.62425860017538,49.12520210002549,48.62425860017538,None,,,,,,,,,,,,,,,,,,,,,,,,,,,,,,,,,,,,,,,,,,11033,001,2024_Jan_11_1853,nback,2021.2.3,59.8901375596576,
0-back,instructions\back-0.png,conditions\0back-p.xlsx,instructions\0-BACK.png,"(15, 8)",practice,0,1,stim\yellow.png,stim\gray.png,stim\gray.png,stim\gray.png,up,0,0,0,0,0,0,0,0,0,17,17,17,,,,,,,,,,,,,,,,,,,,,,,,,,,50.12623200006783,51.128020900068805,50.12623200006783,51.128020900068805,50.12623200006783,51.128020900068805,50.12623200006783,51.128020900068805,up,1,0.43258140003308654,50.12623200006783,None,50.12623200006783,None,50.12623200006783,50.62723350012675,50.12623200006783,50.62723350012675,50.12623200006783,50.62723350012675,50.12623200006783,50.62723350012675,50.12623200006783,None,,,,,,,,,,,,,,,,,,,,,,,,,,,,,,,,,,,,,,,,,,11033,001,2024_Jan_11_1853,nback,2021.2.3,59.8901375596576,
0-back,instructions\back-0.png,conditions\0back-p.xlsx,instructions\0-BACK.png,"(15, 8)",practice,0,4,stim\gray.png,stim\gray.png,stim\gray.png,stim\yellow.png,down,0,0,0,0,0,0,0,0,0,18,18,18,,,,,,,,,,,,,,,,,,,,,,,,,,,51.62860530009493,52.63079189998098,51.62860530009493,52.63079189998098,51.62860530009493,52.63079189998098,51.62860530009493,52.63079189998098,down,1,0.4665397999342531,51.62860530009493,None,51.62860530009493,None,51.62860530009493,52.129948700079694,51.62860530009493,52.129948700079694,51.62860530009493,52.129948700079694,51.62860530009493,52.129948700079694,51.62860530009493,None,,,,,,,,,,,,,,,,,,,,,,,,,,,,,,,,,,,,,,,,,,11033,001,2024_Jan_11_1853,nback,2021.2.3,59.8901375596576,
0-back,instructions\back-0.png,conditions\0back-p.xlsx,instructions\0-BACK.png,"(15, 8)",practice,0,2,stim\gray.png,stim\yellow.png,stim\gray.png,stim\gray.png,left,0,0,0,0,0,0,0,0,0,19,19,19,,,,,,,,,,,,,,,,,,,,,,,,,,,53.1308506000787,54.13262649998069,53.1308506000787,54.13262649998069,53.1308506000787,54.13262649998069,53.1308506000787,54.13262649998069,left,1,0.3079996998421848,53.1308506000787,None,53.1308506000787,None,53.1308506000787,53.632750200107694,53.1308506000787,53.632750200107694,53.1308506000787,53.632750200107694,53.1308506000787,53.632750200107694,53.1308506000787,None,,,,,,,,,,,,,,,,,,,,,,,,,,,,,,,,,,,,,,,,,,11033,001,2024_Jan_11_1853,nback,2021.2.3,59.8901375596576,
0-back,instructions\back-0.png,conditions\0back-p.xlsx,instructions\0-BACK.png,"(15, 8)",,,,,,,,,0,0,0,0,0,0,0,0,,,,,,,,,,,,,,,,,,,,,,,,,,,,,,,,,,,,,,,,,,,,,,,,,,,,,,,,,,,,,,,,,,,,,,,,,,,,,,,,,,,,,,,,,,,,,,,,,11033,001,2024_Jan_11_1853,nback,2021.2.3,59.8901375596576,
1-back,instructions\back-1.png,conditions\1back-p.xlsx,instructions\1-BACK.png,"(25, 15)",practice,1,1,stim\yellow.png,stim\gray.png,stim\gray.png,stim\gray.png,None,0,0,0,0,0,1,1,1,0,0,0,0,,,,,,,,,,,,,,,,,54.799902900122106,None,space,2.7983932001516223,54.799902900122106,None,57.737607300048694,62.24549760017544,62.22847030009143,None,62.64646670012735,63.64738940005191,62.64646670012735,63.64738940005191,62.64646670012735,63.64738940005191,62.64646670012735,63.64738940005191,None,1,,62.64646670012735,None,62.64646670012735,None,62.64646670012735,63.146474100183696,62.64646670012735,63.146474100183696,62.64646670012735,63.146474100183696,62.64646670012735,63.146474100183696,62.64646670012735,None,,,,,,,,,,,,,,,,,,,,,,,,,,,,,,,,,,,,,,,,,,11033,001,2024_Jan_11_1853,nback,2021.2.3,59.8901375596576,
1-back,instructions\back-1.png,conditions\1back-p.xlsx,instructions\1-BACK.png,"(25, 15)",practice,1,2,stim\gray.png,stim\yellow.png,stim\gray.png,stim\gray.png,up,0,0,0,0,0,1,1,1,0,1,1,1,,,,,,,,,,,,,,,,,,,,,,,,,,,64.13119320012629,65.13261730014347,64.13119320012629,65.13261730014347,64.13119320012629,65.13261730014347,64.13119320012629,65.13261730014347,up,1,0.37175599997863173,64.13119320012629,None,64.13119320012629,None,64.13119320012629,64.63116350001656,64.13119320012629,64.63116350001656,64.13119320012629,64.63116350001656,64.13119320012629,64.63116350001656,64.13119320012629,None,,,,,,,,,,,,,,,,,,,,,,,,,,,,,,,,,,,,,,,,,,11033,001,2024_Jan_11_1853,nback,2021.2.3,59.8901375596576,
1-back,instructions\back-1.png,conditions\1back-p.xlsx,instructions\1-BACK.png,"(25, 15)",practice,1,3,stim\gray.png,stim\gray.png,stim\yellow.png,stim\gray.png,left,0,0,0,0,0,1,1,1,0,2,2,2,,,,,,,,,,,,,,,,,,,,,,,,,,,65.63275160011835,66.63424430019222,65.63275160011835,66.63424430019222,65.63275160011835,66.63424430019222,65.63275160011835,66.63424430019222,left,1,0.8375188000500202,65.63275160011835,None,65.63275160011835,None,65.63275160011835,66.13482820009813,65.63275160011835,66.13482820009813,65.63275160011835,66.13482820009813,65.63275160011835,66.13482820009813,65.63275160011835,None,,,,,,,,,,,,,,,,,,,,,,,,,,,,,,,,,,,,,,,,,,11033,001,2024_Jan_11_1853,nback,2021.2.3,59.8901375596576,
1-back,instructions\back-1.png,conditions\1back-p.xlsx,instructions\1-BACK.png,"(25, 15)",practice,1,4,stim\gray.png,stim\gray.png,stim\gray.png,stim\yellow.png,right,0,0,0,0,0,1,1,1,0,3,3,3,,,,,,,,,,,,,,,,,,,,,,,,,,,67.1356540999841,68.13688270002604,67.1356540999841,68.13688270002604,67.1356540999841,68.13688270002604,67.1356540999841,68.13688270002604,None,0,,67.1356540999841,None,67.1356540999841,None,67.1356540999841,67.63664520019665,67.1356540999841,67.63664520019665,67.1356540999841,67.63664520019665,67.1356540999841,67.63664520019665,67.1356540999841,None,,,,,,,,,,,,,,,,,,,,,,,,,,,,,,,,,,,,,,,,,,11033,001,2024_Jan_11_1853,nback,2021.2.3,59.8901375596576,
1-back,instructions\back-1.png,conditions\1back-p.xlsx,instructions\1-BACK.png,"(25, 15)",practice,1,2,stim\gray.png,stim\yellow.png,stim\gray.png,stim\gray.png,down,0,0,0,0,0,1,1,1,0,4,4,4,,,,,,,,,,,,,,,,,,,,,,,,,,,68.63798560015857,69.6399825999979,68.63798560015857,69.6399825999979,68.63798560015857,69.6399825999979,68.63798560015857,69.6399825999979,down,1,1.3684429998975247,68.63798560015857,None,68.63798560015857,None,68.63798560015857,69.13860679999925,68.63798560015857,69.13860679999925,68.63798560015857,69.13860679999925,68.63798560015857,69.13860679999925,68.63798560015857,None,,,,,,,,,,,,,,,,,,,,,,,,,,,,,,,,,,,,,,,,,,11033,001,2024_Jan_11_1853,nback,2021.2.3,59.8901375596576,
1-back,instructions\back-1.png,conditions\1back-p.xlsx,instructions\1-BACK.png,"(25, 15)",practice,1,1,stim\yellow.png,stim\gray.png,stim\gray.png,stim\gray.png,left,0,0,0,0,0,1,1,1,0,5,5,5,,,,,,,,,,,,,,,,,,,,,,,,,,,70.13927960000001,71.14100130018778,70.13927960000001,71.14100130018778,70.13927960000001,71.14100130018778,70.13927960000001,71.14100130018778,left,1,0.8035466999281198,70.13927960000001,None,70.13927960000001,None,70.13927960000001,70.64056820003316,70.13927960000001,70.64056820003316,70.13927960000001,70.64056820003316,70.13927960000001,70.64056820003316,70.13927960000001,None,,,,,,,,,,,,,,,,,,,,,,,,,,,,,,,,,,,,,,,,,,11033,001,2024_Jan_11_1853,nback,2021.2.3,59.8901375596576,
1-back,instructions\back-1.png,conditions\1back-p.xlsx,instructions\1-BACK.png,"(25, 15)",practice,1,4,stim\gray.png,stim\gray.png,stim\gray.png,stim\yellow.png,up,0,0,0,0,0,1,1,1,0,6,6,6,,,,,,,,,,,,,,,,,,,,,,,,,,,71.64279050007463,72.64327170001343,71.64279050007463,72.64327170001343,71.64279050007463,72.64327170001343,71.64279050007463,72.64327170001343,None,0,,71.64279050007463,None,71.64279050007463,None,71.64279050007463,72.14280550018884,71.64279050007463,72.14280550018884,71.64279050007463,72.14280550018884,71.64279050007463,72.14280550018884,71.64279050007463,None,,,,,,,,,,,,,,,,,,,,,,,,,,,,,,,,,,,,,,,,,,11033,001,2024_Jan_11_1853,nback,2021.2.3,59.8901375596576,
1-back,instructions\back-1.png,conditions\1back-p.xlsx,instructions\1-BACK.png,"(25, 15)",practice,1,3,stim\gray.png,stim\gray.png,stim\yellow.png,stim\gray.png,down,0,0,0,0,0,1,1,1,0,7,7,7,,,,,,,,,,,,,,,,,,,,,,,,,,,73.12791500007734,74.12941220006905,73.12791500007734,74.12941220006905,73.12791500007734,74.12941220006905,73.12791500007734,74.12941220006905,down,1,0.5904534999281168,73.12791500007734,None,73.12791500007734,None,73.12791500007734,73.62829970009625,73.12791500007734,73.62829970009625,73.12791500007734,73.62829970009625,73.12791500007734,73.62829970009625,73.12791500007734,None,,,,,,,,,,,,,,,,,,,,,,,,,,,,,,,,,,,,,,,,,,11033,001,2024_Jan_11_1853,nback,2021.2.3,59.8901375596576,
1-back,instructions\back-1.png,conditions\1back-p.xlsx,instructions\1-BACK.png,"(25, 15)",practice,1,3,stim\gray.png,stim\gray.png,stim\yellow.png,stim\gray.png,right,0,0,0,0,0,1,1,1,0,8,8,8,,,,,,,,,,,,,,,,,,,,,,,,,,,74.63015280012041,75.6317065001931,74.63015280012041,75.6317065001931,74.63015280012041,75.6317065001931,74.63015280012041,75.6317065001931,right,1,0.5764078001957387,74.63015280012041,None,74.63015280012041,None,74.63015280012041,75.13121850020252,74.63015280012041,75.13121850020252,74.63015280012041,75.13121850020252,74.63015280012041,75.13121850020252,74.63015280012041,None,,,,,,,,,,,,,,,,,,,,,,,,,,,,,,,,,,,,,,,,,,11033,001,2024_Jan_11_1853,nback,2021.2.3,59.8901375596576,
1-back,instructions\back-1.png,conditions\1back-p.xlsx,instructions\1-BACK.png,"(25, 15)",practice,1,4,stim\gray.png,stim\gray.png,stim\gray.png,stim\yellow.png,right,0,0,0,0,0,1,1,1,0,9,9,9,,,,,,,,,,,,,,,,,,,,,,,,,,,76.13208410004154,77.13398310006596,76.13208410004154,77.13398310006596,76.13208410004154,77.13398310006596,76.13208410004154,77.13398310006596,down,0,1.2186424999963492,76.13208410004154,None,76.13208410004154,None,76.13208410004154,76.63247980014421,76.13208410004154,76.63247980014421,76.13208410004154,76.63247980014421,76.13208410004154,76.63247980014421,76.13208410004154,None,,,,,,,,,,,,,,,,,,,,,,,,,,,,,,,,,,,,,,,,,,11033,001,2024_Jan_11_1853,nback,2021.2.3,59.8901375596576,
1-back,instructions\back-1.png,conditions\1back-p.xlsx,instructions\1-BACK.png,"(25, 15)",practice,1,1,stim\yellow.png,stim\gray.png,stim\gray.png,stim\gray.png,down,0,0,0,0,0,1,1,1,0,10,10,10,,,,,,,,,,,,,,,,,,,,,,,,,,,77.63387060002424,78.63606380019337,77.63387060002424,78.63606380019337,77.63387060002424,78.63606380019337,77.63387060002424,78.63606380019337,None,0,,77.63387060002424,None,77.63387060002424,None,77.63387060002424,78.13462540018372,77.63387060002424,78.13462540018372,77.63387060002424,78.13462540018372,77.63387060002424,78.13462540018372,77.63387060002424,None,,,,,,,,,,,,,,,,,,,,,,,,,,,,,,,,,,,,,,,,,,11033,001,2024_Jan_11_1853,nback,2021.2.3,59.8901375596576,
1-back,instructions\back-1.png,conditions\1back-p.xlsx,instructions\1-BACK.png,"(25, 15)",practice,1,2,stim\gray.png,stim\yellow.png,stim\gray.png,stim\gray.png,up,0,0,0,0,0,1,1,1,0,11,11,11,,,,,,,,,,,,,,,,,,,,,,,,,,,79.13629130017944,80.1382397999987,79.13629130017944,80.1382397999987,79.13629130017944,80.1382397999987,79.13629130017944,80.1382397999987,up,1,0.4541669001337141,79.13629130017944,None,79.13629130017944,None,79.13629130017944,79.63765879999846,79.13629130017944,79.63765879999846,79.13629130017944,79.63765879999846,79.13629130017944,79.63765879999846,79.13629130017944,None,,,,,,,,,,,,,,,,,,,,,,,,,,,,,,,,,,,,,,,,,,11033,001,2024_Jan_11_1853,nback,2021.2.3,59.8901375596576,
1-back,instructions\back-1.png,conditions\1back-p.xlsx,instructions\1-BACK.png,"(25, 15)",practice,1,4,stim\gray.png,stim\gray.png,stim\gray.png,stim\yellow.png,left,0,0,0,0,0,1,1,1,0,12,12,12,,,,,,,,,,,,,,,,,,,,,,,,,,,80.63827430014499,81.63986680004746,80.63827430014499,81.63986680004746,80.63827430014499,81.63986680004746,80.63827430014499,81.63986680004746,left,1,0.9280076001305133,80.63827430014499,None,80.63827430014499,None,80.63827430014499,81.13903830014169,80.63827430014499,81.13903830014169,80.63827430014499,81.13903830014169,80.63827430014499,81.13903830014169,80.63827430014499,None,,,,,,,,,,,,,,,,,,,,,,,,,,,,,,,,,,,,,,,,,,11033,001,2024_Jan_11_1853,nback,2021.2.3,59.8901375596576,
1-back,instructions\back-1.png,conditions\1back-p.xlsx,instructions\1-BACK.png,"(25, 15)",practice,1,3,stim\gray.png,stim\gray.png,stim\yellow.png,stim\gray.png,down,0,0,0,0,0,1,1,1,0,13,13,13,,,,,,,,,,,,,,,,,,,,,,,,,,,82.14084860007279,83.1420266001951,82.14084860007279,83.1420266001951,82.14084860007279,83.1420266001951,82.14084860007279,83.1420266001951,None,0,,82.14084860007279,None,82.14084860007279,None,82.14084860007279,82.64152300008573,82.14084860007279,82.64152300008573,82.14084860007279,82.64152300008573,82.14084860007279,82.64152300008573,82.14084860007279,None,,,,,,,,,,,,,,,,,,,,,,,,,,,,,,,,,,,,,,,,,,11033,001,2024_Jan_11_1853,nback,2021.2.3,59.8901375596576,
1-back,instructions\back-1.png,conditions\1back-p.xlsx,instructions\1-BACK.png,"(25, 15)",practice,1,1,stim\yellow.png,stim\gray.png,stim\gray.png,stim\gray.png,right,0,0,0,0,0,1,1,1,0,14,14,14,,,,,,,,,,,,,,,,,,,,,,,,,,,83.62604110012762,84.62844710005447,83.62604110012762,84.62844710005447,83.62604110012762,84.62844710005447,83.62604110012762,84.62844710005447,right,1,0.7882743999361992,83.62604110012762,None,83.62604110012762,None,83.62604110012762,84.12802619999275,83.62604110012762,84.12802619999275,83.62604110012762,84.12802619999275,83.62604110012762,84.12802619999275,83.62604110012762,None,,,,,,,,,,,,,,,,,,,,,,,,,,,,,,,,,,,,,,,,,,11033,001,2024_Jan_11_1853,nback,2021.2.3,59.8901375596576,
1-back,instructions\back-1.png,conditions\1back-p.xlsx,instructions\1-BACK.png,"(25, 15)",practice,1,2,stim\gray.png,stim\yellow.png,stim\gray.png,stim\gray.png,up,0,0,0,0,0,1,1,1,0,15,15,15,,,,,,,,,,,,,,,,,,,,,,,,,,,85.1283953001257,86.13090510014445,85.1283953001257,86.13090510014445,85.1283953001257,86.13090510014445,85.1283953001257,86.13090510014445,up,1,0.3513748000841588,85.1283953001257,None,85.1283953001257,None,85.1283953001257,85.62919110013172,85.1283953001257,85.62919110013172,85.1283953001257,85.62919110013172,85.1283953001257,85.62919110013172,85.1283953001257,None,,,,,,,,,,,,,,,,,,,,,,,,,,,,,,,,,,,,,,,,,,11033,001,2024_Jan_11_1853,nback,2021.2.3,59.8901375596576,
1-back,instructions\back-1.png,conditions\1back-p.xlsx,instructions\1-BACK.png,"(25, 15)",practice,1,3,stim\gray.png,stim\gray.png,stim\yellow.png,stim\gray.png,left,0,0,0,0,0,1,1,1,0,16,16,16,,,,,,,,,,,,,,,,,,,,,,,,,,,86.63058110000566,87.6320902002044,86.63058110000566,87.6320902002044,86.63058110000566,87.6320902002044,86.63058110000566,87.6320902002044,right,0,0.40046790009364486,86.63058110000566,None,86.63058110000566,None,86.63058110000566,87.13127290015109,86.63058110000566,87.13127290015109,86.63058110000566,87.13127290015109,86.63058110000566,87.13127290015109,86.63058110000566,None,,,,,,,,,,,,,,,,,,,,,,,,,,,,,,,,,,,,,,,,,,11033,001,2024_Jan_11_1853,nback,2021.2.3,59.8901375596576,
1-back,instructions\back-1.png,conditions\1back-p.xlsx,instructions\1-BACK.png,"(25, 15)",practice,1,1,stim\yellow.png,stim\gray.png,stim\gray.png,stim\gray.png,right,0,0,0,0,0,1,1,1,0,17,17,17,,,,,,,,,,,,,,,,,,,,,,,,,,,88.13391360011883,89.13428190001287,88.13391360011883,89.13428190001287,88.13391360011883,89.13428190001287,88.13391360011883,89.13428190001287,right,1,1.288642399944365,88.13391360011883,None,88.13391360011883,None,88.13391360011883,88.63440129999071,88.13391360011883,88.63440129999071,88.13391360011883,88.63440129999071,88.13391360011883,88.63440129999071,88.13391360011883,None,,,,,,,,,,,,,,,,,,,,,,,,,,,,,,,,,,,,,,,,,,11033,001,2024_Jan_11_1853,nback,2021.2.3,59.8901375596576,
1-back,instructions\back-1.png,conditions\1back-p.xlsx,instructions\1-BACK.png,"(25, 15)",practice,1,4,stim\gray.png,stim\gray.png,stim\gray.png,stim\yellow.png,up,0,0,0,0,0,1,1,1,0,18,18,18,,,,,,,,,,,,,,,,,,,,,,,,,,,89.635020500049,90.63754720008001,89.635020500049,90.63754720008001,89.635020500049,90.63754720008001,89.635020500049,90.63754720008001,None,0,,89.635020500049,None,89.635020500049,None,89.635020500049,90.13685710006393,89.635020500049,90.13685710006393,89.635020500049,90.13685710006393,89.635020500049,90.13685710006393,89.635020500049,None,,,,,,,,,,,,,,,,,,,,,,,,,,,,,,,,,,,,,,,,,,11033,001,2024_Jan_11_1853,nback,2021.2.3,59.8901375596576,
1-back,instructions\back-1.png,conditions\1back-p.xlsx,instructions\1-BACK.png,"(25, 15)",practice,1,2,stim\gray.png,stim\yellow.png,stim\gray.png,stim\gray.png,down,0,0,0,0,0,1,1,1,0,19,19,19,,,,,,,,,,,,,,,,,,,,,,,,,,,91.13719750009477,92.13887800020166,91.13719750009477,92.13887800020166,91.13719750009477,92.13887800020166,91.13719750009477,92.13887800020166,None,0,,91.13719750009477,None,91.13719750009477,None,91.13719750009477,91.63886810000986,91.13719750009477,91.63886810000986,91.13719750009477,91.63886810000986,91.13719750009477,91.63886810000986,91.13719750009477,None,,,,,,,,,,,,,,,,,,,,,,,,,,,,,,,,,,,,,,,,,,11033,001,2024_Jan_11_1853,nback,2021.2.3,59.8901375596576,
1-back,instructions\back-1.png,conditions\1back-p.xlsx,instructions\1-BACK.png,"(25, 15)",,,,,,,,,0,0,0,0,0,1,1,1,,,,,,,,,,,,,,,,,,,,,,,,,,,,,,,,,,,,,,,,,,,,,,,,,,,,,,,,,,,,,,,,,,,,,,,,,,,,,,,,,,,,,,,,,,,,,,,,,11033,001,2024_Jan_11_1853,nback,2021.2.3,59.8901375596576,
2-back,instructions\back-2.png,conditions\2back-p.xlsx,instructions\2-BACK.png,"(25, 15)",practice,2,1,stim\yellow.png,stim\gray.png,stim\gray.png,stim\gray.png,None,0,0,0,0,0,2,2,2,0,0,0,0,,,,,,,,,,,,,,,,,92.77211300004274,None,space,9.986428699921817,92.77211300004274,None,102.93730009999126,107.44548350013793,107.41126230009831,None,107.81296180002391,108.81423979997635,107.81296180002391,108.81423979997635,107.81296180002391,108.81423979997635,107.81296180002391,108.81423979997635,None,1,,107.81296180002391,None,107.81296180002391,None,107.81296180002391,108.31368820019998,107.81296180002391,108.31368820019998,107.81296180002391,108.31368820019998,107.81296180002391,108.31368820019998,107.81296180002391,None,,,,,,,,,,,,,,,,,,,,,,,,,,,,,,,,,,,,,,,,,,11033,001,2024_Jan_11_1853,nback,2021.2.3,59.8901375596576,
2-back,instructions\back-2.png,conditions\2back-p.xlsx,instructions\2-BACK.png,"(25, 15)",practice,2,2,stim\gray.png,stim\yellow.png,stim\gray.png,stim\gray.png,None,0,0,0,0,0,2,2,2,0,1,1,1,,,,,,,,,,,,,,,,,,,,,,,,,,,109.29744250001386,110.2999508001376,109.29744250001386,110.2999508001376,109.29744250001386,110.2999508001376,109.29744250001386,110.2999508001376,None,1,,109.29744250001386,None,109.29744250001386,None,109.29744250001386,109.79904230008833,109.29744250001386,109.79904230008833,109.29744250001386,109.79904230008833,109.29744250001386,109.79904230008833,109.29744250001386,None,,,,,,,,,,,,,,,,,,,,,,,,,,,,,,,,,,,,,,,,,,11033,001,2024_Jan_11_1853,nback,2021.2.3,59.8901375596576,
2-back,instructions\back-2.png,conditions\2back-p.xlsx,instructions\2-BACK.png,"(25, 15)",practice,2,3,stim\gray.png,stim\gray.png,stim\yellow.png,stim\gray.png,up,0,0,0,0,0,2,2,2,0,2,2,2,,,,,,,,,,,,,,,,,,,,,,,,,,,110.80063439998776,111.80120049999095,110.80063439998776,111.80120049999095,110.80063439998776,111.80120049999095,110.80063439998776,111.80120049999095,up,1,0.2702326998114586,110.80063439998776,None,110.80063439998776,None,110.80063439998776,111.30030280002393,110.80063439998776,111.30030280002393,110.80063439998776,111.30030280002393,110.80063439998776,111.30030280002393,110.80063439998776,None,,,,,,,,,,,,,,,,,,,,,,,,,,,,,,,,,,,,,,,,,,11033,001,2024_Jan_11_1853,nback,2021.2.3,59.8901375596576,
2-back,instructions\back-2.png,conditions\2back-p.xlsx,instructions\2-BACK.png,"(25, 15)",practice,2,4,stim\gray.png,stim\gray.png,stim\gray.png,stim\yellow.png,left,0,0,0,0,0,2,2,2,0,3,3,3,,,,,,,,,,,,,,,,,,,,,,,,,,,112.30187940015458,113.30372650013305,112.30187940015458,113.30372650013305,112.30187940015458,113.30372650013305,112.30187940015458,113.30372650013305,left,1,0.7127913001459092,112.30187940015458,None,112.30187940015458,None,112.30187940015458,112.80334400013089,112.30187940015458,112.80334400013089,112.30187940015458,112.80334400013089,112.30187940015458,112.80334400013089,112.30187940015458,None,,,,,,,,,,,,,,,,,,,,,,,,,,,,,,,,,,,,,,,,,,11033,001,2024_Jan_11_1853,nback,2021.2.3,59.8901375596576,
2-back,instructions\back-2.png,conditions\2back-p.xlsx,instructions\2-BACK.png,"(25, 15)",practice,2,2,stim\gray.png,stim\yellow.png,stim\gray.png,stim\gray.png,right,0,0,0,0,0,2,2,2,0,4,4,4,,,,,,,,,,,,,,,,,,,,,,,,,,,113.80399020016193,114.80594260012731,113.80399020016193,114.80594260012731,113.80399020016193,114.80594260012731,113.80399020016193,114.80594260012731,right,1,0.810400600079447,113.80399020016193,None,113.80399020016193,None,113.80399020016193,114.30554289999418,113.80399020016193,114.30554289999418,113.80399020016193,114.30554289999418,113.80399020016193,114.30554289999418,113.80399020016193,None,,,,,,,,,,,,,,,,,,,,,,,,,,,,,,,,,,,,,,,,,,11033,001,2024_Jan_11_1853,nback,2021.2.3,59.8901375596576,
2-back,instructions\back-2.png,conditions\2back-p.xlsx,instructions\2-BACK.png,"(25, 15)",practice,2,1,stim\yellow.png,stim\gray.png,stim\gray.png,stim\gray.png,down,0,0,0,0,0,2,2,2,0,5,5,5,,,,,,,,,,,,,,,,,,,,,,,,,,,115.30623990017921,116.30875690001994,115.30623990017921,116.30875690001994,115.30623990017921,116.30875690001994,115.30623990017921,116.30875690001994,up,0,0.7572004001121968,115.30623990017921,None,115.30623990017921,None,115.30623990017921,115.80801540007815,115.30623990017921,115.80801540007815,115.30623990017921,115.80801540007815,115.30623990017921,115.80801540007815,115.30623990017921,None,,,,,,,,,,,,,,,,,,,,,,,,,,,,,,,,,,,,,,,,,,11033,001,2024_Jan_11_1853,nback,2021.2.3,59.8901375596576,
2-back,instructions\back-2.png,conditions\2back-p.xlsx,instructions\2-BACK.png,"(25, 15)",practice,2,4,stim\gray.png,stim\gray.png,stim\gray.png,stim\yellow.png,left,0,0,0,0,0,2,2,2,0,6,6,6,,,,,,,,,,,,,,,,,,,,,,,,,,,116.7922454001382,117.79372439999133,116.7922454001382,117.79372439999133,116.7922454001382,117.79372439999133,116.7922454001382,117.79372439999133,down,0,0.7510791001841426,116.7922454001382,None,116.7922454001382,None,116.7922454001382,117.29272560006939,116.7922454001382,117.29272560006939,116.7922454001382,117.29272560006939,116.7922454001382,117.29272560006939,116.7922454001382,None,,,,,,,,,,,,,,,,,,,,,,,,,,,,,,,,,,,,,,,,,,11033,001,2024_Jan_11_1853,nback,2021.2.3,59.8901375596576,
2-back,instructions\back-2.png,conditions\2back-p.xlsx,instructions\2-BACK.png,"(25, 15)",practice,2,3,stim\gray.png,stim\gray.png,stim\yellow.png,stim\gray.png,up,0,0,0,0,0,2,2,2,0,7,7,7,,,,,,,,,,,,,,,,,,,,,,,,,,,118.29414450004697,119.29568660003133,118.29414450004697,119.29568660003133,118.29414450004697,119.29568660003133,118.29414450004697,119.29568660003133,None,0,,118.29414450004697,None,118.29414450004697,None,118.29414450004697,118.79515050002374,118.29414450004697,118.79515050002374,118.29414450004697,118.79515050002374,118.29414450004697,118.79515050002374,118.29414450004697,None,,,,,,,,,,,,,,,,,,,,,,,,,,,,,,,,,,,,,,,,,,11033,001,2024_Jan_11_1853,nback,2021.2.3,59.8901375596576,
2-back,instructions\back-2.png,conditions\2back-p.xlsx,instructions\2-BACK.png,"(25, 15)",practice,2,3,stim\gray.png,stim\gray.png,stim\yellow.png,stim\gray.png,down,0,0,0,0,0,2,2,2,0,8,8,8,,,,,,,,,,,,,,,,,,,,,,,,,,,119.79646189999767,120.79836250003427,119.79646189999767,120.79836250003427,119.79646189999767,120.79836250003427,119.79646189999767,120.79836250003427,left,0,0.2823324000928551,119.79646189999767,None,119.79646189999767,None,119.79646189999767,120.29804310016334,119.79646189999767,120.29804310016334,119.79646189999767,120.29804310016334,119.79646189999767,120.29804310016334,119.79646189999767,None,,,,,,,,,,,,,,,,,,,,,,,,,,,,,,,,,,,,,,,,,,11033,001,2024_Jan_11_1853,nback,2021.2.3,59.8901375596576,
2-back,instructions\back-2.png,conditions\2back-p.xlsx,instructions\2-BACK.png,"(25, 15)",practice,2,4,stim\gray.png,stim\gray.png,stim\gray.png,stim\yellow.png,right,0,0,0,0,0,2,2,2,0,9,9,9,,,,,,,,,,,,,,,,,,,,,,,,,,,121.29835720011033,122.30029240017757,121.29835720011033,122.30029240017757,121.29835720011033,122.30029240017757,121.29835720011033,122.30029240017757,right,1,0.19629180012270808,121.29835720011033,None,121.29835720011033,None,121.29835720011033,121.80014120019041,121.29835720011033,121.80014120019041,121.29835720011033,121.80014120019041,121.29835720011033,121.80014120019041,121.29835720011033,None,,,,,,,,,,,,,,,,,,,,,,,,,,,,,,,,,,,,,,,,,,11033,001,2024_Jan_11_1853,nback,2021.2.3,59.8901375596576,
2-back,instructions\back-2.png,conditions\2back-p.xlsx,instructions\2-BACK.png,"(25, 15)",practice,2,1,stim\yellow.png,stim\gray.png,stim\gray.png,stim\gray.png,right,0,0,0,0,0,2,2,2,0,10,10,10,,,,,,,,,,,,,,,,,,,,,,,,,,,122.80053250002675,123.8031564000994,122.80053250002675,123.8031564000994,122.80053250002675,123.8031564000994,122.80053250002675,123.8031564000994,down,0,1.454015800030902,122.80053250002675,None,122.80053250002675,None,122.80053250002675,123.30160100013018,122.80053250002675,123.30160100013018,122.80053250002675,123.30160100013018,122.80053250002675,123.30160100013018,122.80053250002675,None,,,,,,,,,,,,,,,,,,,,,,,,,,,,,,,,,,,,,,,,,,11033,001,2024_Jan_11_1853,nback,2021.2.3,59.8901375596576,
2-back,instructions\back-2.png,conditions\2back-p.xlsx,instructions\2-BACK.png,"(25, 15)",practice,2,2,stim\gray.png,stim\yellow.png,stim\gray.png,stim\gray.png,down,0,0,0,0,0,2,2,2,0,11,11,11,,,,,,,,,,,,,,,,,,,,,,,,,,,124.30298230005428,125.30465549998917,124.30298230005428,125.30465549998917,124.30298230005428,125.30465549998917,124.30298230005428,125.30465549998917,None,0,,124.30298230005428,None,124.30298230005428,None,124.30298230005428,124.80464420001954,124.30298230005428,124.80464420001954,124.30298230005428,124.80464420001954,124.30298230005428,124.80464420001954,124.30298230005428,None,,,,,,,,,,,,,,,,,,,,,,,,,,,,,,,,,,,,,,,,,,11033,001,2024_Jan_11_1853,nback,2021.2.3,59.8901375596576,
2-back,instructions\back-2.png,conditions\2back-p.xlsx,instructions\2-BACK.png,"(25, 15)",practice,2,4,stim\gray.png,stim\gray.png,stim\gray.png,stim\yellow.png,up,0,0,0,0,0,2,2,2,0,12,12,12,,,,,,,,,,,,,,,,,,,,,,,,,,,125.80554580013268,126.80737220006995,125.80554580013268,126.80737220006995,125.80554580013268,126.80737220006995,125.80554580013268,126.80737220006995,None,0,,125.80554580013268,None,125.80554580013268,None,125.80554580013268,126.30712910019793,125.80554580013268,126.30712910019793,125.80554580013268,126.30712910019793,125.80554580013268,126.30712910019793,125.80554580013268,None,,,,,,,,,,,,,,,,,,,,,,,,,,,,,,,,,,,,,,,,,,11033,001,2024_Jan_11_1853,nback,2021.2.3,59.8901375596576,
2-back,instructions\back-2.png,conditions\2back-p.xlsx,instructions\2-BACK.png,"(25, 15)",practice,2,3,stim\gray.png,stim\gray.png,stim\yellow.png,stim\gray.png,left,0,0,0,0,0,2,2,2,0,13,13,13,,,,,,,,,,,,,,,,,,,,,,,,,,,127.29135940014385,128.29319200012833,127.29135940014385,128.29319200012833,127.29135940014385,128.29319200012833,127.29135940014385,128.29319200012833,up,0,0.0031417999416589737,127.29135940014385,None,127.29135940014385,None,127.29135940014385,127.7915647001937,127.29135940014385,127.7915647001937,127.29135940014385,127.7915647001937,127.29135940014385,127.7915647001937,127.29135940014385,None,,,,,,,,,,,,,,,,,,,,,,,,,,,,,,,,,,,,,,,,,,11033,001,2024_Jan_11_1853,nback,2021.2.3,59.8901375596576,
2-back,instructions\back-2.png,conditions\2back-p.xlsx,instructions\2-BACK.png,"(25, 15)",practice,2,1,stim\yellow.png,stim\gray.png,stim\gray.png,stim\gray.png,down,0,0,0,0,0,2,2,2,0,14,14,14,,,,,,,,,,,,,,,,,,,,,,,,,,,128.79382500005886,129.79590989998542,128.79382500005886,129.79590989998542,128.79382500005886,129.79590989998542,128.79382500005886,129.79590989998542,up,0,1.0206406998913735,128.79382500005886,None,128.79382500005886,None,128.79382500005886,129.29369660001248,128.79382500005886,129.29369660001248,128.79382500005886,129.29369660001248,128.79382500005886,129.29369660001248,128.79382500005886,None,,,,,,,,,,,,,,,,,,,,,,,,,,,,,,,,,,,,,,,,,,11033,001,2024_Jan_11_1853,nback,2021.2.3,59.8901375596576,
2-back,instructions\back-2.png,conditions\2back-p.xlsx,instructions\2-BACK.png,"(25, 15)",practice,2,2,stim\gray.png,stim\yellow.png,stim\gray.png,stim\gray.png,right,0,0,0,0,0,2,2,2,0,15,15,15,,,,,,,,,,,,,,,,,,,,,,,,,,,130.29545520013198,131.297404400073,130.29545520013198,131.297404400073,130.29545520013198,131.297404400073,130.29545520013198,131.297404400073,None,0,,130.29545520013198,None,130.29545520013198,None,130.29545520013198,130.79608890018426,130.29545520013198,130.79608890018426,130.29545520013198,130.79608890018426,130.29545520013198,130.79608890018426,130.29545520013198,None,,,,,,,,,,,,,,,,,,,,,,,,,,,,,,,,,,,,,,,,,,11033,001,2024_Jan_11_1853,nback,2021.2.3,59.8901375596576,
2-back,instructions\back-2.png,conditions\2back-p.xlsx,instructions\2-BACK.png,"(25, 15)",practice,2,3,stim\gray.png,stim\gray.png,stim\yellow.png,stim\gray.png,up,0,0,0,0,0,2,2,2,0,16,16,16,,,,,,,,,,,,,,,,,,,,,,,,,,,131.79754470009357,132.79911370016634,131.79754470009357,132.79911370016634,131.79754470009357,132.79911370016634,131.79754470009357,132.79911370016634,right,0,0.521000700071454,131.79754470009357,None,131.79754470009357,None,131.79754470009357,132.29878870001994,131.79754470009357,132.29878870001994,131.79754470009357,132.29878870001994,131.79754470009357,132.29878870001994,131.79754470009357,None,,,,,,,,,,,,,,,,,,,,,,,,,,,,,,,,,,,,,,,,,,11033,001,2024_Jan_11_1853,nback,2021.2.3,59.8901375596576,
2-back,instructions\back-2.png,conditions\2back-p.xlsx,instructions\2-BACK.png,"(25, 15)",practice,2,1,stim\yellow.png,stim\gray.png,stim\gray.png,stim\gray.png,left,0,0,0,0,0,2,2,2,0,17,17,17,,,,,,,,,,,,,,,,,,,,,,,,,,,133.29981250013225,134.30148260015994,133.29981250013225,134.30148260015994,133.29981250013225,134.30148260015994,133.29981250013225,134.30148260015994,None,0,,133.29981250013225,None,133.29981250013225,None,133.29981250013225,133.80102130002342,133.29981250013225,133.80102130002342,133.29981250013225,133.80102130002342,133.29981250013225,133.80102130002342,133.29981250013225,None,,,,,,,,,,,,,,,,,,,,,,,,,,,,,,,,,,,,,,,,,,11033,001,2024_Jan_11_1853,nback,2021.2.3,59.8901375596576,
2-back,instructions\back-2.png,conditions\2back-p.xlsx,instructions\2-BACK.png,"(25, 15)",practice,2,4,stim\gray.png,stim\gray.png,stim\gray.png,stim\yellow.png,right,0,0,0,0,0,2,2,2,0,18,18,18,,,,,,,,,,,,,,,,,,,,,,,,,,,134.80232140002772,135.80429760017432,134.80232140002772,135.80429760017432,134.80232140002772,135.80429760017432,134.80232140002772,135.80429760017432,None,0,,134.80232140002772,None,134.80232140002772,None,134.80232140002772,135.3040464001242,134.80232140002772,135.3040464001242,134.80232140002772,135.3040464001242,134.80232140002772,135.3040464001242,134.80232140002772,None,,,,,,,,,,,,,,,,,,,,,,,,,,,,,,,,,,,,,,,,,,11033,001,2024_Jan_11_1853,nback,2021.2.3,59.8901375596576,
2-back,instructions\back-2.png,conditions\2back-p.xlsx,instructions\2-BACK.png,"(25, 15)",practice,2,2,stim\gray.png,stim\yellow.png,stim\gray.png,stim\gray.png,up,0,0,0,0,0,2,2,2,0,19,19,19,,,,,,,,,,,,,,,,,,,,,,,,,,,136.30469650006853,137.3069126000628,136.30469650006853,137.3069126000628,136.30469650006853,137.3069126000628,136.30469650006853,137.3069126000628,up,1,0.19814779981970787,136.30469650006853,None,136.30469650006853,None,136.30469650006853,136.80515180015936,136.30469650006853,136.80515180015936,136.30469650006853,136.80515180015936,136.30469650006853,136.80515180015936,136.30469650006853,None,,,,,,,,,,,,,,,,,,,,,,,,,,,,,,,,,,,,,,,,,,11033,001,2024_Jan_11_1853,nback,2021.2.3,59.8901375596576,
2-back,instructions\back-2.png,conditions\2back-p.xlsx,instructions\2-BACK.png,"(25, 15)",,,,,,,,,0,0,0,0,0,2,2,2,,,,,,,,,,,,,,,,,,,,,,,,,,,,,,,,,,,,,,,,,,,,,,,,,,,,,,,,,,,,,,,,,,,,,,,,,,,,,,,,,,,,,,,,,,,,,,,,,11033,001,2024_Jan_11_1853,nback,2021.2.3,59.8901375596576,
,,,,,,,,,,,,,0,0,0,0,,,,,,,,,,,,,,,,,,,,,,,,,,,,,,,,,,,,,,,,,,,,,,,,,,,,,,,,,,,,137.80728320009075,None,s,5.04710129997693,137.80728320009075,None,,,,,,,,,,,,,,,,,,,,,,,,,,,,,,,,,,,,11033,001,2024_Jan_11_1853,nback,2021.2.3,59.8901375596576,
0-back,instructions\back-0.png,conditions\0back-p.xlsx,instructions\0-BACK.png,"(15, 8)",practice,0,1,stim\yellow.png,stim\gray.png,stim\gray.png,stim\gray.png,up,1,0,1,0,0,0,0,0,0,0,0,0,,,,,,,,,,,,,,,,,142.997704599984,None,space,4.889561699936166,142.997704599984,None,148.106093400158,152.6137211001478,152.52854770002887,None,152.92993230000138,153.93051720014773,152.92993230000138,153.93051720014773,152.92993230000138,153.93051720014773,152.92993230000138,153.93051720014773,up,1,0.40486739994958043,152.92993230000138,None,152.92993230000138,None,152.92993230000138,153.42952270014212,152.92993230000138,153.42952270014212,152.92993230000138,153.42952270014212,152.92993230000138,153.42952270014212,152.92993230000138,None,,,,,,,,,,,,,,,,,,,,,,,,,,,,,,,,,,,,,,,,,,11033,001,2024_Jan_11_1853,nback,2021.2.3,59.8901375596576,
0-back,instructions\back-0.png,conditions\0back-p.xlsx,instructions\0-BACK.png,"(15, 8)",practice,0,2,stim\gray.png,stim\yellow.png,stim\gray.png,stim\gray.png,left,1,0,1,0,0,0,0,0,0,1,1,1,,,,,,,,,,,,,,,,,,,,,,,,,,,154.41471070004627,155.41651000012644,154.41471070004627,155.41651000012644,154.41471070004627,155.41651000012644,154.41471070004627,155.41651000012644,left,1,0.5035766998771578,154.41471070004627,None,154.41471070004627,None,154.41471070004627,154.91505280020647,154.41471070004627,154.91505280020647,154.41471070004627,154.91505280020647,154.41471070004627,154.91505280020647,154.41471070004627,None,,,,,,,,,,,,,,,,,,,,,,,,,,,,,,,,,,,,,,,,,,11033,001,2024_Jan_11_1853,nback,2021.2.3,59.8901375596576,
0-back,instructions\back-0.png,conditions\0back-p.xlsx,instructions\0-BACK.png,"(15, 8)",practice,0,3,stim\gray.png,stim\gray.png,stim\yellow.png,stim\gray.png,right,1,0,1,0,0,0,0,0,0,2,2,2,,,,,,,,,,,,,,,,,,,,,,,,,,,155.91664519999176,156.9180798002053,155.91664519999176,156.9180798002053,155.91664519999176,156.9180798002053,155.91664519999176,156.9180798002053,right,1,0.2818402999546379,155.91664519999176,None,155.91664519999176,None,155.91664519999176,156.41733820014633,155.91664519999176,156.41733820014633,155.91664519999176,156.41733820014633,155.91664519999176,156.41733820014633,155.91664519999176,None,,,,,,,,,,,,,,,,,,,,,,,,,,,,,,,,,,,,,,,,,,11033,001,2024_Jan_11_1853,nback,2021.2.3,59.8901375596576,
0-back,instructions\back-0.png,conditions\0back-p.xlsx,instructions\0-BACK.png,"(15, 8)",practice,0,4,stim\gray.png,stim\gray.png,stim\gray.png,stim\yellow.png,down,1,0,1,0,0,0,0,0,0,3,3,3,,,,,,,,,,,,,,,,,,,,,,,,,,,157.41884679999202,158.42018490005285,157.41884679999202,158.42018490005285,157.41884679999202,158.42018490005285,157.41884679999202,158.42018490005285,down,1,0.4275474997702986,157.41884679999202,None,157.41884679999202,None,157.41884679999202,157.92036140011624,157.41884679999202,157.92036140011624,157.41884679999202,157.92036140011624,157.41884679999202,157.92036140011624,157.41884679999202,None,,,,,,,,,,,,,,,,,,,,,,,,,,,,,,,,,,,,,,,,,,11033,001,2024_Jan_11_1853,nback,2021.2.3,59.8901375596576,
0-back,instructions\back-0.png,conditions\0back-p.xlsx,instructions\0-BACK.png,"(15, 8)",practice,0,2,stim\gray.png,stim\yellow.png,stim\gray.png,stim\gray.png,left,1,0,1,0,0,0,0,0,0,4,4,4,,,,,,,,,,,,,,,,,,,,,,,,,,,158.92079630005173,159.92295540007763,158.92079630005173,159.92295540007763,158.92079630005173,159.92295540007763,158.92079630005173,159.92295540007763,left,1,0.3255779999308288,158.92079630005173,None,158.92079630005173,None,158.92079630005173,159.42231629998423,158.92079630005173,159.42231629998423,158.92079630005173,159.42231629998423,158.92079630005173,159.42231629998423,158.92079630005173,None,,,,,,,,,,,,,,,,,,,,,,,,,,,,,,,,,,,,,,,,,,11033,001,2024_Jan_11_1853,nback,2021.2.3,59.8901375596576,
0-back,instructions\back-0.png,conditions\0back-p.xlsx,instructions\0-BACK.png,"(15, 8)",practice,0,1,stim\yellow.png,stim\gray.png,stim\gray.png,stim\gray.png,up,1,0,1,0,0,0,0,0,0,5,5,5,,,,,,,,,,,,,,,,,,,,,,,,,,,160.42323309998028,161.4248496000655,160.42323309998028,161.4248496000655,160.42323309998028,161.4248496000655,160.42323309998028,161.4248496000655,up,1,0.4641315001063049,160.42323309998028,None,160.42323309998028,None,160.42323309998028,160.92390220006928,160.42323309998028,160.92390220006928,160.42323309998028,160.92390220006928,160.42323309998028,160.92390220006928,160.42323309998028,None,,,,,,,,,,,,,,,,,,,,,,,,,,,,,,,,,,,,,,,,,,11033,001,2024_Jan_11_1853,nback,2021.2.3,59.8901375596576,
0-back,instructions\back-0.png,conditions\0back-p.xlsx,instructions\0-BACK.png,"(15, 8)",practice,0,4,stim\gray.png,stim\gray.png,stim\gray.png,stim\yellow.png,down,1,0,1,0,0,0,0,0,0,6,6,6,,,,,,,,,,,,,,,,,,,,,,,,,,,161.92614850006066,162.92696250020526,161.92614850006066,162.92696250020526,161.92614850006066,162.92696250020526,161.92614850006066,162.92696250020526,down,1,0.4961794998962432,161.92614850006066,None,161.92614850006066,None,161.92614850006066,162.42614950006828,161.92614850006066,162.42614950006828,161.92614850006066,162.42614950006828,161.92614850006066,162.42614950006828,161.92614850006066,None,,,,,,,,,,,,,,,,,,,,,,,,,,,,,,,,,,,,,,,,,,11033,001,2024_Jan_11_1853,nback,2021.2.3,59.8901375596576,
0-back,instructions\back-0.png,conditions\0back-p.xlsx,instructions\0-BACK.png,"(15, 8)",practice,0,3,stim\gray.png,stim\gray.png,stim\yellow.png,stim\gray.png,right,1,0,1,0,0,0,0,0,0,7,7,7,,,,,,,,,,,,,,,,,,,,,,,,,,,163.41112870001234,164.41322730015963,163.41112870001234,164.41322730015963,163.41112870001234,164.41322730015963,163.41112870001234,164.41322730015963,right,1,0.31566740013659,163.41112870001234,None,163.41112870001234,None,163.41112870001234,163.91182010015473,163.41112870001234,163.91182010015473,163.41112870001234,163.91182010015473,163.41112870001234,163.91182010015473,163.41112870001234,None,,,,,,,,,,,,,,,,,,,,,,,,,,,,,,,,,,,,,,,,,,11033,001,2024_Jan_11_1853,nback,2021.2.3,59.8901375596576,
0-back,instructions\back-0.png,conditions\0back-p.xlsx,instructions\0-BACK.png,"(15, 8)",practice,0,3,stim\gray.png,stim\gray.png,stim\yellow.png,stim\gray.png,right,1,0,1,0,0,0,0,0,0,8,8,8,,,,,,,,,,,,,,,,,,,,,,,,,,,164.91326750000007,165.9151137000881,164.91326750000007,165.9151137000881,164.91326750000007,165.9151137000881,164.91326750000007,165.9151137000881,right,1,1.0132285000290722,164.91326750000007,None,164.91326750000007,None,164.91326750000007,165.4142838001717,164.91326750000007,165.4142838001717,164.91326750000007,165.4142838001717,164.91326750000007,165.4142838001717,164.91326750000007,None,,,,,,,,,,,,,,,,,,,,,,,,,,,,,,,,,,,,,,,,,,11033,001,2024_Jan_11_1853,nback,2021.2.3,59.8901375596576,
0-back,instructions\back-0.png,conditions\0back-p.xlsx,instructions\0-BACK.png,"(15, 8)",practice,0,4,stim\gray.png,stim\gray.png,stim\gray.png,stim\yellow.png,down,1,0,1,0,0,0,0,0,0,9,9,9,,,,,,,,,,,,,,,,,,,,,,,,,,,166.41544370003976,167.41716070007533,166.41544370003976,167.41716070007533,166.41544370003976,167.41716070007533,166.41544370003976,167.41716070007533,down,1,0.42323259986005723,166.41544370003976,None,166.41544370003976,None,166.41544370003976,166.91680590016767,166.41544370003976,166.91680590016767,166.41544370003976,166.91680590016767,166.41544370003976,166.91680590016767,166.41544370003976,None,,,,,,,,,,,,,,,,,,,,,,,,,,,,,,,,,,,,,,,,,,11033,001,2024_Jan_11_1853,nback,2021.2.3,59.8901375596576,
0-back,instructions\back-0.png,conditions\0back-p.xlsx,instructions\0-BACK.png,"(15, 8)",practice,0,1,stim\yellow.png,stim\gray.png,stim\gray.png,stim\gray.png,up,1,0,1,0,0,0,0,0,0,10,10,10,,,,,,,,,,,,,,,,,,,,,,,,,,,167.91767760016955,168.9196443001274,167.91767760016955,168.9196443001274,167.91767760016955,168.9196443001274,167.91767760016955,168.9196443001274,up,1,0.27292689983733,167.91767760016955,None,167.91767760016955,None,167.91767760016955,168.41835500020534,167.91767760016955,168.41835500020534,167.91767760016955,168.41835500020534,167.91767760016955,168.41835500020534,167.91767760016955,None,,,,,,,,,,,,,,,,,,,,,,,,,,,,,,,,,,,,,,,,,,11033,001,2024_Jan_11_1853,nback,2021.2.3,59.8901375596576,
0-back,instructions\back-0.png,conditions\0back-p.xlsx,instructions\0-BACK.png,"(15, 8)",practice,0,2,stim\gray.png,stim\yellow.png,stim\gray.png,stim\gray.png,left,1,0,1,0,0,0,0,0,0,11,11,11,,,,,,,,,,,,,,,,,,,,,,,,,,,169.4199879001826,170.42247200012207,169.4199879001826,170.42247200012207,169.4199879001826,170.42247200012207,169.4199879001826,170.42247200012207,left,1,0.33082279982045293,169.4199879001826,None,169.4199879001826,None,169.4199879001826,169.9204487001989,169.4199879001826,169.9204487001989,169.4199879001826,169.9204487001989,169.4199879001826,169.9204487001989,169.4199879001826,None,,,,,,,,,,,,,,,,,,,,,,,,,,,,,,,,,,,,,,,,,,11033,001,2024_Jan_11_1853,nback,2021.2.3,59.8901375596576,
0-back,instructions\back-0.png,conditions\0back-p.xlsx,instructions\0-BACK.png,"(15, 8)",practice,0,4,stim\gray.png,stim\gray.png,stim\gray.png,stim\yellow.png,down,1,0,1,0,0,0,0,0,0,12,12,12,,,,,,,,,,,,,,,,,,,,,,,,,,,170.9221026999876,171.92369810002856,170.9221026999876,171.92369810002856,170.9221026999876,171.92369810002856,170.9221026999876,171.92369810002856,down,1,0.4524439999368042,170.9221026999876,None,170.9221026999876,None,170.9221026999876,171.42360129998997,170.9221026999876,171.42360129998997,170.9221026999876,171.42360129998997,170.9221026999876,171.42360129998997,170.9221026999876,None,,,,,,,,,,,,,,,,,,,,,,,,,,,,,,,,,,,,,,,,,,11033,001,2024_Jan_11_1853,nback,2021.2.3,59.8901375596576,
0-back,instructions\back-0.png,conditions\0back-p.xlsx,instructions\0-BACK.png,"(15, 8)",practice,0,3,stim\gray.png,stim\gray.png,stim\yellow.png,stim\gray.png,right,1,0,1,0,0,0,0,0,0,13,13,13,,,,,,,,,,,,,,,,,,,,,,,,,,,172.42424260010011,173.42585800006054,172.42424260010011,173.42585800006054,172.42424260010011,173.42585800006054,172.42424260010011,173.42585800006054,right,1,0.2863799000624567,172.42424260010011,None,172.42424260010011,None,172.42424260010011,172.9250657001976,172.42424260010011,172.9250657001976,172.42424260010011,172.9250657001976,172.42424260010011,172.9250657001976,172.42424260010011,None,,,,,,,,,,,,,,,,,,,,,,,,,,,,,,,,,,,,,,,,,,11033,001,2024_Jan_11_1853,nback,2021.2.3,59.8901375596576,
0-back,instructions\back-0.png,conditions\0back-p.xlsx,instructions\0-BACK.png,"(15, 8)",practice,0,1,stim\yellow.png,stim\gray.png,stim\gray.png,stim\gray.png,up,1,0,1,0,0,0,0,0,0,14,14,14,,,,,,,,,,,,,,,,,,,,,,,,,,,173.9098663001787,174.91225450020283,173.9098663001787,174.91225450020283,173.9098663001787,174.91225450020283,173.9098663001787,174.91225450020283,up,1,0.408597799949348,173.9098663001787,None,173.9098663001787,None,173.9098663001787,174.41118440008722,173.9098663001787,174.41118440008722,173.9098663001787,174.41118440008722,173.9098663001787,174.41118440008722,173.9098663001787,None,,,,,,,,,,,,,,,,,,,,,,,,,,,,,,,,,,,,,,,,,,11033,001,2024_Jan_11_1853,nback,2021.2.3,59.8901375596576,
0-back,instructions\back-0.png,conditions\0back-p.xlsx,instructions\0-BACK.png,"(15, 8)",practice,0,2,stim\gray.png,stim\yellow.png,stim\gray.png,stim\gray.png,left,1,0,1,0,0,0,0,0,0,15,15,15,,,,,,,,,,,,,,,,,,,,,,,,,,,175.4126416000072,176.41429530014284,175.4126416000072,176.41429530014284,175.4126416000072,176.41429530014284,175.4126416000072,176.41429530014284,left,1,0.4021119000390172,175.4126416000072,None,175.4126416000072,None,175.4126416000072,175.9138003999833,175.4126416000072,175.9138003999833,175.4126416000072,175.9138003999833,175.4126416000072,175.9138003999833,175.4126416000072,None,,,,,,,,,,,,,,,,,,,,,,,,,,,,,,,,,,,,,,,,,,11033,001,2024_Jan_11_1853,nback,2021.2.3,59.8901375596576,
0-back,instructions\back-0.png,conditions\0back-p.xlsx,instructions\0-BACK.png,"(15, 8)",practice,0,3,stim\gray.png,stim\gray.png,stim\yellow.png,stim\gray.png,right,1,0,1,0,0,0,0,0,0,16,16,16,,,,,,,,,,,,,,,,,,,,,,,,,,,176.91435400000773,177.9164958000183,176.91435400000773,177.9164958000183,176.91435400000773,177.9164958000183,176.91435400000773,177.9164958000183,right,1,0.29211800009943545,176.91435400000773,None,176.91435400000773,None,176.91435400000773,177.4157999001909,176.91435400000773,177.4157999001909,176.91435400000773,177.4157999001909,176.91435400000773,177.4157999001909,176.91435400000773,None,,,,,,,,,,,,,,,,,,,,,,,,,,,,,,,,,,,,,,,,,,11033,001,2024_Jan_11_1853,nback,2021.2.3,59.8901375596576,
0-back,instructions\back-0.png,conditions\0back-p.xlsx,instructions\0-BACK.png,"(15, 8)",practice,0,1,stim\yellow.png,stim\gray.png,stim\gray.png,stim\gray.png,up,1,0,1,0,0,0,0,0,0,17,17,17,,,,,,,,,,,,,,,,,,,,,,,,,,,178.41659390018322,179.41815570020117,178.41659390018322,179.41815570020117,178.41659390018322,179.41815570020117,178.41659390018322,179.41815570020117,up,1,0.4143103000242263,178.41659390018322,None,178.41659390018322,None,178.41659390018322,178.9171437001787,178.41659390018322,178.9171437001787,178.41659390018322,178.9171437001787,178.41659390018322,178.9171437001787,178.41659390018322,None,,,,,,,,,,,,,,,,,,,,,,,,,,,,,,,,,,,,,,,,,,11033,001,2024_Jan_11_1853,nback,2021.2.3,59.8901375596576,
0-back,instructions\back-0.png,conditions\0back-p.xlsx,instructions\0-BACK.png,"(15, 8)",practice,0,4,stim\gray.png,stim\gray.png,stim\gray.png,stim\yellow.png,down,1,0,1,0,0,0,0,0,0,18,18,18,,,,,,,,,,,,,,,,,,,,,,,,,,,179.9188081000466,180.9205188001506,179.9188081000466,180.9205188001506,179.9188081000466,180.9205188001506,179.9188081000466,180.9205188001506,down,1,0.4160047001205385,179.9188081000466,None,179.9188081000466,None,179.9188081000466,180.42018760018982,179.9188081000466,180.42018760018982,179.9188081000466,180.42018760018982,179.9188081000466,180.42018760018982,179.9188081000466,None,,,,,,,,,,,,,,,,,,,,,,,,,,,,,,,,,,,,,,,,,,11033,001,2024_Jan_11_1853,nback,2021.2.3,59.8901375596576,
0-back,instructions\back-0.png,conditions\0back-p.xlsx,instructions\0-BACK.png,"(15, 8)",practice,0,2,stim\gray.png,stim\yellow.png,stim\gray.png,stim\gray.png,left,1,0,1,0,0,0,0,0,0,19,19,19,,,,,,,,,,,,,,,,,,,,,,,,,,,181.42108040000312,182.42280380008742,181.42108040000312,182.42280380008742,181.42108040000312,182.42280380008742,181.42108040000312,182.42280380008742,left,1,0.3453512000851333,181.42108040000312,None,181.42108040000312,None,181.42108040000312,181.92185749998316,181.42108040000312,181.92185749998316,181.42108040000312,181.92185749998316,181.42108040000312,181.92185749998316,181.42108040000312,None,,,,,,,,,,,,,,,,,,,,,,,,,,,,,,,,,,,,,,,,,,11033,001,2024_Jan_11_1853,nback,2021.2.3,59.8901375596576,
0-back,instructions\back-0.png,conditions\0back-p.xlsx,instructions\0-BACK.png,"(15, 8)",,,,,,,,,1,0,1,0,0,0,0,0,,,,,,,,,,,,,,,,,,,,,,,,,,,,,,,,,,,,,,,,,,,,,,,,,,,,,,,,,,,,,,,,,,,,,,,,,,,,,,,,,,,,,,,,,,,,,,,,,11033,001,2024_Jan_11_1853,nback,2021.2.3,59.8901375596576,
1-back,instructions\back-1.png,conditions\1back-p.xlsx,instructions\1-BACK.png,"(25, 15)",practice,1,1,stim\yellow.png,stim\gray.png,stim\gray.png,stim\gray.png,None,1,0,1,0,0,1,1,1,0,0,0,0,,,,,,,,,,,,,,,,,183.07341670012102,None,space,5.997371400007978,183.07341670012102,None,189.23252209997736,193.73971530003473,193.70667260000482,None,194.12481459998526,195.12466299999505,194.12481459998526,195.12466299999505,194.12481459998526,195.12466299999505,194.12481459998526,195.12466299999505,None,1,,194.12481459998526,None,194.12481459998526,None,194.12481459998526,194.6242857000325,194.12481459998526,194.6242857000325,194.12481459998526,194.6242857000325,194.12481459998526,194.6242857000325,194.12481459998526,None,,,,,,,,,,,,,,,,,,,,,,,,,,,,,,,,,,,,,,,,,,11033,001,2024_Jan_11_1853,nback,2021.2.3,59.8901375596576,
1-back,instructions\back-1.png,conditions\1back-p.xlsx,instructions\1-BACK.png,"(25, 15)",practice,1,2,stim\gray.png,stim\yellow.png,stim\gray.png,stim\gray.png,up,1,0,1,0,0,1,1,1,0,1,1,1,,,,,,,,,,,,,,,,,,,,,,,,,,,195.60968300001696,196.6109204001259,195.60968300001696,196.6109204001259,195.60968300001696,196.6109204001259,195.60968300001696,196.6109204001259,up,1,0.5656687000300735,195.60968300001696,None,195.60968300001696,None,195.60968300001696,196.11030940013006,195.60968300001696,196.11030940013006,195.60968300001696,196.11030940013006,195.60968300001696,196.11030940013006,195.60968300001696,None,,,,,,,,,,,,,,,,,,,,,,,,,,,,,,,,,,,,,,,,,,11033,001,2024_Jan_11_1853,nback,2021.2.3,59.8901375596576,
1-back,instructions\back-1.png,conditions\1back-p.xlsx,instructions\1-BACK.png,"(25, 15)",practice,1,3,stim\gray.png,stim\gray.png,stim\yellow.png,stim\gray.png,left,1,0,1,0,0,1,1,1,0,2,2,2,,,,,,,,,,,,,,,,,,,,,,,,,,,197.1109335999936,198.11320840008557,197.1109335999936,198.11320840008557,197.1109335999936,198.11320840008557,197.1109335999936,198.11320840008557,right,0,1.2562975001055747,197.1109335999936,None,197.1109335999936,None,197.1109335999936,197.6130466000177,197.1109335999936,197.6130466000177,197.1109335999936,197.6130466000177,197.1109335999936,197.6130466000177,197.1109335999936,None,,,,,,,,,,,,,,,,,,,,,,,,,,,,,,,,,,,,,,,,,,11033,001,2024_Jan_11_1853,nback,2021.2.3,59.8901375596576,
1-back,instructions\back-1.png,conditions\1back-p.xlsx,instructions\1-BACK.png,"(25, 15)",practice,1,4,stim\gray.png,stim\gray.png,stim\gray.png,stim\yellow.png,right,1,0,1,0,0,1,1,1,0,3,3,3,,,,,,,,,,,,,,,,,,,,,,,,,,,198.6137943000067,199.61533180018887,198.6137943000067,199.61533180018887,198.6137943000067,199.61533180018887,198.6137943000067,199.61533180018887,None,0,,198.6137943000067,None,198.6137943000067,None,198.6137943000067,199.11605770001188,198.6137943000067,199.11605770001188,198.6137943000067,199.11605770001188,198.6137943000067,199.11605770001188,198.6137943000067,None,,,,,,,,,,,,,,,,,,,,,,,,,,,,,,,,,,,,,,,,,,11033,001,2024_Jan_11_1853,nback,2021.2.3,59.8901375596576,
1-back,instructions\back-1.png,conditions\1back-p.xlsx,instructions\1-BACK.png,"(25, 15)",practice,1,2,stim\gray.png,stim\yellow.png,stim\gray.png,stim\gray.png,down,1,0,1,0,0,1,1,1,0,4,4,4,,,,,,,,,,,,,,,,,,,,,,,,,,,200.11598400003277,201.11771710007451,200.11598400003277,201.11771710007451,200.11598400003277,201.11771710007451,200.11598400003277,201.11771710007451,down,1,0.12250419985502958,200.11598400003277,None,200.11598400003277,None,200.11598400003277,200.61633980018087,200.11598400003277,200.61633980018087,200.11598400003277,200.61633980018087,200.11598400003277,200.61633980018087,200.11598400003277,None,,,,,,,,,,,,,,,,,,,,,,,,,,,,,,,,,,,,,,,,,,11033,001,2024_Jan_11_1853,nback,2021.2.3,59.8901375596576,
1-back,instructions\back-1.png,conditions\1back-p.xlsx,instructions\1-BACK.png,"(25, 15)",practice,1,1,stim\yellow.png,stim\gray.png,stim\gray.png,stim\gray.png,left,1,0,1,0,0,1,1,1,0,5,5,5,,,,,,,,,,,,,,,,,,,,,,,,,,,201.6183748000767,202.61974280001596,201.6183748000767,202.61974280001596,201.6183748000767,202.61974280001596,201.6183748000767,202.61974280001596,left,1,0.20484720007516444,201.6183748000767,None,201.6183748000767,None,201.6183748000767,202.1191960000433,201.6183748000767,202.1191960000433,201.6183748000767,202.1191960000433,201.6183748000767,202.1191960000433,201.6183748000767,None,,,,,,,,,,,,,,,,,,,,,,,,,,,,,,,,,,,,,,,,,,11033,001,2024_Jan_11_1853,nback,2021.2.3,59.8901375596576,
1-back,instructions\back-1.png,conditions\1back-p.xlsx,instructions\1-BACK.png,"(25, 15)",practice,1,4,stim\gray.png,stim\gray.png,stim\gray.png,stim\yellow.png,up,1,0,1,0,0,1,1,1,0,6,6,6,,,,,,,,,,,,,,,,,,,,,,,,,,,203.10367960017174,204.10659690015018,203.10367960017174,204.10659690015018,203.10367960017174,204.10659690015018,203.10367960017174,204.10659690015018,up,1,0.22290159994736314,203.10367960017174,None,203.10367960017174,None,203.10367960017174,203.60442930017598,203.10367960017174,203.60442930017598,203.10367960017174,203.60442930017598,203.10367960017174,203.60442930017598,203.10367960017174,None,,,,,,,,,,,,,,,,,,,,,,,,,,,,,,,,,,,,,,,,,,11033,001,2024_Jan_11_1853,nback,2021.2.3,59.8901375596576,
1-back,instructions\back-1.png,conditions\1back-p.xlsx,instructions\1-BACK.png,"(25, 15)",practice,1,3,stim\gray.png,stim\gray.png,stim\yellow.png,stim\gray.png,down,1,0,1,0,0,1,1,1,0,7,7,7,,,,,,,,,,,,,,,,,,,,,,,,,,,204.60676960018463,205.6070356001146,204.60676960018463,205.6070356001146,204.60676960018463,205.6070356001146,204.60676960018463,205.6070356001146,down,1,0.1840796999167651,204.60676960018463,None,204.60676960018463,None,204.60676960018463,205.10713200015016,204.60676960018463,205.10713200015016,204.60676960018463,205.10713200015016,204.60676960018463,205.10713200015016,204.60676960018463,None,,,,,,,,,,,,,,,,,,,,,,,,,,,,,,,,,,,,,,,,,,11033,001,2024_Jan_11_1853,nback,2021.2.3,59.8901375596576,
1-back,instructions\back-1.png,conditions\1back-p.xlsx,instructions\1-BACK.png,"(25, 15)",practice,1,3,stim\gray.png,stim\gray.png,stim\yellow.png,stim\gray.png,right,1,0,1,0,0,1,1,1,0,8,8,8,,,,,,,,,,,,,,,,,,,,,,,,,,,206.10760600003414,207.10992120020092,206.10760600003414,207.10992120020092,206.10760600003414,207.10992120020092,206.10760600003414,207.10992120020092,right,1,0.39495999994687736,206.10760600003414,None,206.10760600003414,None,206.10760600003414,206.6096744001843,206.10760600003414,206.6096744001843,206.10760600003414,206.6096744001843,206.10760600003414,206.6096744001843,206.10760600003414,None,,,,,,,,,,,,,,,,,,,,,,,,,,,,,,,,,,,,,,,,,,11033,001,2024_Jan_11_1853,nback,2021.2.3,59.8901375596576,
1-back,instructions\back-1.png,conditions\1back-p.xlsx,instructions\1-BACK.png,"(25, 15)",practice,1,4,stim\gray.png,stim\gray.png,stim\gray.png,stim\yellow.png,right,1,0,1,0,0,1,1,1,0,9,9,9,,,,,,,,,,,,,,,,,,,,,,,,,,,207.6098087001592,208.61211560014635,207.6098087001592,208.61211560014635,207.6098087001592,208.61211560014635,207.6098087001592,208.61211560014635,right,1,0.19676560000516474,207.6098087001592,None,207.6098087001592,None,207.6098087001592,208.11222990020178,207.6098087001592,208.11222990020178,207.6098087001592,208.11222990020178,207.6098087001592,208.11222990020178,207.6098087001592,None,,,,,,,,,,,,,,,,,,,,,,,,,,,,,,,,,,,,,,,,,,11033,001,2024_Jan_11_1853,nback,2021.2.3,59.8901375596576,
1-back,instructions\back-1.png,conditions\1back-p.xlsx,instructions\1-BACK.png,"(25, 15)",practice,1,1,stim\yellow.png,stim\gray.png,stim\gray.png,stim\gray.png,down,1,0,1,0,0,1,1,1,0,10,10,10,,,,,,,,,,,,,,,,,,,,,,,,,,,209.11274200002663,210.11356450011954,209.11274200002663,210.11356450011954,209.11274200002663,210.11356450011954,209.11274200002663,210.11356450011954,down,1,0.11844370001927018,209.11274200002663,None,209.11274200002663,None,209.11274200002663,209.61305030016229,209.11274200002663,209.61305030016229,209.11274200002663,209.61305030016229,209.11274200002663,209.61305030016229,209.11274200002663,None,,,,,,,,,,,,,,,,,,,,,,,,,,,,,,,,,,,,,,,,,,11033,001,2024_Jan_11_1853,nback,2021.2.3,59.8901375596576,
1-back,instructions\back-1.png,conditions\1back-p.xlsx,instructions\1-BACK.png,"(25, 15)",practice,1,2,stim\gray.png,stim\yellow.png,stim\gray.png,stim\gray.png,up,1,0,1,0,0,1,1,1,0,11,11,11,,,,,,,,,,,,,,,,,,,,,,,,,,,210.6143392000813,211.61599100008607,210.6143392000813,211.61599100008607,210.6143392000813,211.61599100008607,210.6143392000813,211.61599100008607,up,1,0.1601677001453936,210.6143392000813,None,210.6143392000813,None,210.6143392000813,211.11583889997564,210.6143392000813,211.11583889997564,210.6143392000813,211.11583889997564,210.6143392000813,211.11583889997564,210.6143392000813,None,,,,,,,,,,,,,,,,,,,,,,,,,,,,,,,,,,,,,,,,,,11033,001,2024_Jan_11_1853,nback,2021.2.3,59.8901375596576,
1-back,instructions\back-1.png,conditions\1back-p.xlsx,instructions\1-BACK.png,"(25, 15)",practice,1,4,stim\gray.png,stim\gray.png,stim\gray.png,stim\yellow.png,left,1,0,1,0,0,1,1,1,0,12,12,12,,,,,,,,,,,,,,,,,,,,,,,,,,,212.1164794000797,213.1183096000459,212.1164794000797,213.1183096000459,212.1164794000797,213.1183096000459,212.1164794000797,213.1183096000459,left,1,0.08998869988135993,212.1164794000797,None,212.1164794000797,None,212.1164794000797,212.61793610011227,212.1164794000797,212.61793610011227,212.1164794000797,212.61793610011227,212.1164794000797,212.61793610011227,212.1164794000797,None,,,,,,,,,,,,,,,,,,,,,,,,,,,,,,,,,,,,,,,,,,11033,001,2024_Jan_11_1853,nback,2021.2.3,59.8901375596576,
1-back,instructions\back-1.png,conditions\1back-p.xlsx,instructions\1-BACK.png,"(25, 15)",practice,1,3,stim\gray.png,stim\gray.png,stim\yellow.png,stim\gray.png,down,1,0,1,0,0,1,1,1,0,13,13,13,,,,,,,,,,,,,,,,,,,,,,,,,,,213.61880589998327,214.6206941001583,213.61880589998327,214.6206941001583,213.61880589998327,214.6206941001583,213.61880589998327,214.6206941001583,down,1,0.06778569985181093,213.61880589998327,None,213.61880589998327,None,213.61880589998327,214.11928770015948,213.61880589998327,214.11928770015948,213.61880589998327,214.11928770015948,213.61880589998327,214.11928770015948,213.61880589998327,None,,,,,,,,,,,,,,,,,,,,,,,,,,,,,,,,,,,,,,,,,,11033,001,2024_Jan_11_1853,nback,2021.2.3,59.8901375596576,
1-back,instructions\back-1.png,conditions\1back-p.xlsx,instructions\1-BACK.png,"(25, 15)",practice,1,1,stim\yellow.png,stim\gray.png,stim\gray.png,stim\gray.png,right,1,0,1,0,0,1,1,1,0,14,14,14,,,,,,,,,,,,,,,,,,,,,,,,,,,215.10426950012334,216.10630440013483,215.10426950012334,216.10630440013483,215.10426950012334,216.10630440013483,215.10426950012334,216.10630440013483,right,1,0.12620840012095869,215.10426950012334,None,215.10426950012334,None,215.10426950012334,215.605628099991,215.10426950012334,215.605628099991,215.10426950012334,215.605628099991,215.10426950012334,215.605628099991,215.10426950012334,None,,,,,,,,,,,,,,,,,,,,,,,,,,,,,,,,,,,,,,,,,,11033,001,2024_Jan_11_1853,nback,2021.2.3,59.8901375596576,
1-back,instructions\back-1.png,conditions\1back-p.xlsx,instructions\1-BACK.png,"(25, 15)",practice,1,2,stim\gray.png,stim\yellow.png,stim\gray.png,stim\gray.png,up,1,0,1,0,0,1,1,1,0,15,15,15,,,,,,,,,,,,,,,,,,,,,,,,,,,216.60710270004347,217.60860990011133,216.60710270004347,217.60860990011133,216.60710270004347,217.60860990011133,216.60710270004347,217.60860990011133,up,1,0.055621600011363626,216.60710270004347,None,216.60710270004347,None,216.60710270004347,217.10788730019704,216.60710270004347,217.10788730019704,216.60710270004347,217.10788730019704,216.60710270004347,217.10788730019704,216.60710270004347,None,,,,,,,,,,,,,,,,,,,,,,,,,,,,,,,,,,,,,,,,,,11033,001,2024_Jan_11_1853,nback,2021.2.3,59.8901375596576,
1-back,instructions\back-1.png,conditions\1back-p.xlsx,instructions\1-BACK.png,"(25, 15)",practice,1,3,stim\gray.png,stim\gray.png,stim\yellow.png,stim\gray.png,left,1,0,1,0,0,1,1,1,0,16,16,16,,,,,,,,,,,,,,,,,,,,,,,,,,,218.10869240015745,219.11086410004646,218.10869240015745,219.11086410004646,218.10869240015745,219.11086410004646,218.10869240015745,219.11086410004646,left,1,0.11427560006268322,218.10869240015745,None,218.10869240015745,None,218.10869240015745,218.6101957000792,218.10869240015745,218.6101957000792,218.10869240015745,218.6101957000792,218.10869240015745,218.6101957000792,218.10869240015745,None,,,,,,,,,,,,,,,,,,,,,,,,,,,,,,,,,,,,,,,,,,11033,001,2024_Jan_11_1853,nback,2021.2.3,59.8901375596576,
1-back,instructions\back-1.png,conditions\1back-p.xlsx,instructions\1-BACK.png,"(25, 15)",practice,1,1,stim\yellow.png,stim\gray.png,stim\gray.png,stim\gray.png,right,1,0,1,0,0,1,1,1,0,17,17,17,,,,,,,,,,,,,,,,,,,,,,,,,,,219.61157740000635,220.6134505001828,219.61157740000635,220.6134505001828,219.61157740000635,220.6134505001828,219.61157740000635,220.6134505001828,right,1,0.17115120007656515,219.61157740000635,None,219.61157740000635,None,219.61157740000635,220.1124627001118,219.61157740000635,220.1124627001118,219.61157740000635,220.1124627001118,219.61157740000635,220.1124627001118,219.61157740000635,None,,,,,,,,,,,,,,,,,,,,,,,,,,,,,,,,,,,,,,,,,,11033,001,2024_Jan_11_1853,nback,2021.2.3,59.8901375596576,
1-back,instructions\back-1.png,conditions\1back-p.xlsx,instructions\1-BACK.png,"(25, 15)",practice,1,4,stim\gray.png,stim\gray.png,stim\gray.png,stim\yellow.png,up,1,0,1,0,0,1,1,1,0,18,18,18,,,,,,,,,,,,,,,,,,,,,,,,,,,221.1142192000989,222.11525929998606,221.1142192000989,222.11525929998606,221.1142192000989,222.11525929998606,221.1142192000989,222.11525929998606,up,1,0.11663509998470545,221.1142192000989,None,221.1142192000989,None,221.1142192000989,221.61454590014182,221.1142192000989,221.61454590014182,221.1142192000989,221.61454590014182,221.1142192000989,221.61454590014182,221.1142192000989,None,,,,,,,,,,,,,,,,,,,,,,,,,,,,,,,,,,,,,,,,,,11033,001,2024_Jan_11_1853,nback,2021.2.3,59.8901375596576,
1-back,instructions\back-1.png,conditions\1back-p.xlsx,instructions\1-BACK.png,"(25, 15)",practice,1,2,stim\gray.png,stim\yellow.png,stim\gray.png,stim\gray.png,down,1,0,1,0,0,1,1,1,0,19,19,19,,,,,,,,,,,,,,,,,,,,,,,,,,,222.61538069997914,223.6177684001159,222.61538069997914,223.6177684001159,222.61538069997914,223.6177684001159,222.61538069997914,223.6177684001159,None,0,,222.61538069997914,None,222.61538069997914,None,222.61538069997914,223.11622780002654,222.61538069997914,223.11622780002654,222.61538069997914,223.11622780002654,222.61538069997914,223.11622780002654,222.61538069997914,None,,,,,,,,,,,,,,,,,,,,,,,,,,,,,,,,,,,,,,,,,,11033,001,2024_Jan_11_1853,nback,2021.2.3,59.8901375596576,
1-back,instructions\back-1.png,conditions\1back-p.xlsx,instructions\1-BACK.png,"(25, 15)",,,,,,,,,1,0,1,0,0,1,1,1,,,,,,,,,,,,,,,,,,,,,,,,,,,,,,,,,,,,,,,,,,,,,,,,,,,,,,,,,,,,,,,,,,,,,,,,,,,,,,,,,,,,,,,,,,,,,,,,,11033,001,2024_Jan_11_1853,nback,2021.2.3,59.8901375596576,
2-back,instructions\back-2.png,conditions\2back-p.xlsx,instructions\2-BACK.png,"(25, 15)",practice,2,1,stim\yellow.png,stim\gray.png,stim\gray.png,stim\gray.png,None,1,0,1,0,0,2,2,2,0,0,0,0,,,,,,,,,,,,,,,,,224.25189399998635,None,space,2.842809700174257,224.25189399998635,None,227.2555422000587,231.76324330014177,231.7144914001692,None,232.14787880005315,233.1489190000575,232.14787880005315,233.1489190000575,232.14787880005315,233.1489190000575,232.14787880005315,233.1489190000575,None,1,,232.14787880005315,None,232.14787880005315,None,232.14787880005315,232.6478598001413,232.14787880005315,232.6478598001413,232.14787880005315,232.6478598001413,232.14787880005315,232.6478598001413,232.14787880005315,None,,,,,,,,,,,,,,,,,,,,,,,,,,,,,,,,,,,,,,,,,,11033,001,2024_Jan_11_1853,nback,2021.2.3,59.8901375596576,
2-back,instructions\back-2.png,conditions\2back-p.xlsx,instructions\2-BACK.png,"(25, 15)",practice,2,2,stim\gray.png,stim\yellow.png,stim\gray.png,stim\gray.png,None,1,0,1,0,0,2,2,2,0,1,1,1,,,,,,,,,,,,,,,,,,,,,,,,,,,233.63151550013572,234.6339460001327,233.63151550013572,234.6339460001327,233.63151550013572,234.6339460001327,233.63151550013572,234.6339460001327,None,1,,233.63151550013572,None,233.63151550013572,None,233.63151550013572,234.13331559998915,233.63151550013572,234.13331559998915,233.63151550013572,234.13331559998915,233.63151550013572,234.13331559998915,233.63151550013572,None,,,,,,,,,,,,,,,,,,,,,,,,,,,,,,,,,,,,,,,,,,11033,001,2024_Jan_11_1853,nback,2021.2.3,59.8901375596576,
2-back,instructions\back-2.png,conditions\2back-p.xlsx,instructions\2-BACK.png,"(25, 15)",practice,2,3,stim\gray.png,stim\gray.png,stim\yellow.png,stim\gray.png,up,1,0,1,0,0,2,2,2,0,2,2,2,,,,,,,,,,,,,,,,,,,,,,,,,,,235.13460410013795,236.13629330019467,235.13460410013795,236.13629330019467,235.13460410013795,236.13629330019467,235.13460410013795,236.13629330019467,up,1,0.25612430018372834,235.13460410013795,None,235.13460410013795,None,235.13460410013795,235.6346037001349,235.13460410013795,235.6346037001349,235.13460410013795,235.6346037001349,235.13460410013795,235.6346037001349,235.13460410013795,None,,,,,,,,,,,,,,,,,,,,,,,,,,,,,,,,,,,,,,,,,,11033,001,2024_Jan_11_1853,nback,2021.2.3,59.8901375596576,
2-back,instructions\back-2.png,conditions\2back-p.xlsx,instructions\2-BACK.png,"(25, 15)",practice,2,4,stim\gray.png,stim\gray.png,stim\gray.png,stim\yellow.png,left,1,0,1,0,0,2,2,2,0,3,3,3,,,,,,,,,,,,,,,,,,,,,,,,,,,236.63623330020346,237.6388103000354,236.63623330020346,237.6388103000354,236.63623330020346,237.6388103000354,236.63623330020346,237.6388103000354,right,0,1.3707226999104023,236.63623330020346,None,236.63623330020346,None,236.63623330020346,237.13775230012834,236.63623330020346,237.13775230012834,236.63623330020346,237.13775230012834,236.63623330020346,237.13775230012834,236.63623330020346,None,,,,,,,,,,,,,,,,,,,,,,,,,,,,,,,,,,,,,,,,,,11033,001,2024_Jan_11_1853,nback,2021.2.3,59.8901375596576,
2-back,instructions\back-2.png,conditions\2back-p.xlsx,instructions\2-BACK.png,"(25, 15)",practice,2,2,stim\gray.png,stim\yellow.png,stim\gray.png,stim\gray.png,right,1,0,1,0,0,2,2,2,0,4,4,4,,,,,,,,,,,,,,,,,,,,,,,,,,,238.13891610014252,239.14070700015873,238.13891610014252,239.14070700015873,238.13891610014252,239.14070700015873,238.13891610014252,239.14070700015873,down,0,1.3000237999949604,238.13891610014252,None,238.13891610014252,None,238.13891610014252,238.63961270009167,238.13891610014252,238.63961270009167,238.13891610014252,238.63961270009167,238.13891610014252,238.63961270009167,238.13891610014252,None,,,,,,,,,,,,,,,,,,,,,,,,,,,,,,,,,,,,,,,,,,11033,001,2024_Jan_11_1853,nback,2021.2.3,59.8901375596576,
2-back,instructions\back-2.png,conditions\2back-p.xlsx,instructions\2-BACK.png,"(25, 15)",practice,2,1,stim\yellow.png,stim\gray.png,stim\gray.png,stim\gray.png,down,1,0,1,0,0,2,2,2,0,5,5,5,,,,,,,,,,,,,,,,,,,,,,,,,,,239.64065890014172,240.6424593999982,239.64065890014172,240.6424593999982,239.64065890014172,240.6424593999982,239.64065890014172,240.6424593999982,left,0,1.2538526998832822,239.64065890014172,None,239.64065890014172,None,239.64065890014172,240.1421650000848,239.64065890014172,240.1421650000848,239.64065890014172,240.1421650000848,239.64065890014172,240.1421650000848,239.64065890014172,None,,,,,,,,,,,,,,,,,,,,,,,,,,,,,,,,,,,,,,,,,,11033,001,2024_Jan_11_1853,nback,2021.2.3,59.8901375596576,
2-back,instructions\back-2.png,conditions\2back-p.xlsx,instructions\2-BACK.png,"(25, 15)",practice,2,4,stim\gray.png,stim\gray.png,stim\gray.png,stim\yellow.png,left,1,0,1,0,0,2,2,2,0,6,6,6,,,,,,,,,,,,,,,,,,,,,,,,,,,241.14299620012753,242.1455232000444,241.14299620012753,242.1455232000444,241.14299620012753,242.1455232000444,241.14299620012753,242.1455232000444,up,0,1.3839543999638408,241.14299620012753,None,241.14299620012753,None,241.14299620012753,241.64367740019225,241.14299620012753,241.64367740019225,241.14299620012753,241.64367740019225,241.14299620012753,241.64367740019225,241.14299620012753,None,,,,,,,,,,,,,,,,,,,,,,,,,,,,,,,,,,,,,,,,,,11033,001,2024_Jan_11_1853,nback,2021.2.3,59.8901375596576,
2-back,instructions\back-2.png,conditions\2back-p.xlsx,instructions\2-BACK.png,"(25, 15)",practice,2,3,stim\gray.png,stim\gray.png,stim\yellow.png,stim\gray.png,up,1,0,1,0,0,2,2,2,0,7,7,7,,,,,,,,,,,,,,,,,,,,,,,,,,,242.62833079998381,243.63018680014648,242.62833079998381,243.63018680014648,242.62833079998381,243.63018680014648,242.62833079998381,243.63018680014648,down,0,1.3220780999399722,242.62833079998381,None,242.62833079998381,None,242.62833079998381,243.13041590014473,242.62833079998381,243.13041590014473,242.62833079998381,243.13041590014473,242.62833079998381,243.13041590014473,242.62833079998381,None,,,,,,,,,,,,,,,,,,,,,,,,,,,,,,,,,,,,,,,,,,11033,001,2024_Jan_11_1853,nback,2021.2.3,59.8901375596576,
2-back,instructions\back-2.png,conditions\2back-p.xlsx,instructions\2-BACK.png,"(25, 15)",practice,2,3,stim\gray.png,stim\gray.png,stim\yellow.png,stim\gray.png,down,1,0,1,0,0,2,2,2,0,8,8,8,,,,,,,,,,,,,,,,,,,,,,,,,,,244.1314092001412,245.1331943999976,244.1314092001412,245.1331943999976,244.1314092001412,245.1331943999976,244.1314092001412,245.1331943999976,right,0,1.355649899924174,244.1314092001412,None,244.1314092001412,None,244.1314092001412,244.63286270014942,244.1314092001412,244.63286270014942,244.1314092001412,244.63286270014942,244.1314092001412,244.63286270014942,244.1314092001412,None,,,,,,,,,,,,,,,,,,,,,,,,,,,,,,,,,,,,,,,,,,11033,001,2024_Jan_11_1853,nback,2021.2.3,59.8901375596576,
2-back,instructions\back-2.png,conditions\2back-p.xlsx,instructions\2-BACK.png,"(25, 15)",practice,2,4,stim\gray.png,stim\gray.png,stim\gray.png,stim\yellow.png,right,1,0,1,0,0,2,2,2,0,9,9,9,,,,,,,,,,,,,,,,,,,,,,,,,,,245.6333196000196,246.63571900012903,245.6333196000196,246.63571900012903,245.6333196000196,246.63571900012903,245.6333196000196,246.63571900012903,right,1,1.3895674000959843,245.6333196000196,None,245.6333196000196,None,245.6333196000196,246.1344350001309,245.6333196000196,246.1344350001309,245.6333196000196,246.1344350001309,245.6333196000196,246.1344350001309,245.6333196000196,None,,,,,,,,,,,,,,,,,,,,,,,,,,,,,,,,,,,,,,,,,,11033,001,2024_Jan_11_1853,nback,2021.2.3,59.8901375596576,
2-back,instructions\back-2.png,conditions\2back-p.xlsx,instructions\2-BACK.png,"(25, 15)",practice,2,1,stim\yellow.png,stim\gray.png,stim\gray.png,stim\gray.png,right,1,0,1,0,0,2,2,2,0,10,10,10,,,,,,,,,,,,,,,,,,,,,,,,,,,247.13579099997878,248.13658420019783,247.13579099997878,248.13658420019783,247.13579099997878,248.13658420019783,247.13579099997878,248.13658420019783,down,0,1.3990853999275714,247.13579099997878,None,247.13579099997878,None,247.13579099997878,247.6362865001429,247.13579099997878,247.6362865001429,247.13579099997878,247.6362865001429,247.13579099997878,247.6362865001429,247.13579099997878,None,,,,,,,,,,,,,,,,,,,,,,,,,,,,,,,,,,,,,,,,,,11033,001,2024_Jan_11_1853,nback,2021.2.3,59.8901375596576,
2-back,instructions\back-2.png,conditions\2back-p.xlsx,instructions\2-BACK.png,"(25, 15)",practice,2,2,stim\gray.png,stim\yellow.png,stim\gray.png,stim\gray.png,down,1,0,1,0,0,2,2,2,0,11,11,11,,,,,,,,,,,,,,,,,,,,,,,,,,,248.63735170010477,249.63953609997407,248.63735170010477,249.63953609997407,248.63735170010477,249.63953609997407,248.63735170010477,249.63953609997407,None,0,,248.63735170010477,None,248.63735170010477,None,248.63735170010477,249.13883529999293,248.63735170010477,249.13883529999293,248.63735170010477,249.13883529999293,248.63735170010477,249.13883529999293,248.63735170010477,None,,,,,,,,,,,,,,,,,,,,,,,,,,,,,,,,,,,,,,,,,,11033,001,2024_Jan_11_1853,nback,2021.2.3,59.8901375596576,
2-back,instructions\back-2.png,conditions\2back-p.xlsx,instructions\2-BACK.png,"(25, 15)",practice,2,4,stim\gray.png,stim\gray.png,stim\gray.png,stim\yellow.png,up,1,0,1,0,0,2,2,2,0,12,12,12,,,,,,,,,,,,,,,,,,,,,,,,,,,250.1401244001463,251.14190270006657,250.1401244001463,251.14190270006657,250.1401244001463,251.14190270006657,250.1401244001463,251.14190270006657,up,1,0.05089049995876849,250.1401244001463,None,250.1401244001463,None,250.1401244001463,250.64114590012468,250.1401244001463,250.64114590012468,250.1401244001463,250.64114590012468,250.1401244001463,250.64114590012468,250.1401244001463,None,,,,,,,,,,,,,,,,,,,,,,,,,,,,,,,,,,,,,,,,,,11033,001,2024_Jan_11_1853,nback,2021.2.3,59.8901375596576,
2-back,instructions\back-2.png,conditions\2back-p.xlsx,instructions\2-BACK.png,"(25, 15)",practice,2,3,stim\gray.png,stim\gray.png,stim\yellow.png,stim\gray.png,left,1,0,1,0,0,2,2,2,0,13,13,13,,,,,,,,,,,,,,,,,,,,,,,,,,,251.64217600016855,252.6443147000391,251.64217600016855,252.6443147000391,251.64217600016855,252.6443147000391,251.64217600016855,252.6443147000391,left,1,0.0764073000755161,251.64217600016855,None,251.64217600016855,None,251.64217600016855,252.1425122001674,251.64217600016855,252.1425122001674,251.64217600016855,252.1425122001674,251.64217600016855,252.1425122001674,251.64217600016855,None,,,,,,,,,,,,,,,,,,,,,,,,,,,,,,,,,,,,,,,,,,11033,001,2024_Jan_11_1853,nback,2021.2.3,59.8901375596576,
2-back,instructions\back-2.png,conditions\2back-p.xlsx,instructions\2-BACK.png,"(25, 15)",practice,2,1,stim\yellow.png,stim\gray.png,stim\gray.png,stim\gray.png,down,1,0,1,0,0,2,2,2,0,14,14,14,,,,,,,,,,,,,,,,,,,,,,,,,,,253.127293900121,254.12901170016266,253.127293900121,254.12901170016266,253.127293900121,254.12901170016266,253.127293900121,254.12901170016266,right,0,1.3592550999019295,253.127293900121,None,253.127293900121,None,253.127293900121,253.62863290007226,253.127293900121,253.62863290007226,253.127293900121,253.62863290007226,253.127293900121,253.62863290007226,253.127293900121,None,,,,,,,,,,,,,,,,,,,,,,,,,,,,,,,,,,,,,,,,,,11033,001,2024_Jan_11_1853,nback,2021.2.3,59.8901375596576,
2-back,instructions\back-2.png,conditions\2back-p.xlsx,instructions\2-BACK.png,"(25, 15)",practice,2,2,stim\gray.png,stim\yellow.png,stim\gray.png,stim\gray.png,right,1,0,1,0,0,2,2,2,0,15,15,15,,,,,,,,,,,,,,,,,,,,,,,,,,,254.62955190008506,255.6310796001926,254.62955190008506,255.6310796001926,254.62955190008506,255.6310796001926,254.62955190008506,255.6310796001926,up,0,1.3213984998874366,254.62955190008506,None,254.62955190008506,None,254.62955190008506,255.13087610015646,254.62955190008506,255.13087610015646,254.62955190008506,255.13087610015646,254.62955190008506,255.13087610015646,254.62955190008506,None,,,,,,,,,,,,,,,,,,,,,,,,,,,,,,,,,,,,,,,,,,11033,001,2024_Jan_11_1853,nback,2021.2.3,59.8901375596576,
2-back,instructions\back-2.png,conditions\2back-p.xlsx,instructions\2-BACK.png,"(25, 15)",practice,2,3,stim\gray.png,stim\gray.png,stim\yellow.png,stim\gray.png,up,1,0,1,0,0,2,2,2,0,16,16,16,,,,,,,,,,,,,,,,,,,,,,,,,,,256.131514800014,257.1339843000751,256.131514800014,257.1339843000751,256.131514800014,257.1339843000751,256.131514800014,257.1339843000751,None,0,,256.131514800014,None,256.131514800014,None,256.131514800014,256.6333109000698,256.131514800014,256.6333109000698,256.131514800014,256.6333109000698,256.131514800014,256.6333109000698,256.131514800014,None,,,,,,,,,,,,,,,,,,,,,,,,,,,,,,,,,,,,,,,,,,11033,001,2024_Jan_11_1853,nback,2021.2.3,59.8901375596576,
2-back,instructions\back-2.png,conditions\2back-p.xlsx,instructions\2-BACK.png,"(25, 15)",practice,2,1,stim\yellow.png,stim\gray.png,stim\gray.png,stim\gray.png,left,1,0,1,0,0,2,2,2,0,17,17,17,,,,,,,,,,,,,,,,,,,,,,,,,,,257.6340365000069,258.6361387001816,257.6340365000069,258.6361387001816,257.6340365000069,258.6361387001816,257.6340365000069,258.6361387001816,right,0,1.4690877001266927,257.6340365000069,None,257.6340365000069,None,257.6340365000069,258.13470270019025,257.6340365000069,258.13470270019025,257.6340365000069,258.13470270019025,257.6340365000069,258.13470270019025,257.6340365000069,None,,,,,,,,,,,,,,,,,,,,,,,,,,,,,,,,,,,,,,,,,,11033,001,2024_Jan_11_1853,nback,2021.2.3,59.8901375596576,
2-back,instructions\back-2.png,conditions\2back-p.xlsx,instructions\2-BACK.png,"(25, 15)",practice,2,4,stim\gray.png,stim\gray.png,stim\gray.png,stim\yellow.png,right,1,0,1,0,0,2,2,2,0,18,18,18,,,,,,,,,,,,,,,,,,,,,,,,,,,259.13664180017076,260.1383289999794,259.13664180017076,260.1383289999794,259.13664180017076,260.1383289999794,259.13664180017076,260.1383289999794,up,0,1.4301607999950647,259.13664180017076,None,259.13664180017076,None,259.13664180017076,259.6368259000592,259.13664180017076,259.6368259000592,259.13664180017076,259.6368259000592,259.13664180017076,259.6368259000592,259.13664180017076,None,,,,,,,,,,,,,,,,,,,,,,,,,,,,,,,,,,,,,,,,,,11033,001,2024_Jan_11_1853,nback,2021.2.3,59.8901375596576,
2-back,instructions\back-2.png,conditions\2back-p.xlsx,instructions\2-BACK.png,"(25, 15)",practice,2,2,stim\gray.png,stim\yellow.png,stim\gray.png,stim\gray.png,up,1,0,1,0,0,2,2,2,0,19,19,19,,,,,,,,,,,,,,,,,,,,,,,,,,,260.63909220020287,261.64083710010163,260.63909220020287,261.64083710010163,260.63909220020287,261.64083710010163,260.63909220020287,261.64083710010163,down,0,1.4155502999201417,260.63909220020287,None,260.63909220020287,None,260.63909220020287,261.1391350000631,260.63909220020287,261.1391350000631,260.63909220020287,261.1391350000631,260.63909220020287,261.1391350000631,260.63909220020287,None,,,,,,,,,,,,,,,,,,,,,,,,,,,,,,,,,,,,,,,,,,11033,001,2024_Jan_11_1853,nback,2021.2.3,59.8901375596576,
2-back,instructions\back-2.png,conditions\2back-p.xlsx,instructions\2-BACK.png,"(25, 15)",,,,,,,,,1,0,1,0,0,2,2,2,,,,,,,,,,,,,,,,,,,,,,,,,,,,,,,,,,,,,,,,,,,,,,,,,,,,,,,,,,,,,,,,,,,,,,,,,,,,,,,,,,,,,,,,,,,,,,,,,11033,001,2024_Jan_11_1853,nback,2021.2.3,59.8901375596576,
,,,,,,,,,,,,,1,0,1,0,,,,,,,,,,,,,,,,,,,,,,,,,,,,,,,,,,,,,,,,,,,,,,,,,,,,,,,,,,,,262.1415008001495,None,space,3.513153900159523,262.1415008001495,None,,,,,,,,,,,,,,,,,,,,,,,,,,,,,,,,,,,,11033,001,2024_Jan_11_1853,nback,2021.2.3,59.8901375596576,
,,,,,,,,,,,,,,,,,,,,,,,,,,,,,,,,,,,,,,,,,,,,,,,,,,,,,,,,,,,,,,,,,,,,,,,,,,,,,,,,,,265.6792544000782,None,space,13.815548000158742,265.6792544000782,None,,,,,,,,,,,,,,,,,,,,,,,,,,,,,,11033,001,2024_Jan_11_1853,nback,2021.2.3,59.8901375596576,
1-back,instructions\back-1.png,conditions\10back-e.xlsx,,,experiment,1,3,stim\gray.png,stim\gray.png,stim\yellow.png,stim\gray.png,None,,,,,,,,,,,,,0,0,0,1,0,0,0,0,,,,,,,,,,,,,,,279.6837480000686,284.1919947999995,284.14088389999233,None,,,,,,,,,,,,,,,,,,,,,,,,,,,,,,,,,,,,,,None,1,284.54137030011043,None,284.54137030011043,None,284.54137030011043,285.542736900039,284.54137030011043,285.542736900039,284.54137030011043,285.542736900039,284.54137030011043,285.542736900039,284.54137030011043,285.04130560019985,284.54137030011043,285.04130560019985,284.54137030011043,285.04130560019985,284.54137030011043,285.04130560019985,284.54137030011043,None,,,,,,11033,001,2024_Jan_11_1853,nback,2021.2.3,59.8901375596576,
1-back,instructions\back-1.png,conditions\10back-e.xlsx,,,experiment,1,4,stim\gray.png,stim\gray.png,stim\gray.png,stim\yellow.png,right,,,,,,,,,,,,,0,0,0,1,0,1,1,1,,,,,,,,,,,,,,,,,,,,,,,,,,,,,,,,,,,,,,,,,,,,,,,,,,,,,,,,right,1,286.0263282000087,None,286.0263282000087,None,286.0263282000087,287.02759670000523,286.0263282000087,287.02759670000523,286.0263282000087,287.02759670000523,286.0263282000087,287.02759670000523,286.0263282000087,286.5274320000317,286.0263282000087,286.5274320000317,286.0263282000087,286.5274320000317,286.0263282000087,286.5274320000317,286.0263282000087,None,0.2762305000796914,,,,,11033,001,2024_Jan_11_1853,nback,2021.2.3,59.8901375596576,
1-back,instructions\back-1.png,conditions\10back-e.xlsx,,,experiment,1,4,stim\gray.png,stim\gray.png,stim\gray.png,stim\yellow.png,down,,,,,,,,,,,,,0,0,0,1,0,2,2,2,,,,,,,,,,,,,,,,,,,,,,,,,,,,,,,,,,,,,,,,,,,,,,,,,,,,,,,,down,1,287.52821110002697,None,287.52821110002697,None,287.52821110002697,288.53034769999795,287.52821110002697,288.53034769999795,287.52821110002697,288.53034769999795,287.52821110002697,288.53034769999795,287.52821110002697,288.02958220010623,287.52821110002697,288.02958220010623,287.52821110002697,288.02958220010623,287.52821110002697,288.02958220010623,287.52821110002697,None,0.1903543001972139,,,,,11033,001,2024_Jan_11_1853,nback,2021.2.3,59.8901375596576,
1-back,instructions\back-1.png,conditions\10back-e.xlsx,,,experiment,1,2,stim\gray.png,stim\yellow.png,stim\gray.png,stim\gray.png,down,,,,,,,,,,,,,0,0,0,1,0,3,3,3,,,,,,,,,,,,,,,,,,,,,,,,,,,,,,,,,,,,,,,,,,,,,,,,,,,,,,,,down,1,289.03112639999017,None,289.03112639999017,None,289.03112639999017,290.03256040019915,289.03112639999017,290.03256040019915,289.03112639999017,290.03256040019915,289.03112639999017,290.03256040019915,289.03112639999017,289.5322689001914,289.03112639999017,289.5322689001914,289.03112639999017,289.5322689001914,289.03112639999017,289.5322689001914,289.03112639999017,None,0.06413799989968538,,,,,11033,001,2024_Jan_11_1853,nback,2021.2.3,59.8901375596576,
1-back,instructions\back-1.png,conditions\10back-e.xlsx,,,experiment,1,1,stim\yellow.png,stim\gray.png,stim\gray.png,stim\gray.png,left,,,,,,,,,,,,,0,0,0,1,0,4,4,4,,,,,,,,,,,,,,,,,,,,,,,,,,,,,,,,,,,,,,,,,,,,,,,,,,,,,,,,up,0,290.5333444001153,None,290.5333444001153,None,290.5333444001153,291.5351405001711,290.5333444001153,291.5351405001711,290.5333444001153,291.5351405001711,290.5333444001153,291.5351405001711,290.5333444001153,291.0348132001236,290.5333444001153,291.0348132001236,290.5333444001153,291.0348132001236,290.5333444001153,291.0348132001236,290.5333444001153,None,1.4574398000258952,,,,,11033,001,2024_Jan_11_1853,nback,2021.2.3,59.8901375596576,
1-back,instructions\back-1.png,conditions\10back-e.xlsx,,,experiment,1,2,stim\gray.png,stim\yellow.png,stim\gray.png,stim\gray.png,up,,,,,,,,,,,,,0,0,0,1,0,5,5,5,,,,,,,,,,,,,,,,,,,,,,,,,,,,,,,,,,,,,,,,,,,,,,,,,,,,,,,,None,0,292.0349026999902,None,292.0349026999902,None,292.0349026999902,293.03648060001433,292.0349026999902,293.03648060001433,292.0349026999902,293.03648060001433,292.0349026999902,293.03648060001433,292.0349026999902,292.53641930012964,292.0349026999902,292.53641930012964,292.0349026999902,292.53641930012964,292.0349026999902,292.53641930012964,292.0349026999902,None,,,,,,11033,001,2024_Jan_11_1853,nback,2021.2.3,59.8901375596576,
1-back,instructions\back-1.png,conditions\10back-e.xlsx,,,experiment,1,3,stim\gray.png,stim\gray.png,stim\yellow.png,stim\gray.png,left,,,,,,,,,,,,,0,0,0,1,0,6,6,6,,,,,,,,,,,,,,,,,,,,,,,,,,,,,,,,,,,,,,,,,,,,,,,,,,,,,,,,left,1,293.53719780012034,None,293.53719780012034,None,293.53719780012034,294.53871520003304,293.53719780012034,294.53871520003304,293.53719780012034,294.53871520003304,293.53719780012034,294.53871520003304,293.53719780012034,294.0379691000562,293.53719780012034,294.0379691000562,293.53719780012034,294.0379691000562,293.53719780012034,294.0379691000562,293.53719780012034,None,0.06142470007762313,,,,,11033,001,2024_Jan_11_1853,nback,2021.2.3,59.8901375596576,
1-back,instructions\back-1.png,conditions\10back-e.xlsx,,,experiment,1,4,stim\gray.png,stim\gray.png,stim\gray.png,stim\yellow.png,right,,,,,,,,,,,,,0,0,0,1,0,7,7,7,,,,,,,,,,,,,,,,,,,,,,,,,,,,,,,,,,,,,,,,,,,,,,,,,,,,,,,,right,1,295.0230347001925,None,295.0230347001925,None,295.0230347001925,296.02475640014745,295.0230347001925,296.02475640014745,295.0230347001925,296.02475640014745,295.0230347001925,296.02475640014745,295.0230347001925,295.5245136001613,295.0230347001925,295.5245136001613,295.0230347001925,295.5245136001613,295.0230347001925,295.5245136001613,295.0230347001925,None,0.02381839998997748,,,,,11033,001,2024_Jan_11_1853,nback,2021.2.3,59.8901375596576,
1-back,instructions\back-1.png,conditions\10back-e.xlsx,,,experiment,1,1,stim\yellow.png,stim\gray.png,stim\gray.png,stim\gray.png,down,,,,,,,,,,,,,0,0,0,1,0,8,8,8,,,,,,,,,,,,,,,,,,,,,,,,,,,,,,,,,,,,,,,,,,,,,,,,,,,,,,,,down,1,296.5248608000111,None,296.5248608000111,None,296.5248608000111,297.5273536001332,296.5248608000111,297.5273536001332,296.5248608000111,297.5273536001332,296.5248608000111,297.5273536001332,296.5248608000111,297.0266799000092,296.5248608000111,297.0266799000092,296.5248608000111,297.0266799000092,296.5248608000111,297.0266799000092,296.5248608000111,None,0.03443010011687875,,,,,11033,001,2024_Jan_11_1853,nback,2021.2.3,59.8901375596576,
1-back,instructions\back-1.png,conditions\10back-e.xlsx,,,experiment,1,3,stim\gray.png,stim\gray.png,stim\yellow.png,stim\gray.png,up,,,,,,,,,,,,,0,0,0,1,0,9,9,9,,,,,,,,,,,,,,,,,,,,,,,,,,,,,,,,,,,,,,,,,,,,,,,,,,,,,,,,up,1,298.02806040016003,None,298.02806040016003,None,298.02806040016003,299.02935239998624,298.02806040016003,299.02935239998624,298.02806040016003,299.02935239998624,298.02806040016003,299.02935239998624,298.02806040016003,298.52961010020226,298.02806040016003,298.52961010020226,298.02806040016003,298.52961010020226,298.02806040016003,298.52961010020226,298.02806040016003,None,0.034577100072056055,,,,,11033,001,2024_Jan_11_1853,nback,2021.2.3,59.8901375596576,
1-back,instructions\back-1.png,conditions\10back-e.xlsx,,,experiment,1,1,stim\yellow.png,stim\gray.png,stim\gray.png,stim\gray.png,right,,,,,,,,,,,,,0,0,0,1,0,10,10,10,,,,,,,,,,,,,,,,,,,,,,,,,,,,,,,,,,,,,,,,,,,,,,,,,,,,,,,,right,1,299.53036400000565,None,299.53036400000565,None,299.53036400000565,300.53193340008147,299.53036400000565,300.53193340008147,299.53036400000565,300.53193340008147,299.53036400000565,300.53193340008147,299.53036400000565,300.0303704000544,299.53036400000565,300.0303704000544,299.53036400000565,300.0303704000544,299.53036400000565,300.0303704000544,299.53036400000565,None,0.12416159990243614,,,,,11033,001,2024_Jan_11_1853,nback,2021.2.3,59.8901375596576,
1-back,instructions\back-1.png,conditions\10back-e.xlsx,,,experiment,1,2,stim\gray.png,stim\yellow.png,stim\gray.png,stim\gray.png,up,,,,,,,,,,,,,0,0,0,1,0,11,11,11,,,,,,,,,,,,,,,,,,,,,,,,,,,,,,,,,,,,,,,,,,,,,,,,,,,,,,,,up,1,301.032102300087,None,301.032102300087,None,301.032102300087,302.033875600202,301.032102300087,302.033875600202,301.032102300087,302.033875600202,301.032102300087,302.033875600202,301.032102300087,301.53319830005057,301.032102300087,301.53319830005057,301.032102300087,301.53319830005057,301.032102300087,301.53319830005057,301.032102300087,None,0.10234070010483265,,,,,11033,001,2024_Jan_11_1853,nback,2021.2.3,59.8901375596576,
1-back,instructions\back-1.png,conditions\10back-e.xlsx,,,experiment,1,4,stim\gray.png,stim\gray.png,stim\gray.png,stim\yellow.png,left,,,,,,,,,,,,,0,0,0,1,0,12,12,12,,,,,,,,,,,,,,,,,,,,,,,,,,,,,,,,,,,,,,,,,,,,,,,,,,,,,,,,left,1,302.5336732000578,None,302.5336732000578,None,302.5336732000578,303.53598230006173,302.5336732000578,303.53598230006173,302.5336732000578,303.53598230006173,302.5336732000578,303.53598230006173,302.5336732000578,303.03553440002725,302.5336732000578,303.03553440002725,302.5336732000578,303.03553440002725,302.5336732000578,303.03553440002725,302.5336732000578,None,0.041322699980810285,,,,,11033,001,2024_Jan_11_1853,nback,2021.2.3,59.8901375596576,
1-back,instructions\back-1.png,conditions\10back-e.xlsx,,,experiment,1,3,stim\gray.png,stim\gray.png,stim\yellow.png,stim\gray.png,down,,,,,,,,,,,,,0,0,0,1,0,13,13,13,,,,,,,,,,,,,,,,,,,,,,,,,,,,,,,,,,,,,,,,,,,,,,,,,,,,,,,,down,1,304.03594370000064,None,304.03594370000064,None,304.03594370000064,305.03848620015197,304.03594370000064,305.03848620015197,304.03594370000064,305.03848620015197,304.03594370000064,305.03848620015197,304.03594370000064,304.5376617000438,304.03594370000064,304.5376617000438,304.03594370000064,304.5376617000438,304.03594370000064,304.5376617000438,304.03594370000064,None,0.1471233000047505,,,,,11033,001,2024_Jan_11_1853,nback,2021.2.3,59.8901375596576,
