backseq,backinstr,backfile,instruction,size_in,Trialtype,back,number,P1,P2,P3,P4,corrAns,trials_practice.thisRepN,trials_practice.thisTrialN,trials_practice.thisN,trials_practice.thisIndex,trials.thisRepN,trials.thisTrialN,trials.thisN,trials.thisIndex,trials_3.thisRepN,trials_3.thisTrialN,trials_3.thisN,trials_3.thisIndex,trials_2.thisRepN,trials_2.thisTrialN,trials_2.thisN,trials_2.thisIndex,trials_4.thisRepN,trials_4.thisTrialN,trials_4.thisN,trials_4.thisIndex,image.started,image.stopped,image_2.started,image_2.stopped,key_resp.keys,key_resp.rt,key_resp.started,key_resp.stopped,image_3.started,image_3.stopped,key_resp_2.keys,key_resp_2.rt,key_resp_2.started,key_resp_2.stopped,image_4.started,image_4.stopped,text.started,text.stopped,H1.started,H1.stopped,H2.started,H2.stopped,H3.started,H3.stopped,H4.started,H4.stopped,key_resp_3.keys,key_resp_3.corr,key_resp_3.rt,key_resp_3.started,key_resp_3.stopped,text_4.started,text_4.stopped,F1.started,F1.stopped,F2.started,F2.stopped,F3.started,F3.stopped,F4.started,F4.stopped,image_7.started,image_7.stopped,text_5.started,text_5.stopped,key_resp_6.keys,key_resp_6.rt,key_resp_6.started,key_resp_6.stopped,image_5.started,image_5.stopped,key_resp_4.keys,key_resp_4.rt,key_resp_4.started,key_resp_4.stopped,key_resp_5.keys,key_resp_5.corr,key_resp_5.started,key_resp_5.stopped,text_3.started,text_3.stopped,H1_2.started,H1_2.stopped,H2_2.started,H2_2.stopped,H3_2.started,H3_2.stopped,H4_2.started,H4_2.stopped,F1_2.started,F1_2.stopped,F2_2.started,F2_2.stopped,F3_2.started,F3_2.stopped,F4_2.started,F4_2.stopped,image_8.started,image_8.stopped,key_resp_5.rt,text_2.started,text_2.stopped,image_6.started,image_6.stopped,participant,session,date,expName,psychopyVersion,frameRate,
,,,,,,,,,,,,,,,,,,,,,,,,,,,,,,,,,12.562630800064653,None,13.430352699942887,None,space,6.782821099972352,13.430352699942887,None,,,,,,,,,,,,,,,,,,,,,,,,,,,,,,,,,,,,,,,,,,,,,,,,,,,,,,,,,,,,,,,,,,,,,,,,,,,,,11037,001,2024_Mar_11_1535,nback,2021.2.3,59.9362278145724,
0-back,instructions\back-0.png,conditions\0back-p.xlsx,instructions\0-BACK.png,"(15, 8)",practice,0,1,stim\yellow.png,stim\gray.png,stim\gray.png,stim\gray.png,up,0,0,0,0,0,0,0,0,0,0,0,0,,,,,,,,,,,,,,,,,20.29065590002574,None,space,4.138982699951157,20.29065590002574,None,24.63176060002297,29.137953100027516,29.088059099856764,None,29.471312399953604,30.47381230001338,29.471312399953604,30.47381230001338,29.471312399953604,30.47381230001338,29.471312399953604,30.47381230001338,up,1,0.7263612002134323,29.471312399953604,None,29.471312399953604,None,29.471312399953604,29.972222300013527,29.471312399953604,29.972222300013527,29.471312399953604,29.972222300013527,29.471312399953604,29.972222300013527,29.471312399953604,None,,,,,,,,,,,,,,,,,,,,,,,,,,,,,,,,,,,,,,,,,,11037,001,2024_Mar_11_1535,nback,2021.2.3,59.9362278145724,
0-back,instructions\back-0.png,conditions\0back-p.xlsx,instructions\0-BACK.png,"(15, 8)",practice,0,2,stim\gray.png,stim\yellow.png,stim\gray.png,stim\gray.png,left,0,0,0,0,0,0,0,0,0,1,1,1,,,,,,,,,,,,,,,,,,,,,,,,,,,30.957840400049463,31.95930580003187,30.957840400049463,31.95930580003187,30.957840400049463,31.95930580003187,30.957840400049463,31.95930580003187,left,1,0.4555943999439478,30.957840400049463,None,30.957840400049463,None,30.957840400049463,31.457792500033975,30.957840400049463,31.457792500033975,30.957840400049463,31.457792500033975,30.957840400049463,31.457792500033975,30.957840400049463,None,,,,,,,,,,,,,,,,,,,,,,,,,,,,,,,,,,,,,,,,,,11037,001,2024_Mar_11_1535,nback,2021.2.3,59.9362278145724,
0-back,instructions\back-0.png,conditions\0back-p.xlsx,instructions\0-BACK.png,"(15, 8)",practice,0,3,stim\gray.png,stim\gray.png,stim\yellow.png,stim\gray.png,right,0,0,0,0,0,0,0,0,0,2,2,2,,,,,,,,,,,,,,,,,,,,,,,,,,,32.46022989996709,33.46182899991982,32.46022989996709,33.46182899991982,32.46022989996709,33.46182899991982,32.46022989996709,33.46182899991982,right,1,0.44120400003157556,32.46022989996709,None,32.46022989996709,None,32.46022989996709,32.96050129993819,32.46022989996709,32.96050129993819,32.46022989996709,32.96050129993819,32.46022989996709,32.96050129993819,32.46022989996709,None,,,,,,,,,,,,,,,,,,,,,,,,,,,,,,,,,,,,,,,,,,11037,001,2024_Mar_11_1535,nback,2021.2.3,59.9362278145724,
0-back,instructions\back-0.png,conditions\0back-p.xlsx,instructions\0-BACK.png,"(15, 8)",practice,0,4,stim\gray.png,stim\gray.png,stim\gray.png,stim\yellow.png,down,0,0,0,0,0,0,0,0,0,3,3,3,,,,,,,,,,,,,,,,,,,,,,,,,,,33.961563899880275,34.96348639996722,33.961563899880275,34.96348639996722,33.961563899880275,34.96348639996722,33.961563899880275,34.96348639996722,down,1,0.41967199998907745,33.961563899880275,None,33.961563899880275,None,33.961563899880275,34.46224629995413,33.961563899880275,34.46224629995413,33.961563899880275,34.46224629995413,33.961563899880275,34.46224629995413,33.961563899880275,None,,,,,,,,,,,,,,,,,,,,,,,,,,,,,,,,,,,,,,,,,,11037,001,2024_Mar_11_1535,nback,2021.2.3,59.9362278145724,
0-back,instructions\back-0.png,conditions\0back-p.xlsx,instructions\0-BACK.png,"(15, 8)",practice,0,2,stim\gray.png,stim\yellow.png,stim\gray.png,stim\gray.png,left,0,0,0,0,0,0,0,0,0,4,4,4,,,,,,,,,,,,,,,,,,,,,,,,,,,35.463606300065294,36.46570389997214,35.463606300065294,36.46570389997214,35.463606300065294,36.46570389997214,35.463606300065294,36.46570389997214,left,1,0.34223890001885593,35.463606300065294,None,35.463606300065294,None,35.463606300065294,35.96443199994974,35.463606300065294,35.96443199994974,35.463606300065294,35.96443199994974,35.463606300065294,35.96443199994974,35.463606300065294,None,,,,,,,,,,,,,,,,,,,,,,,,,,,,,,,,,,,,,,,,,,11037,001,2024_Mar_11_1535,nback,2021.2.3,59.9362278145724,
0-back,instructions\back-0.png,conditions\0back-p.xlsx,instructions\0-BACK.png,"(15, 8)",practice,0,1,stim\yellow.png,stim\gray.png,stim\gray.png,stim\gray.png,up,0,0,0,0,0,0,0,0,0,5,5,5,,,,,,,,,,,,,,,,,,,,,,,,,,,36.966054499847814,37.96824750001542,36.966054499847814,37.96824750001542,36.966054499847814,37.96824750001542,36.966054499847814,37.96824750001542,up,1,0.43104670010507107,36.966054499847814,None,36.966054499847814,None,36.966054499847814,37.46672390005551,36.966054499847814,37.46672390005551,36.966054499847814,37.46672390005551,36.966054499847814,37.46672390005551,36.966054499847814,None,,,,,,,,,,,,,,,,,,,,,,,,,,,,,,,,,,,,,,,,,,11037,001,2024_Mar_11_1535,nback,2021.2.3,59.9362278145724,
0-back,instructions\back-0.png,conditions\0back-p.xlsx,instructions\0-BACK.png,"(15, 8)",practice,0,4,stim\gray.png,stim\gray.png,stim\gray.png,stim\yellow.png,down,0,0,0,0,0,0,0,0,0,6,6,6,,,,,,,,,,,,,,,,,,,,,,,,,,,38.46812559990212,39.47008559992537,38.46812559990212,39.47008559992537,38.46812559990212,39.47008559992537,38.46812559990212,39.47008559992537,down,1,0.36119970004074275,38.46812559990212,None,38.46812559990212,None,38.46812559990212,38.968992799986154,38.46812559990212,38.968992799986154,38.46812559990212,38.968992799986154,38.46812559990212,38.968992799986154,38.46812559990212,None,,,,,,,,,,,,,,,,,,,,,,,,,,,,,,,,,,,,,,,,,,11037,001,2024_Mar_11_1535,nback,2021.2.3,59.9362278145724,
0-back,instructions\back-0.png,conditions\0back-p.xlsx,instructions\0-BACK.png,"(15, 8)",practice,0,3,stim\gray.png,stim\gray.png,stim\yellow.png,stim\gray.png,right,0,0,0,0,0,0,0,0,0,7,7,7,,,,,,,,,,,,,,,,,,,,,,,,,,,39.95385279995389,40.95540910004638,39.95385279995389,40.95540910004638,39.95385279995389,40.95540910004638,39.95385279995389,40.95540910004638,right,1,0.5715564000420272,39.95385279995389,None,39.95385279995389,None,39.95385279995389,40.454679899849,39.95385279995389,40.454679899849,39.95385279995389,40.454679899849,39.95385279995389,40.454679899849,39.95385279995389,None,,,,,,,,,,,,,,,,,,,,,,,,,,,,,,,,,,,,,,,,,,11037,001,2024_Mar_11_1535,nback,2021.2.3,59.9362278145724,
0-back,instructions\back-0.png,conditions\0back-p.xlsx,instructions\0-BACK.png,"(15, 8)",practice,0,3,stim\gray.png,stim\gray.png,stim\yellow.png,stim\gray.png,right,0,0,0,0,0,0,0,0,0,8,8,8,,,,,,,,,,,,,,,,,,,,,,,,,,,41.45611219992861,42.45853960001841,41.45611219992861,42.45853960001841,41.45611219992861,42.45853960001841,41.45611219992861,42.45853960001841,right,1,0.46142710000276566,41.45611219992861,None,41.45611219992861,None,41.45611219992861,41.95707380003296,41.45611219992861,41.95707380003296,41.45611219992861,41.95707380003296,41.45611219992861,41.95707380003296,41.45611219992861,None,,,,,,,,,,,,,,,,,,,,,,,,,,,,,,,,,,,,,,,,,,11037,001,2024_Mar_11_1535,nback,2021.2.3,59.9362278145724,
0-back,instructions\back-0.png,conditions\0back-p.xlsx,instructions\0-BACK.png,"(15, 8)",practice,0,4,stim\gray.png,stim\gray.png,stim\gray.png,stim\yellow.png,down,0,0,0,0,0,0,0,0,0,9,9,9,,,,,,,,,,,,,,,,,,,,,,,,,,,42.9584021999035,43.96070840000175,42.9584021999035,43.96070840000175,42.9584021999035,43.96070840000175,42.9584021999035,43.96070840000175,down,1,0.4954468999058008,42.9584021999035,None,42.9584021999035,None,42.9584021999035,43.45922559988685,42.9584021999035,43.45922559988685,42.9584021999035,43.45922559988685,42.9584021999035,43.45922559988685,42.9584021999035,None,,,,,,,,,,,,,,,,,,,,,,,,,,,,,,,,,,,,,,,,,,11037,001,2024_Mar_11_1535,nback,2021.2.3,59.9362278145724,
0-back,instructions\back-0.png,conditions\0back-p.xlsx,instructions\0-BACK.png,"(15, 8)",practice,0,1,stim\yellow.png,stim\gray.png,stim\gray.png,stim\gray.png,up,0,0,0,0,0,0,0,0,0,10,10,10,,,,,,,,,,,,,,,,,,,,,,,,,,,44.46071709995158,45.462923999875784,44.46071709995158,45.462923999875784,44.46071709995158,45.462923999875784,44.46071709995158,45.462923999875784,up,1,0.37682550004683435,44.46071709995158,None,44.46071709995158,None,44.46071709995158,44.961289800005034,44.46071709995158,44.961289800005034,44.46071709995158,44.961289800005034,44.46071709995158,44.961289800005034,44.46071709995158,None,,,,,,,,,,,,,,,,,,,,,,,,,,,,,,,,,,,,,,,,,,11037,001,2024_Mar_11_1535,nback,2021.2.3,59.9362278145724,
0-back,instructions\back-0.png,conditions\0back-p.xlsx,instructions\0-BACK.png,"(15, 8)",practice,0,2,stim\gray.png,stim\yellow.png,stim\gray.png,stim\gray.png,left,0,0,0,0,0,0,0,0,0,11,11,11,,,,,,,,,,,,,,,,,,,,,,,,,,,45.963774600066245,46.96467999997549,45.963774600066245,46.96467999997549,45.963774600066245,46.96467999997549,45.963774600066245,46.96467999997549,left,1,0.5230324000585824,45.963774600066245,None,45.963774600066245,None,45.963774600066245,46.46369250002317,45.963774600066245,46.46369250002317,45.963774600066245,46.46369250002317,45.963774600066245,46.46369250002317,45.963774600066245,None,,,,,,,,,,,,,,,,,,,,,,,,,,,,,,,,,,,,,,,,,,11037,001,2024_Mar_11_1535,nback,2021.2.3,59.9362278145724,
0-back,instructions\back-0.png,conditions\0back-p.xlsx,instructions\0-BACK.png,"(15, 8)",practice,0,4,stim\gray.png,stim\gray.png,stim\gray.png,stim\yellow.png,down,0,0,0,0,0,0,0,0,0,12,12,12,,,,,,,,,,,,,,,,,,,,,,,,,,,47.465409100055695,48.467132499907166,47.465409100055695,48.467132499907166,47.465409100055695,48.467132499907166,47.465409100055695,48.467132499907166,down,1,0.5649190000258386,47.465409100055695,None,47.465409100055695,None,47.465409100055695,47.965894900029525,47.465409100055695,47.965894900029525,47.465409100055695,47.965894900029525,47.465409100055695,47.965894900029525,47.465409100055695,None,,,,,,,,,,,,,,,,,,,,,,,,,,,,,,,,,,,,,,,,,,11037,001,2024_Mar_11_1535,nback,2021.2.3,59.9362278145724,
0-back,instructions\back-0.png,conditions\0back-p.xlsx,instructions\0-BACK.png,"(15, 8)",practice,0,3,stim\gray.png,stim\gray.png,stim\yellow.png,stim\gray.png,right,0,0,0,0,0,0,0,0,0,13,13,13,,,,,,,,,,,,,,,,,,,,,,,,,,,48.96745179989375,49.97137130005285,48.96745179989375,49.97137130005285,48.96745179989375,49.97137130005285,48.96745179989375,49.97137130005285,right,1,0.510101499967277,48.96745179989375,None,48.96745179989375,None,48.96745179989375,49.46807639999315,48.96745179989375,49.46807639999315,48.96745179989375,49.46807639999315,48.96745179989375,49.46807639999315,48.96745179989375,None,,,,,,,,,,,,,,,,,,,,,,,,,,,,,,,,,,,,,,,,,,11037,001,2024_Mar_11_1535,nback,2021.2.3,59.9362278145724,
0-back,instructions\back-0.png,conditions\0back-p.xlsx,instructions\0-BACK.png,"(15, 8)",practice,0,1,stim\yellow.png,stim\gray.png,stim\gray.png,stim\gray.png,up,0,0,0,0,0,0,0,0,0,14,14,14,,,,,,,,,,,,,,,,,,,,,,,,,,,50.453912100056186,51.455712100025266,50.453912100056186,51.455712100025266,50.453912100056186,51.455712100025266,50.453912100056186,51.455712100025266,up,1,0.47198099992237985,50.453912100056186,None,50.453912100056186,None,50.453912100056186,50.953722100006416,50.453912100056186,50.953722100006416,50.453912100056186,50.953722100006416,50.453912100056186,50.953722100006416,50.453912100056186,None,,,,,,,,,,,,,,,,,,,,,,,,,,,,,,,,,,,,,,,,,,11037,001,2024_Mar_11_1535,nback,2021.2.3,59.9362278145724,
0-back,instructions\back-0.png,conditions\0back-p.xlsx,instructions\0-BACK.png,"(15, 8)",practice,0,2,stim\gray.png,stim\yellow.png,stim\gray.png,stim\gray.png,left,0,0,0,0,0,0,0,0,0,15,15,15,,,,,,,,,,,,,,,,,,,,,,,,,,,51.95524819986895,52.956653899978846,51.95524819986895,52.956653899978846,51.95524819986895,52.956653899978846,51.95524819986895,52.956653899978846,left,1,0.33846820006147027,51.95524819986895,None,51.95524819986895,None,51.95524819986895,52.4571421998553,51.95524819986895,52.4571421998553,51.95524819986895,52.4571421998553,51.95524819986895,52.4571421998553,51.95524819986895,None,,,,,,,,,,,,,,,,,,,,,,,,,,,,,,,,,,,,,,,,,,11037,001,2024_Mar_11_1535,nback,2021.2.3,59.9362278145724,
0-back,instructions\back-0.png,conditions\0back-p.xlsx,instructions\0-BACK.png,"(15, 8)",practice,0,3,stim\gray.png,stim\gray.png,stim\yellow.png,stim\gray.png,right,0,0,0,0,0,0,0,0,0,16,16,16,,,,,,,,,,,,,,,,,,,,,,,,,,,53.45766870002262,54.45974439987913,53.45766870002262,54.45974439987913,53.45766870002262,54.45974439987913,53.45766870002262,54.45974439987913,right,1,0.3484648000448942,53.45766870002262,None,53.45766870002262,None,53.45766870002262,53.95819599996321,53.45766870002262,53.95819599996321,53.45766870002262,53.95819599996321,53.45766870002262,53.95819599996321,53.45766870002262,None,,,,,,,,,,,,,,,,,,,,,,,,,,,,,,,,,,,,,,,,,,11037,001,2024_Mar_11_1535,nback,2021.2.3,59.9362278145724,
0-back,instructions\back-0.png,conditions\0back-p.xlsx,instructions\0-BACK.png,"(15, 8)",practice,0,1,stim\yellow.png,stim\gray.png,stim\gray.png,stim\gray.png,up,0,0,0,0,0,0,0,0,0,17,17,17,,,,,,,,,,,,,,,,,,,,,,,,,,,54.95969799999148,55.96126000001095,54.95969799999148,55.96126000001095,54.95969799999148,55.96126000001095,54.95969799999148,55.96126000001095,up,1,0.39813479990698397,54.95969799999148,None,54.95969799999148,None,54.95969799999148,55.46110319998115,54.95969799999148,55.46110319998115,54.95969799999148,55.46110319998115,54.95969799999148,55.46110319998115,54.95969799999148,None,,,,,,,,,,,,,,,,,,,,,,,,,,,,,,,,,,,,,,,,,,11037,001,2024_Mar_11_1535,nback,2021.2.3,59.9362278145724,
0-back,instructions\back-0.png,conditions\0back-p.xlsx,instructions\0-BACK.png,"(15, 8)",practice,0,4,stim\gray.png,stim\gray.png,stim\gray.png,stim\yellow.png,down,0,0,0,0,0,0,0,0,0,18,18,18,,,,,,,,,,,,,,,,,,,,,,,,,,,56.46214299998246,57.46416629990563,56.46214299998246,57.46416629990563,56.46214299998246,57.46416629990563,56.46214299998246,57.46416629990563,down,1,0.4478731001727283,56.46214299998246,None,56.46214299998246,None,56.46214299998246,56.96290619997308,56.46214299998246,56.96290619997308,56.46214299998246,56.96290619997308,56.46214299998246,56.96290619997308,56.46214299998246,None,,,,,,,,,,,,,,,,,,,,,,,,,,,,,,,,,,,,,,,,,,11037,001,2024_Mar_11_1535,nback,2021.2.3,59.9362278145724,
0-back,instructions\back-0.png,conditions\0back-p.xlsx,instructions\0-BACK.png,"(15, 8)",practice,0,2,stim\gray.png,stim\yellow.png,stim\gray.png,stim\gray.png,left,0,0,0,0,0,0,0,0,0,19,19,19,,,,,,,,,,,,,,,,,,,,,,,,,,,57.9643161999993,58.965808199951425,57.9643161999993,58.965808199951425,57.9643161999993,58.965808199951425,57.9643161999993,58.965808199951425,left,1,0.5056323998142034,57.9643161999993,None,57.9643161999993,None,57.9643161999993,58.46575660002418,57.9643161999993,58.46575660002418,57.9643161999993,58.46575660002418,57.9643161999993,58.46575660002418,57.9643161999993,None,,,,,,,,,,,,,,,,,,,,,,,,,,,,,,,,,,,,,,,,,,11037,001,2024_Mar_11_1535,nback,2021.2.3,59.9362278145724,
0-back,instructions\back-0.png,conditions\0back-p.xlsx,instructions\0-BACK.png,"(15, 8)",,,,,,,,,0,0,0,0,0,0,0,0,,,,,,,,,,,,,,,,,,,,,,,,,,,,,,,,,,,,,,,,,,,,,,,,,,,,,,,,,,,,,,,,,,,,,,,,,,,,,,,,,,,,,,,,,,,,,,,,,11037,001,2024_Mar_11_1535,nback,2021.2.3,59.9362278145724,
1-back,instructions\back-1.png,conditions\1back-p.xlsx,instructions\1-BACK.png,"(25, 15)",practice,1,1,stim\yellow.png,stim\gray.png,stim\gray.png,stim\gray.png,None,0,0,0,0,0,1,1,1,0,0,0,0,,,,,,,,,,,,,,,,,59.64989949995652,None,space,14.773089499911293,59.64989949995652,None,74.6227619999554,79.1309348999057,79.11496929987334,None,79.46335229999386,80.46479839994572,79.46335229999386,80.46479839994572,79.46335229999386,80.46479839994572,79.46335229999386,80.46479839994572,None,1,,79.46335229999386,None,79.46335229999386,None,79.46335229999386,79.9645145998802,79.46335229999386,79.9645145998802,79.46335229999386,79.9645145998802,79.46335229999386,79.9645145998802,79.46335229999386,None,,,,,,,,,,,,,,,,,,,,,,,,,,,,,,,,,,,,,,,,,,11037,001,2024_Mar_11_1535,nback,2021.2.3,59.9362278145724,
1-back,instructions\back-1.png,conditions\1back-p.xlsx,instructions\1-BACK.png,"(25, 15)",practice,1,2,stim\gray.png,stim\yellow.png,stim\gray.png,stim\gray.png,up,0,0,0,0,0,1,1,1,0,1,1,1,,,,,,,,,,,,,,,,,,,,,,,,,,,80.94891769997776,81.95125739998184,80.94891769997776,81.95125739998184,80.94891769997776,81.95125739998184,80.94891769997776,81.95125739998184,None,0,,80.94891769997776,None,80.94891769997776,None,80.94891769997776,81.45073079993017,80.94891769997776,81.45073079993017,80.94891769997776,81.45073079993017,80.94891769997776,81.45073079993017,80.94891769997776,None,,,,,,,,,,,,,,,,,,,,,,,,,,,,,,,,,,,,,,,,,,11037,001,2024_Mar_11_1535,nback,2021.2.3,59.9362278145724,
1-back,instructions\back-1.png,conditions\1back-p.xlsx,instructions\1-BACK.png,"(25, 15)",practice,1,3,stim\gray.png,stim\gray.png,stim\yellow.png,stim\gray.png,left,0,0,0,0,0,1,1,1,0,2,2,2,,,,,,,,,,,,,,,,,,,,,,,,,,,82.45171799999662,83.45277249999344,82.45171799999662,83.45277249999344,82.45171799999662,83.45277249999344,82.45171799999662,83.45277249999344,up,0,0.5706549999304116,82.45171799999662,None,82.45171799999662,None,82.45171799999662,82.95299969986081,82.45171799999662,82.95299969986081,82.45171799999662,82.95299969986081,82.45171799999662,82.95299969986081,82.45171799999662,None,,,,,,,,,,,,,,,,,,,,,,,,,,,,,,,,,,,,,,,,,,11037,001,2024_Mar_11_1535,nback,2021.2.3,59.9362278145724,
1-back,instructions\back-1.png,conditions\1back-p.xlsx,instructions\1-BACK.png,"(25, 15)",practice,1,4,stim\gray.png,stim\gray.png,stim\gray.png,stim\yellow.png,right,0,0,0,0,0,1,1,1,0,3,3,3,,,,,,,,,,,,,,,,,,,,,,,,,,,83.95453820005059,84.95487009990029,83.95453820005059,84.95487009990029,83.95453820005059,84.95487009990029,83.95453820005059,84.95487009990029,None,0,,83.95453820005059,None,83.95453820005059,None,83.95453820005059,84.45525119989179,83.95453820005059,84.45525119989179,83.95453820005059,84.45525119989179,83.95453820005059,84.45525119989179,83.95453820005059,None,,,,,,,,,,,,,,,,,,,,,,,,,,,,,,,,,,,,,,,,,,11037,001,2024_Mar_11_1535,nback,2021.2.3,59.9362278145724,
1-back,instructions\back-1.png,conditions\1back-p.xlsx,instructions\1-BACK.png,"(25, 15)",practice,1,2,stim\gray.png,stim\yellow.png,stim\gray.png,stim\gray.png,down,0,0,0,0,0,1,1,1,0,4,4,4,,,,,,,,,,,,,,,,,,,,,,,,,,,85.45575039996766,86.45710120000876,85.45575039996766,86.45710120000876,85.45575039996766,86.45710120000876,85.45575039996766,86.45710120000876,None,0,,85.45575039996766,None,85.45575039996766,None,85.45575039996766,85.95640939986333,85.45575039996766,85.95640939986333,85.45575039996766,85.95640939986333,85.45575039996766,85.95640939986333,85.45575039996766,None,,,,,,,,,,,,,,,,,,,,,,,,,,,,,,,,,,,,,,,,,,11037,001,2024_Mar_11_1535,nback,2021.2.3,59.9362278145724,
1-back,instructions\back-1.png,conditions\1back-p.xlsx,instructions\1-BACK.png,"(25, 15)",practice,1,1,stim\yellow.png,stim\gray.png,stim\gray.png,stim\gray.png,left,0,0,0,0,0,1,1,1,0,5,5,5,,,,,,,,,,,,,,,,,,,,,,,,,,,86.95884480001405,87.96004220005125,86.95884480001405,87.96004220005125,86.95884480001405,87.96004220005125,86.95884480001405,87.96004220005125,None,0,,86.95884480001405,None,86.95884480001405,None,86.95884480001405,87.45909289992414,86.95884480001405,87.45909289992414,86.95884480001405,87.45909289992414,86.95884480001405,87.45909289992414,86.95884480001405,None,,,,,,,,,,,,,,,,,,,,,,,,,,,,,,,,,,,,,,,,,,11037,001,2024_Mar_11_1535,nback,2021.2.3,59.9362278145724,
1-back,instructions\back-1.png,conditions\1back-p.xlsx,instructions\1-BACK.png,"(25, 15)",practice,1,4,stim\gray.png,stim\gray.png,stim\gray.png,stim\yellow.png,up,0,0,0,0,0,1,1,1,0,6,6,6,,,,,,,,,,,,,,,,,,,,,,,,,,,88.44354139990173,89.44535789988004,88.44354139990173,89.44535789988004,88.44354139990173,89.44535789988004,88.44354139990173,89.44535789988004,up,1,0.9714212000835687,88.44354139990173,None,88.44354139990173,None,88.44354139990173,88.94503890001215,88.44354139990173,88.94503890001215,88.44354139990173,88.94503890001215,88.44354139990173,88.94503890001215,88.44354139990173,None,,,,,,,,,,,,,,,,,,,,,,,,,,,,,,,,,,,,,,,,,,11037,001,2024_Mar_11_1535,nback,2021.2.3,59.9362278145724,
1-back,instructions\back-1.png,conditions\1back-p.xlsx,instructions\1-BACK.png,"(25, 15)",practice,1,3,stim\gray.png,stim\gray.png,stim\yellow.png,stim\gray.png,down,0,0,0,0,0,1,1,1,0,7,7,7,,,,,,,,,,,,,,,,,,,,,,,,,,,89.94605999998748,90.9479876998812,89.94605999998748,90.9479876998812,89.94605999998748,90.9479876998812,89.94605999998748,90.9479876998812,down,1,1.0848050999920815,89.94605999998748,None,89.94605999998748,None,89.94605999998748,90.44745430001058,89.94605999998748,90.44745430001058,89.94605999998748,90.44745430001058,89.94605999998748,90.44745430001058,89.94605999998748,None,,,,,,,,,,,,,,,,,,,,,,,,,,,,,,,,,,,,,,,,,,11037,001,2024_Mar_11_1535,nback,2021.2.3,59.9362278145724,
1-back,instructions\back-1.png,conditions\1back-p.xlsx,instructions\1-BACK.png,"(25, 15)",practice,1,3,stim\gray.png,stim\gray.png,stim\yellow.png,stim\gray.png,right,0,0,0,0,0,1,1,1,0,8,8,8,,,,,,,,,,,,,,,,,,,,,,,,,,,91.44802739983425,92.44962750002742,91.44802739983425,92.44962750002742,91.44802739983425,92.44962750002742,91.44802739983425,92.44962750002742,right,1,0.9755671999882907,91.44802739983425,None,91.44802739983425,None,91.44802739983425,91.94896889990196,91.44802739983425,91.94896889990196,91.44802739983425,91.94896889990196,91.44802739983425,91.94896889990196,91.44802739983425,None,,,,,,,,,,,,,,,,,,,,,,,,,,,,,,,,,,,,,,,,,,11037,001,2024_Mar_11_1535,nback,2021.2.3,59.9362278145724,
1-back,instructions\back-1.png,conditions\1back-p.xlsx,instructions\1-BACK.png,"(25, 15)",practice,1,4,stim\gray.png,stim\gray.png,stim\gray.png,stim\yellow.png,right,0,0,0,0,0,1,1,1,0,9,9,9,,,,,,,,,,,,,,,,,,,,,,,,,,,92.95042250002734,93.95174679998308,92.95042250002734,93.95174679998308,92.95042250002734,93.95174679998308,92.95042250002734,93.95174679998308,right,1,1.0800585998222232,92.95042250002734,None,92.95042250002734,None,92.95042250002734,93.45122419996187,92.95042250002734,93.45122419996187,92.95042250002734,93.45122419996187,92.95042250002734,93.45122419996187,92.95042250002734,None,,,,,,,,,,,,,,,,,,,,,,,,,,,,,,,,,,,,,,,,,,11037,001,2024_Mar_11_1535,nback,2021.2.3,59.9362278145724,
1-back,instructions\back-1.png,conditions\1back-p.xlsx,instructions\1-BACK.png,"(25, 15)",practice,1,1,stim\yellow.png,stim\gray.png,stim\gray.png,stim\gray.png,down,0,0,0,0,0,1,1,1,0,10,10,10,,,,,,,,,,,,,,,,,,,,,,,,,,,94.45275479997508,95.45424650004134,94.45275479997508,95.45424650004134,94.45275479997508,95.45424650004134,94.45275479997508,95.45424650004134,down,1,0.8033048000652343,94.45275479997508,None,94.45275479997508,None,94.45275479997508,94.95378109999001,94.45275479997508,94.95378109999001,94.45275479997508,94.95378109999001,94.45275479997508,94.95378109999001,94.45275479997508,None,,,,,,,,,,,,,,,,,,,,,,,,,,,,,,,,,,,,,,,,,,11037,001,2024_Mar_11_1535,nback,2021.2.3,59.9362278145724,
1-back,instructions\back-1.png,conditions\1back-p.xlsx,instructions\1-BACK.png,"(25, 15)",practice,1,2,stim\gray.png,stim\yellow.png,stim\gray.png,stim\gray.png,up,0,0,0,0,0,1,1,1,0,11,11,11,,,,,,,,,,,,,,,,,,,,,,,,,,,95.95492119994015,96.95639940002002,95.95492119994015,96.95639940002002,95.95492119994015,96.95639940002002,95.95492119994015,96.95639940002002,up,1,1.0362311000935733,95.95492119994015,None,95.95492119994015,None,95.95492119994015,96.45668009994552,95.95492119994015,96.45668009994552,95.95492119994015,96.45668009994552,95.95492119994015,96.45668009994552,95.95492119994015,None,,,,,,,,,,,,,,,,,,,,,,,,,,,,,,,,,,,,,,,,,,11037,001,2024_Mar_11_1535,nback,2021.2.3,59.9362278145724,
1-back,instructions\back-1.png,conditions\1back-p.xlsx,instructions\1-BACK.png,"(25, 15)",practice,1,4,stim\gray.png,stim\gray.png,stim\gray.png,stim\yellow.png,left,0,0,0,0,0,1,1,1,0,12,12,12,,,,,,,,,,,,,,,,,,,,,,,,,,,97.4569174000062,98.45878889993764,97.4569174000062,98.45878889993764,97.4569174000062,98.45878889993764,97.4569174000062,98.45878889993764,left,1,0.5905848999973387,97.4569174000062,None,97.4569174000062,None,97.4569174000062,97.95942869991995,97.4569174000062,97.95942869991995,97.4569174000062,97.95942869991995,97.4569174000062,97.95942869991995,97.4569174000062,None,,,,,,,,,,,,,,,,,,,,,,,,,,,,,,,,,,,,,,,,,,11037,001,2024_Mar_11_1535,nback,2021.2.3,59.9362278145724,
1-back,instructions\back-1.png,conditions\1back-p.xlsx,instructions\1-BACK.png,"(25, 15)",practice,1,3,stim\gray.png,stim\gray.png,stim\yellow.png,stim\gray.png,down,0,0,0,0,0,1,1,1,0,13,13,13,,,,,,,,,,,,,,,,,,,,,,,,,,,98.95940149994567,99.96112150000408,98.95940149994567,99.96112150000408,98.95940149994567,99.96112150000408,98.95940149994567,99.96112150000408,down,1,0.5518357001710683,98.95940149994567,None,98.95940149994567,None,98.95940149994567,99.46018299995922,98.95940149994567,99.46018299995922,98.95940149994567,99.46018299995922,98.95940149994567,99.46018299995922,98.95940149994567,None,,,,,,,,,,,,,,,,,,,,,,,,,,,,,,,,,,,,,,,,,,11037,001,2024_Mar_11_1535,nback,2021.2.3,59.9362278145724,
1-back,instructions\back-1.png,conditions\1back-p.xlsx,instructions\1-BACK.png,"(25, 15)",practice,1,1,stim\yellow.png,stim\gray.png,stim\gray.png,stim\gray.png,right,0,0,0,0,0,1,1,1,0,14,14,14,,,,,,,,,,,,,,,,,,,,,,,,,,,100.44505209987983,101.44683519983664,100.44505209987983,101.44683519983664,100.44505209987983,101.44683519983664,100.44505209987983,101.44683519983664,right,1,0.5056340000592172,100.44505209987983,None,100.44505209987983,None,100.44505209987983,100.94550370005891,100.44505209987983,100.94550370005891,100.44505209987983,100.94550370005891,100.44505209987983,100.94550370005891,100.44505209987983,None,,,,,,,,,,,,,,,,,,,,,,,,,,,,,,,,,,,,,,,,,,11037,001,2024_Mar_11_1535,nback,2021.2.3,59.9362278145724,
1-back,instructions\back-1.png,conditions\1back-p.xlsx,instructions\1-BACK.png,"(25, 15)",practice,1,2,stim\gray.png,stim\yellow.png,stim\gray.png,stim\gray.png,up,0,0,0,0,0,1,1,1,0,15,15,15,,,,,,,,,,,,,,,,,,,,,,,,,,,101.96504239994101,102.9665230999235,101.96504239994101,102.9665230999235,101.96504239994101,102.9665230999235,101.96504239994101,102.9665230999235,up,1,0.5857755001634359,101.96504239994101,None,101.96504239994101,None,101.96504239994101,102.46555939991958,101.96504239994101,102.46555939991958,101.96504239994101,102.46555939991958,101.96504239994101,102.46555939991958,101.96504239994101,None,,,,,,,,,,,,,,,,,,,,,,,,,,,,,,,,,,,,,,,,,,11037,001,2024_Mar_11_1535,nback,2021.2.3,59.9362278145724,
1-back,instructions\back-1.png,conditions\1back-p.xlsx,instructions\1-BACK.png,"(25, 15)",practice,1,3,stim\gray.png,stim\gray.png,stim\yellow.png,stim\gray.png,left,0,0,0,0,0,1,1,1,0,16,16,16,,,,,,,,,,,,,,,,,,,,,,,,,,,103.44958060001954,104.45120769995265,103.44958060001954,104.45120769995265,103.44958060001954,104.45120769995265,103.44958060001954,104.45120769995265,right,0,1.4618570001330227,103.44958060001954,None,103.44958060001954,None,103.44958060001954,103.95068589993753,103.44958060001954,103.95068589993753,103.44958060001954,103.95068589993753,103.44958060001954,103.95068589993753,103.44958060001954,None,,,,,,,,,,,,,,,,,,,,,,,,,,,,,,,,,,,,,,,,,,11037,001,2024_Mar_11_1535,nback,2021.2.3,59.9362278145724,
1-back,instructions\back-1.png,conditions\1back-p.xlsx,instructions\1-BACK.png,"(25, 15)",practice,1,1,stim\yellow.png,stim\gray.png,stim\gray.png,stim\gray.png,right,0,0,0,0,0,1,1,1,0,17,17,17,,,,,,,,,,,,,,,,,,,,,,,,,,,104.96891020005569,105.97059100004844,104.96891020005569,105.97059100004844,104.96891020005569,105.97059100004844,104.96891020005569,105.97059100004844,None,0,,104.96891020005569,None,104.96891020005569,None,104.96891020005569,105.46973700006492,104.96891020005569,105.46973700006492,104.96891020005569,105.46973700006492,104.96891020005569,105.46973700006492,104.96891020005569,None,,,,,,,,,,,,,,,,,,,,,,,,,,,,,,,,,,,,,,,,,,11037,001,2024_Mar_11_1535,nback,2021.2.3,59.9362278145724,
1-back,instructions\back-1.png,conditions\1back-p.xlsx,instructions\1-BACK.png,"(25, 15)",practice,1,4,stim\gray.png,stim\gray.png,stim\gray.png,stim\yellow.png,up,0,0,0,0,0,1,1,1,0,18,18,18,,,,,,,,,,,,,,,,,,,,,,,,,,,106.45423989999108,107.45572369988076,106.45423989999108,107.45572369988076,106.45423989999108,107.45572369988076,106.45423989999108,107.45572369988076,up,1,0.5450373000930995,106.45423989999108,None,106.45423989999108,None,106.45423989999108,106.95479799993336,106.45423989999108,106.95479799993336,106.45423989999108,106.95479799993336,106.45423989999108,106.95479799993336,106.45423989999108,None,,,,,,,,,,,,,,,,,,,,,,,,,,,,,,,,,,,,,,,,,,11037,001,2024_Mar_11_1535,nback,2021.2.3,59.9362278145724,
1-back,instructions\back-1.png,conditions\1back-p.xlsx,instructions\1-BACK.png,"(25, 15)",practice,1,2,stim\gray.png,stim\yellow.png,stim\gray.png,stim\gray.png,down,0,0,0,0,0,1,1,1,0,19,19,19,,,,,,,,,,,,,,,,,,,,,,,,,,,107.97382800001651,108.9744090999011,107.97382800001651,108.9744090999011,107.97382800001651,108.9744090999011,107.97382800001651,108.9744090999011,down,1,1.3295090000610799,107.97382800001651,None,107.97382800001651,None,107.97382800001651,108.47369270003401,107.97382800001651,108.47369270003401,107.97382800001651,108.47369270003401,107.97382800001651,108.47369270003401,107.97382800001651,None,,,,,,,,,,,,,,,,,,,,,,,,,,,,,,,,,,,,,,,,,,11037,001,2024_Mar_11_1535,nback,2021.2.3,59.9362278145724,
1-back,instructions\back-1.png,conditions\1back-p.xlsx,instructions\1-BACK.png,"(25, 15)",,,,,,,,,0,0,0,0,0,1,1,1,,,,,,,,,,,,,,,,,,,,,,,,,,,,,,,,,,,,,,,,,,,,,,,,,,,,,,,,,,,,,,,,,,,,,,,,,,,,,,,,,,,,,,,,,,,,,,,,,11037,001,2024_Mar_11_1535,nback,2021.2.3,59.9362278145724,
2-back,instructions\back-2.png,conditions\2back-p.xlsx,instructions\2-BACK.png,"(25, 15)",practice,2,1,stim\yellow.png,stim\gray.png,stim\gray.png,stim\gray.png,None,0,0,0,0,0,2,2,2,0,0,0,0,,,,,,,,,,,,,,,,,109.60872619994916,None,space,29.63121680007316,109.60872619994916,None,139.386207500007,143.89463440002874,143.8613275999669,None,144.29533119988628,145.2967926999554,144.29533119988628,145.2967926999554,144.29533119988628,145.2967926999554,144.29533119988628,145.2967926999554,None,1,,144.29533119988628,None,144.29533119988628,None,144.29533119988628,144.7952701000031,144.29533119988628,144.7952701000031,144.29533119988628,144.7952701000031,144.29533119988628,144.7952701000031,144.29533119988628,None,,,,,,,,,,,,,,,,,,,,,,,,,,,,,,,,,,,,,,,,,,11037,001,2024_Mar_11_1535,nback,2021.2.3,59.9362278145724,
2-back,instructions\back-2.png,conditions\2back-p.xlsx,instructions\2-BACK.png,"(25, 15)",practice,2,2,stim\gray.png,stim\yellow.png,stim\gray.png,stim\gray.png,None,0,0,0,0,0,2,2,2,0,1,1,1,,,,,,,,,,,,,,,,,,,,,,,,,,,145.79756919993088,146.79925609985366,145.79756919993088,146.79925609985366,145.79756919993088,146.79925609985366,145.79756919993088,146.79925609985366,None,1,,145.79756919993088,None,145.79756919993088,None,145.79756919993088,146.29746089992113,145.79756919993088,146.29746089992113,145.79756919993088,146.29746089992113,145.79756919993088,146.29746089992113,145.79756919993088,None,,,,,,,,,,,,,,,,,,,,,,,,,,,,,,,,,,,,,,,,,,11037,001,2024_Mar_11_1535,nback,2021.2.3,59.9362278145724,
2-back,instructions\back-2.png,conditions\2back-p.xlsx,instructions\2-BACK.png,"(25, 15)",practice,2,3,stim\gray.png,stim\gray.png,stim\yellow.png,stim\gray.png,up,0,0,0,0,0,2,2,2,0,2,2,2,,,,,,,,,,,,,,,,,,,,,,,,,,,147.2821760000661,148.2844318000134,147.2821760000661,148.2844318000134,147.2821760000661,148.2844318000134,147.2821760000661,148.2844318000134,up,1,0.4461680999957025,147.2821760000661,None,147.2821760000661,None,147.2821760000661,147.78304590005428,147.2821760000661,147.78304590005428,147.2821760000661,147.78304590005428,147.2821760000661,147.78304590005428,147.2821760000661,None,,,,,,,,,,,,,,,,,,,,,,,,,,,,,,,,,,,,,,,,,,11037,001,2024_Mar_11_1535,nback,2021.2.3,59.9362278145724,
2-back,instructions\back-2.png,conditions\2back-p.xlsx,instructions\2-BACK.png,"(25, 15)",practice,2,4,stim\gray.png,stim\gray.png,stim\gray.png,stim\yellow.png,left,0,0,0,0,0,2,2,2,0,3,3,3,,,,,,,,,,,,,,,,,,,,,,,,,,,148.78464980004355,149.78620400000364,148.78464980004355,149.78620400000364,148.78464980004355,149.78620400000364,148.78464980004355,149.78620400000364,left,1,0.4717340001370758,148.78464980004355,None,148.78464980004355,None,148.78464980004355,149.28580219997093,148.78464980004355,149.28580219997093,148.78464980004355,149.28580219997093,148.78464980004355,149.28580219997093,148.78464980004355,None,,,,,,,,,,,,,,,,,,,,,,,,,,,,,,,,,,,,,,,,,,11037,001,2024_Mar_11_1535,nback,2021.2.3,59.9362278145724,
2-back,instructions\back-2.png,conditions\2back-p.xlsx,instructions\2-BACK.png,"(25, 15)",practice,2,2,stim\gray.png,stim\yellow.png,stim\gray.png,stim\gray.png,right,0,0,0,0,0,2,2,2,0,4,4,4,,,,,,,,,,,,,,,,,,,,,,,,,,,150.28680179989897,151.288383099949,150.28680179989897,151.288383099949,150.28680179989897,151.288383099949,150.28680179989897,151.288383099949,right,1,1.313695800025016,150.28680179989897,None,150.28680179989897,None,150.28680179989897,150.78862560004927,150.28680179989897,150.78862560004927,150.28680179989897,150.78862560004927,150.28680179989897,150.78862560004927,150.28680179989897,None,,,,,,,,,,,,,,,,,,,,,,,,,,,,,,,,,,,,,,,,,,11037,001,2024_Mar_11_1535,nback,2021.2.3,59.9362278145724,
2-back,instructions\back-2.png,conditions\2back-p.xlsx,instructions\2-BACK.png,"(25, 15)",practice,2,1,stim\yellow.png,stim\gray.png,stim\gray.png,stim\gray.png,down,0,0,0,0,0,2,2,2,0,5,5,5,,,,,,,,,,,,,,,,,,,,,,,,,,,151.772265000036,152.77398850000463,151.772265000036,152.77398850000463,151.772265000036,152.77398850000463,151.772265000036,152.77398850000463,None,0,,151.772265000036,None,151.772265000036,None,151.772265000036,152.27392939990386,151.772265000036,152.27392939990386,151.772265000036,152.27392939990386,151.772265000036,152.27392939990386,151.772265000036,None,,,,,,,,,,,,,,,,,,,,,,,,,,,,,,,,,,,,,,,,,,11037,001,2024_Mar_11_1535,nback,2021.2.3,59.9362278145724,
2-back,instructions\back-2.png,conditions\2back-p.xlsx,instructions\2-BACK.png,"(25, 15)",practice,2,4,stim\gray.png,stim\gray.png,stim\gray.png,stim\yellow.png,left,0,0,0,0,0,2,2,2,0,6,6,6,,,,,,,,,,,,,,,,,,,,,,,,,,,153.27486959984526,154.27685819985345,153.27486959984526,154.27685819985345,153.27486959984526,154.27685819985345,153.27486959984526,154.27685819985345,left,1,0.14188900007866323,153.27486959984526,None,153.27486959984526,None,153.27486959984526,153.77556769992225,153.27486959984526,153.77556769992225,153.27486959984526,153.77556769992225,153.27486959984526,153.77556769992225,153.27486959984526,None,,,,,,,,,,,,,,,,,,,,,,,,,,,,,,,,,,,,,,,,,,11037,001,2024_Mar_11_1535,nback,2021.2.3,59.9362278145724,
2-back,instructions\back-2.png,conditions\2back-p.xlsx,instructions\2-BACK.png,"(25, 15)",practice,2,3,stim\gray.png,stim\gray.png,stim\yellow.png,stim\gray.png,up,0,0,0,0,0,2,2,2,0,7,7,7,,,,,,,,,,,,,,,,,,,,,,,,,,,154.7768567998428,155.77942429995164,154.7768567998428,155.77942429995164,154.7768567998428,155.77942429995164,154.7768567998428,155.77942429995164,up,1,1.2075921001378447,154.7768567998428,None,154.7768567998428,None,154.7768567998428,155.27775779995136,154.7768567998428,155.27775779995136,154.7768567998428,155.27775779995136,154.7768567998428,155.27775779995136,154.7768567998428,None,,,,,,,,,,,,,,,,,,,,,,,,,,,,,,,,,,,,,,,,,,11037,001,2024_Mar_11_1535,nback,2021.2.3,59.9362278145724,
2-back,instructions\back-2.png,conditions\2back-p.xlsx,instructions\2-BACK.png,"(25, 15)",practice,2,3,stim\gray.png,stim\gray.png,stim\yellow.png,stim\gray.png,down,0,0,0,0,0,2,2,2,0,8,8,8,,,,,,,,,,,,,,,,,,,,,,,,,,,156.2793019998353,157.280710299965,156.2793019998353,157.280710299965,156.2793019998353,157.280710299965,156.2793019998353,157.280710299965,down,1,0.8095222001429647,156.2793019998353,None,156.2793019998353,None,156.2793019998353,156.7802609000355,156.2793019998353,156.7802609000355,156.2793019998353,156.7802609000355,156.2793019998353,156.7802609000355,156.2793019998353,None,,,,,,,,,,,,,,,,,,,,,,,,,,,,,,,,,,,,,,,,,,11037,001,2024_Mar_11_1535,nback,2021.2.3,59.9362278145724,
2-back,instructions\back-2.png,conditions\2back-p.xlsx,instructions\2-BACK.png,"(25, 15)",practice,2,4,stim\gray.png,stim\gray.png,stim\gray.png,stim\yellow.png,right,0,0,0,0,0,2,2,2,0,9,9,9,,,,,,,,,,,,,,,,,,,,,,,,,,,157.78141890000552,158.7829690000508,157.78141890000552,158.7829690000508,157.78141890000552,158.7829690000508,157.78141890000552,158.7829690000508,right,1,0.5310211000032723,157.78141890000552,None,157.78141890000552,None,157.78141890000552,158.28236699989066,157.78141890000552,158.28236699989066,157.78141890000552,158.28236699989066,157.78141890000552,158.28236699989066,157.78141890000552,None,,,,,,,,,,,,,,,,,,,,,,,,,,,,,,,,,,,,,,,,,,11037,001,2024_Mar_11_1535,nback,2021.2.3,59.9362278145724,
2-back,instructions\back-2.png,conditions\2back-p.xlsx,instructions\2-BACK.png,"(25, 15)",practice,2,1,stim\yellow.png,stim\gray.png,stim\gray.png,stim\gray.png,right,0,0,0,0,0,2,2,2,0,10,10,10,,,,,,,,,,,,,,,,,,,,,,,,,,,159.2837159000337,160.28563349996693,159.2837159000337,160.28563349996693,159.2837159000337,160.28563349996693,159.2837159000337,160.28563349996693,right,1,0.46864549978636205,159.2837159000337,None,159.2837159000337,None,159.2837159000337,159.78447259985842,159.2837159000337,159.78447259985842,159.2837159000337,159.78447259985842,159.2837159000337,159.78447259985842,159.2837159000337,None,,,,,,,,,,,,,,,,,,,,,,,,,,,,,,,,,,,,,,,,,,11037,001,2024_Mar_11_1535,nback,2021.2.3,59.9362278145724,
2-back,instructions\back-2.png,conditions\2back-p.xlsx,instructions\2-BACK.png,"(25, 15)",practice,2,2,stim\gray.png,stim\yellow.png,stim\gray.png,stim\gray.png,down,0,0,0,0,0,2,2,2,0,11,11,11,,,,,,,,,,,,,,,,,,,,,,,,,,,160.78608440002427,161.78828669991344,160.78608440002427,161.78828669991344,160.78608440002427,161.78828669991344,160.78608440002427,161.78828669991344,down,1,0.49478850001469254,160.78608440002427,None,160.78608440002427,None,160.78608440002427,161.2868615000043,160.78608440002427,161.2868615000043,160.78608440002427,161.2868615000043,160.78608440002427,161.2868615000043,160.78608440002427,None,,,,,,,,,,,,,,,,,,,,,,,,,,,,,,,,,,,,,,,,,,11037,001,2024_Mar_11_1535,nback,2021.2.3,59.9362278145724,
2-back,instructions\back-2.png,conditions\2back-p.xlsx,instructions\2-BACK.png,"(25, 15)",practice,2,4,stim\gray.png,stim\gray.png,stim\gray.png,stim\yellow.png,up,0,0,0,0,0,2,2,2,0,12,12,12,,,,,,,,,,,,,,,,,,,,,,,,,,,162.28829629998654,163.28976169996895,162.28829629998654,163.28976169996895,162.28829629998654,163.28976169996895,162.28829629998654,163.28976169996895,up,1,0.5053464998491108,162.28829629998654,None,162.28829629998654,None,162.28829629998654,162.7899025999941,162.28829629998654,162.7899025999941,162.28829629998654,162.7899025999941,162.28829629998654,162.7899025999941,162.28829629998654,None,,,,,,,,,,,,,,,,,,,,,,,,,,,,,,,,,,,,,,,,,,11037,001,2024_Mar_11_1535,nback,2021.2.3,59.9362278145724,
2-back,instructions\back-2.png,conditions\2back-p.xlsx,instructions\2-BACK.png,"(25, 15)",practice,2,3,stim\gray.png,stim\gray.png,stim\yellow.png,stim\gray.png,left,0,0,0,0,0,2,2,2,0,13,13,13,,,,,,,,,,,,,,,,,,,,,,,,,,,163.77394680003636,164.77528279996477,163.77394680003636,164.77528279996477,163.77394680003636,164.77528279996477,163.77394680003636,164.77528279996477,left,1,0.39493989991024137,163.77394680003636,None,163.77394680003636,None,163.77394680003636,164.27455249987543,163.77394680003636,164.27455249987543,163.77394680003636,164.27455249987543,163.77394680003636,164.27455249987543,163.77394680003636,None,,,,,,,,,,,,,,,,,,,,,,,,,,,,,,,,,,,,,,,,,,11037,001,2024_Mar_11_1535,nback,2021.2.3,59.9362278145724,
2-back,instructions\back-2.png,conditions\2back-p.xlsx,instructions\2-BACK.png,"(25, 15)",practice,2,1,stim\yellow.png,stim\gray.png,stim\gray.png,stim\gray.png,down,0,0,0,0,0,2,2,2,0,14,14,14,,,,,,,,,,,,,,,,,,,,,,,,,,,165.27622039988637,166.27767920005135,165.27622039988637,166.27767920005135,165.27622039988637,166.27767920005135,165.27622039988637,166.27767920005135,down,1,0.39673190005123615,165.27622039988637,None,165.27622039988637,None,165.27622039988637,165.7769819998648,165.27622039988637,165.7769819998648,165.27622039988637,165.7769819998648,165.27622039988637,165.7769819998648,165.27622039988637,None,,,,,,,,,,,,,,,,,,,,,,,,,,,,,,,,,,,,,,,,,,11037,001,2024_Mar_11_1535,nback,2021.2.3,59.9362278145724,
2-back,instructions\back-2.png,conditions\2back-p.xlsx,instructions\2-BACK.png,"(25, 15)",practice,2,2,stim\gray.png,stim\yellow.png,stim\gray.png,stim\gray.png,right,0,0,0,0,0,2,2,2,0,15,15,15,,,,,,,,,,,,,,,,,,,,,,,,,,,166.77797689987347,167.7806291000452,166.77797689987347,167.7806291000452,166.77797689987347,167.7806291000452,166.77797689987347,167.7806291000452,right,1,0.30267969984561205,166.77797689987347,None,166.77797689987347,None,166.77797689987347,167.27924609999172,166.77797689987347,167.27924609999172,166.77797689987347,167.27924609999172,166.77797689987347,167.27924609999172,166.77797689987347,None,,,,,,,,,,,,,,,,,,,,,,,,,,,,,,,,,,,,,,,,,,11037,001,2024_Mar_11_1535,nback,2021.2.3,59.9362278145724,
2-back,instructions\back-2.png,conditions\2back-p.xlsx,instructions\2-BACK.png,"(25, 15)",practice,2,3,stim\gray.png,stim\gray.png,stim\yellow.png,stim\gray.png,up,0,0,0,0,0,2,2,2,0,16,16,16,,,,,,,,,,,,,,,,,,,,,,,,,,,168.28058249992318,169.28302760003135,168.28058249992318,169.28302760003135,168.28058249992318,169.28302760003135,168.28058249992318,169.28302760003135,up,1,0.33598760003224015,168.28058249992318,None,168.28058249992318,None,168.28058249992318,168.7813112998847,168.28058249992318,168.7813112998847,168.28058249992318,168.7813112998847,168.28058249992318,168.7813112998847,168.28058249992318,None,,,,,,,,,,,,,,,,,,,,,,,,,,,,,,,,,,,,,,,,,,11037,001,2024_Mar_11_1535,nback,2021.2.3,59.9362278145724,
2-back,instructions\back-2.png,conditions\2back-p.xlsx,instructions\2-BACK.png,"(25, 15)",practice,2,1,stim\yellow.png,stim\gray.png,stim\gray.png,stim\gray.png,left,0,0,0,0,0,2,2,2,0,17,17,17,,,,,,,,,,,,,,,,,,,,,,,,,,,169.78285630000755,170.78442290006205,169.78285630000755,170.78442290006205,169.78285630000755,170.78442290006205,169.78285630000755,170.78442290006205,left,1,0.6101029000710696,169.78285630000755,None,169.78285630000755,None,169.78285630000755,170.28440449992195,169.78285630000755,170.28440449992195,169.78285630000755,170.28440449992195,169.78285630000755,170.28440449992195,169.78285630000755,None,,,,,,,,,,,,,,,,,,,,,,,,,,,,,,,,,,,,,,,,,,11037,001,2024_Mar_11_1535,nback,2021.2.3,59.9362278145724,
2-back,instructions\back-2.png,conditions\2back-p.xlsx,instructions\2-BACK.png,"(25, 15)",practice,2,4,stim\gray.png,stim\gray.png,stim\gray.png,stim\yellow.png,right,0,0,0,0,0,2,2,2,0,18,18,18,,,,,,,,,,,,,,,,,,,,,,,,,,,171.28531960002147,172.28744799993,171.28531960002147,172.28744799993,171.28531960002147,172.28744799993,171.28531960002147,172.28744799993,right,1,0.443706399993971,171.28531960002147,None,171.28531960002147,None,171.28531960002147,171.78661529999226,171.28531960002147,171.78661529999226,171.28531960002147,171.78661529999226,171.28531960002147,171.78661529999226,171.28531960002147,None,,,,,,,,,,,,,,,,,,,,,,,,,,,,,,,,,,,,,,,,,,11037,001,2024_Mar_11_1535,nback,2021.2.3,59.9362278145724,
2-back,instructions\back-2.png,conditions\2back-p.xlsx,instructions\2-BACK.png,"(25, 15)",practice,2,2,stim\gray.png,stim\yellow.png,stim\gray.png,stim\gray.png,up,0,0,0,0,0,2,2,2,0,19,19,19,,,,,,,,,,,,,,,,,,,,,,,,,,,172.78762739989907,173.7891340998467,172.78762739989907,173.7891340998467,172.78762739989907,173.7891340998467,172.78762739989907,173.7891340998467,up,1,0.3658070999663323,172.78762739989907,None,172.78762739989907,None,172.78762739989907,173.28825669991784,172.78762739989907,173.28825669991784,172.78762739989907,173.28825669991784,172.78762739989907,173.28825669991784,172.78762739989907,None,,,,,,,,,,,,,,,,,,,,,,,,,,,,,,,,,,,,,,,,,,11037,001,2024_Mar_11_1535,nback,2021.2.3,59.9362278145724,
2-back,instructions\back-2.png,conditions\2back-p.xlsx,instructions\2-BACK.png,"(25, 15)",,,,,,,,,0,0,0,0,0,2,2,2,,,,,,,,,,,,,,,,,,,,,,,,,,,,,,,,,,,,,,,,,,,,,,,,,,,,,,,,,,,,,,,,,,,,,,,,,,,,,,,,,,,,,,,,,,,,,,,,,11037,001,2024_Mar_11_1535,nback,2021.2.3,59.9362278145724,
,,,,,,,,,,,,,0,0,0,0,,,,,,,,,,,,,,,,,,,,,,,,,,,,,,,,,,,,,,,,,,,,,,,,,,,,,,,,,,,,174.27291649999097,None,space,39.07354969996959,174.27291649999097,None,,,,,,,,,,,,,,,,,,,,,,,,,,,,,,,,,,,,11037,001,2024_Mar_11_1535,nback,2021.2.3,59.9362278145724,
,,,,,,,,,,,,,,,,,,,,,,,,,,,,,,,,,,,,,,,,,,,,,,,,,,,,,,,,,,,,,,,,,,,,,,,,,,,,,,,,,,213.36524269985966,None,space,2.780979299917817,213.36524269985966,None,,,,,,,,,,,,,,,,,,,,,,,,,,,,,,11037,001,2024_Mar_11_1535,nback,2021.2.3,59.9362278145724,
1-back,instructions\back-1.png,conditions\11back-e.xlsx,,,experiment,1,3,stim\gray.png,stim\gray.png,stim\yellow.png,stim\gray.png,None,,,,,,,,,,,,,0,0,0,5,0,0,0,0,,,,,,,,,,,,,,,216.3032368000131,220.8104924999643,220.77710639988072,None,,,,,,,,,,,,,,,,,,,,,,,,,,,,,,,,,,,,,,None,1,221.19375739991665,None,221.19375739991665,None,221.19375739991665,222.19636789988726,221.19375739991665,222.19636789988726,221.19375739991665,222.19636789988726,221.19375739991665,222.19636789988726,221.19375739991665,221.6946014999412,221.19375739991665,221.6946014999412,221.19375739991665,221.6946014999412,221.19375739991665,221.6946014999412,221.19375739991665,None,,,,,,11037,001,2024_Mar_11_1535,nback,2021.2.3,59.9362278145724,
1-back,instructions\back-1.png,conditions\11back-e.xlsx,,,experiment,1,1,stim\yellow.png,stim\gray.png,stim\gray.png,stim\gray.png,right,,,,,,,,,,,,,0,0,0,5,0,1,1,1,,,,,,,,,,,,,,,,,,,,,,,,,,,,,,,,,,,,,,,,,,,,,,,,,,,,,,,,right,1,222.68074809992686,None,222.68074809992686,None,222.68074809992686,223.68146019987762,222.68074809992686,223.68146019987762,222.68074809992686,223.68146019987762,222.68074809992686,223.68146019987762,222.68074809992686,223.1800077999942,222.68074809992686,223.1800077999942,222.68074809992686,223.1800077999942,222.68074809992686,223.1800077999942,222.68074809992686,None,0.697900699917227,,,,,11037,001,2024_Mar_11_1535,nback,2021.2.3,59.9362278145724,
1-back,instructions\back-1.png,conditions\11back-e.xlsx,,,experiment,1,4,stim\gray.png,stim\gray.png,stim\gray.png,stim\yellow.png,up,,,,,,,,,,,,,0,0,0,5,0,2,2,2,,,,,,,,,,,,,,,,,,,,,,,,,,,,,,,,,,,,,,,,,,,,,,,,,,,,,,,,up,1,224.18139469996095,None,224.18139469996095,None,224.18139469996095,225.18312389985658,224.18139469996095,225.18312389985658,224.18139469996095,225.18312389985658,224.18139469996095,225.18312389985658,224.18139469996095,224.6825045000296,224.18139469996095,224.6825045000296,224.18139469996095,224.6825045000296,224.18139469996095,224.6825045000296,224.18139469996095,None,0.5178223000839353,,,,,11037,001,2024_Mar_11_1535,nback,2021.2.3,59.9362278145724,
1-back,instructions\back-1.png,conditions\11back-e.xlsx,,,experiment,1,2,stim\gray.png,stim\yellow.png,stim\gray.png,stim\gray.png,down,,,,,,,,,,,,,0,0,0,5,0,3,3,3,,,,,,,,,,,,,,,,,,,,,,,,,,,,,,,,,,,,,,,,,,,,,,,,,,,,,,,,down,1,225.68386660004035,None,225.68386660004035,None,225.68386660004035,226.68544759997167,225.68386660004035,226.68544759997167,225.68386660004035,226.68544759997167,225.68386660004035,226.68544759997167,225.68386660004035,226.1846016999334,225.68386660004035,226.1846016999334,225.68386660004035,226.1846016999334,225.68386660004035,226.1846016999334,225.68386660004035,None,0.4227279999759048,,,,,11037,001,2024_Mar_11_1535,nback,2021.2.3,59.9362278145724,
1-back,instructions\back-1.png,conditions\11back-e.xlsx,,,experiment,1,1,stim\yellow.png,stim\gray.png,stim\gray.png,stim\gray.png,left,,,,,,,,,,,,,0,0,0,5,0,4,4,4,,,,,,,,,,,,,,,,,,,,,,,,,,,,,,,,,,,,,,,,,,,,,,,,,,,,,,,,left,1,227.18697359994985,None,227.18697359994985,None,227.18697359994985,228.1879352000542,227.18697359994985,228.1879352000542,227.18697359994985,228.1879352000542,227.18697359994985,228.1879352000542,227.18697359994985,227.6869139999617,227.18697359994985,227.6869139999617,227.18697359994985,227.6869139999617,227.18697359994985,227.6869139999617,227.18697359994985,None,0.351634600199759,,,,,11037,001,2024_Mar_11_1535,nback,2021.2.3,59.9362278145724,
1-back,instructions\back-1.png,conditions\11back-e.xlsx,,,experiment,1,2,stim\gray.png,stim\yellow.png,stim\gray.png,stim\gray.png,up,,,,,,,,,,,,,0,0,0,5,0,5,5,5,,,,,,,,,,,,,,,,,,,,,,,,,,,,,,,,,,,,,,,,,,,,,,,,,,,,,,,,up,1,228.68845329992473,None,228.68845329992473,None,228.68845329992473,229.69042999995872,228.68845329992473,229.69042999995872,228.68845329992473,229.69042999995872,228.68845329992473,229.69042999995872,228.68845329992473,229.18987319990993,228.68845329992473,229.18987319990993,228.68845329992473,229.18987319990993,228.68845329992473,229.18987319990993,228.68845329992473,None,0.2181915999390185,,,,,11037,001,2024_Mar_11_1535,nback,2021.2.3,59.9362278145724,
1-back,instructions\back-1.png,conditions\11back-e.xlsx,,,experiment,1,3,stim\gray.png,stim\gray.png,stim\yellow.png,stim\gray.png,left,,,,,,,,,,,,,0,0,0,5,0,6,6,6,,,,,,,,,,,,,,,,,,,,,,,,,,,,,,,,,,,,,,,,,,,,,,,,,,,,,,,,left,1,230.17462629987858,None,230.17462629987858,None,230.17462629987858,231.17650329996832,230.17462629987858,231.17650329996832,230.17462629987858,231.17650329996832,230.17462629987858,231.17650329996832,230.17462629987858,230.67556230002083,230.17462629987858,230.67556230002083,230.17462629987858,230.67556230002083,230.17462629987858,230.67556230002083,230.17462629987858,None,0.3721500998362899,,,,,11037,001,2024_Mar_11_1535,nback,2021.2.3,59.9362278145724,
1-back,instructions\back-1.png,conditions\11back-e.xlsx,,,experiment,1,4,stim\gray.png,stim\gray.png,stim\gray.png,stim\yellow.png,right,,,,,,,,,,,,,0,0,0,5,0,7,7,7,,,,,,,,,,,,,,,,,,,,,,,,,,,,,,,,,,,,,,,,,,,,,,,,,,,,,,,,right,1,231.67638159985654,None,231.67638159985654,None,231.67638159985654,232.6790521000512,231.67638159985654,232.6790521000512,231.67638159985654,232.6790521000512,231.67638159985654,232.6790521000512,231.67638159985654,232.17795949988067,231.67638159985654,232.17795949988067,231.67638159985654,232.17795949988067,231.67638159985654,232.17795949988067,231.67638159985654,None,0.35844699991866946,,,,,11037,001,2024_Mar_11_1535,nback,2021.2.3,59.9362278145724,
1-back,instructions\back-1.png,conditions\11back-e.xlsx,,,experiment,1,4,stim\gray.png,stim\gray.png,stim\gray.png,stim\yellow.png,down,,,,,,,,,,,,,0,0,0,5,0,8,8,8,,,,,,,,,,,,,,,,,,,,,,,,,,,,,,,,,,,,,,,,,,,,,,,,,,,,,,,,down,1,233.17847539996728,None,233.17847539996728,None,233.17847539996728,234.18007589993067,233.17847539996728,234.18007589993067,233.17847539996728,234.18007589993067,233.17847539996728,234.18007589993067,233.17847539996728,233.68019269988872,233.17847539996728,233.68019269988872,233.17847539996728,233.68019269988872,233.17847539996728,233.68019269988872,233.17847539996728,None,0.40877189999446273,,,,,11037,001,2024_Mar_11_1535,nback,2021.2.3,59.9362278145724,
1-back,instructions\back-1.png,conditions\11back-e.xlsx,,,experiment,1,3,stim\gray.png,stim\gray.png,stim\yellow.png,stim\gray.png,down,,,,,,,,,,,,,0,0,0,5,0,9,9,9,,,,,,,,,,,,,,,,,,,,,,,,,,,,,,,,,,,,,,,,,,,,,,,,,,,,,,,,down,1,234.68074029986747,None,234.68074029986747,None,234.68074029986747,235.68245369987562,234.68074029986747,235.68245369987562,234.68074029986747,235.68245369987562,234.68074029986747,235.68245369987562,234.68074029986747,235.18252769997343,234.68074029986747,235.18252769997343,234.68074029986747,235.18252769997343,234.68074029986747,235.18252769997343,234.68074029986747,None,0.4505578000098467,,,,,11037,001,2024_Mar_11_1535,nback,2021.2.3,59.9362278145724,
1-back,instructions\back-1.png,conditions\11back-e.xlsx,,,experiment,1,1,stim\yellow.png,stim\gray.png,stim\gray.png,stim\gray.png,right,,,,,,,,,,,,,0,0,0,5,0,10,10,10,,,,,,,,,,,,,,,,,,,,,,,,,,,,,,,,,,,,,,,,,,,,,,,,,,,,,,,,right,1,236.18294740002602,None,236.18294740002602,None,236.18294740002602,237.18545260000974,236.18294740002602,237.18545260000974,236.18294740002602,237.18545260000974,236.18294740002602,237.18545260000974,236.18294740002602,236.68408229993656,236.18294740002602,236.68408229993656,236.18294740002602,236.68408229993656,236.18294740002602,236.68408229993656,236.18294740002602,None,0.40363729977980256,,,,,11037,001,2024_Mar_11_1535,nback,2021.2.3,59.9362278145724,
1-back,instructions\back-1.png,conditions\11back-e.xlsx,,,experiment,1,2,stim\gray.png,stim\yellow.png,stim\gray.png,stim\gray.png,up,,,,,,,,,,,,,0,0,0,5,0,11,11,11,,,,,,,,,,,,,,,,,,,,,,,,,,,,,,,,,,,,,,,,,,,,,,,,,,,,,,,,up,1,237.68531999993138,None,237.68531999993138,None,237.68531999993138,238.6868449000176,237.68531999993138,238.6868449000176,237.68531999993138,238.6868449000176,237.68531999993138,238.6868449000176,237.68531999993138,238.18680959986523,237.68531999993138,238.18680959986523,237.68531999993138,238.18680959986523,237.68531999993138,238.18680959986523,237.68531999993138,None,0.39733800012618303,,,,,11037,001,2024_Mar_11_1535,nback,2021.2.3,59.9362278145724,
1-back,instructions\back-1.png,conditions\11back-e.xlsx,,,experiment,1,3,stim\gray.png,stim\gray.png,stim\yellow.png,stim\gray.png,left,,,,,,,,,,,,,0,0,0,5,0,12,12,12,,,,,,,,,,,,,,,,,,,,,,,,,,,,,,,,,,,,,,,,,,,,,,,,,,,,,,,,left,1,239.18721969984472,None,239.18721969984472,None,239.18721969984472,240.19004520005547,239.18721969984472,240.19004520005547,239.18721969984472,240.19004520005547,239.18721969984472,240.19004520005547,239.18721969984472,239.68933109985664,239.18721969984472,239.68933109985664,239.18721969984472,239.68933109985664,239.18721969984472,239.68933109985664,239.18721969984472,None,0.40792249981313944,,,,,11037,001,2024_Mar_11_1535,nback,2021.2.3,59.9362278145724,
1-back,instructions\back-1.png,conditions\11back-e.xlsx,,,experiment,1,4,stim\gray.png,stim\gray.png,stim\gray.png,stim\yellow.png,right,,,,,,,,,,,,,0,0,0,5,0,13,13,13,,,,,,,,,,,,,,,,,,,,,,,,,,,,,,,,,,,,,,,,,,,,,,,,,,,,,,,,right,1,240.67322149989195,None,240.67322149989195,None,240.67322149989195,241.67623179988004,240.67322149989195,241.67623179988004,240.67322149989195,241.67623179988004,240.67322149989195,241.67623179988004,240.67322149989195,241.17393220006488,240.67322149989195,241.17393220006488,240.67322149989195,241.17393220006488,240.67322149989195,241.17393220006488,240.67322149989195,None,0.45793600007891655,,,,,11037,001,2024_Mar_11_1535,nback,2021.2.3,59.9362278145724,
1-back,instructions\back-1.png,conditions\11back-e.xlsx,,,experiment,1,1,stim\yellow.png,stim\gray.png,stim\gray.png,stim\gray.png,down,,,,,,,,,,,,,0,0,0,5,0,14,14,14,,,,,,,,,,,,,,,,,,,,,,,,,,,,,,,,,,,,,,,,,,,,,,,,,,,,,,,,down,1,242.1767043999862,None,242.1767043999862,None,242.1767043999862,243.17757879989222,242.1767043999862,243.17757879989222,242.1767043999862,243.17757879989222,242.1767043999862,243.17757879989222,242.1767043999862,242.67709019989707,242.1767043999862,242.67709019989707,242.1767043999862,242.67709019989707,242.1767043999862,242.67709019989707,242.1767043999862,None,0.5783762999344617,,,,,11037,001,2024_Mar_11_1535,nback,2021.2.3,59.9362278145724,
1-back,instructions\back-1.png,conditions\11back-e.xlsx,,,experiment,1,2,stim\gray.png,stim\yellow.png,stim\gray.png,stim\gray.png,up,,,,,,,,,,,,,0,0,0,5,0,15,15,15,,,,,,,,,,,,,,,,,,,,,,,,,,,,,,,,,,,,,,,,,,,,,,,,,,,,,,,,up,1,243.67782459990121,None,243.67782459990121,None,243.67782459990121,244.67950670002028,243.67782459990121,244.67950670002028,243.67782459990121,244.67950670002028,243.67782459990121,244.67950670002028,243.67782459990121,244.1794988999609,243.67782459990121,244.1794988999609,243.67782459990121,244.1794988999609,243.67782459990121,244.1794988999609,243.67782459990121,None,0.43722389987669885,,,,,11037,001,2024_Mar_11_1535,nback,2021.2.3,59.9362278145724,
1-back,instructions\back-1.png,conditions\11back-e.xlsx,,,experiment,1,2,stim\gray.png,stim\yellow.png,stim\gray.png,stim\gray.png,left,,,,,,,,,,,,,0,0,0,5,0,16,16,16,,,,,,,,,,,,,,,,,,,,,,,,,,,,,,,,,,,,,,,,,,,,,,,,,,,,,,,,left,1,245.18081589997746,None,245.18081589997746,None,245.18081589997746,246.1821212999057,245.18081589997746,246.1821212999057,245.18081589997746,246.1821212999057,245.18081589997746,246.1821212999057,245.18081589997746,245.68089289986528,245.18081589997746,245.68089289986528,245.18081589997746,245.68089289986528,245.18081589997746,245.68089289986528,245.18081589997746,None,0.4625478000380099,,,,,11037,001,2024_Mar_11_1535,nback,2021.2.3,59.9362278145724,
1-back,instructions\back-1.png,conditions\11back-e.xlsx,,,experiment,1,1,stim\yellow.png,stim\gray.png,stim\gray.png,stim\gray.png,left,,,,,,,,,,,,,0,0,0,5,0,17,17,17,,,,,,,,,,,,,,,,,,,,,,,,,,,,,,,,,,,,,,,,,,,,,,,,,,,,,,,,left,1,246.68270280002616,None,246.68270280002616,None,246.68270280002616,247.68376130005345,246.68270280002616,247.68376130005345,246.68270280002616,247.68376130005345,246.68270280002616,247.68376130005345,246.68270280002616,247.1832053998951,246.68270280002616,247.1832053998951,246.68270280002616,247.1832053998951,246.68270280002616,247.1832053998951,246.68270280002616,None,0.4883297998458147,,,,,11037,001,2024_Mar_11_1535,nback,2021.2.3,59.9362278145724,
1-back,instructions\back-1.png,conditions\11back-e.xlsx,,,experiment,1,4,stim\gray.png,stim\gray.png,stim\gray.png,stim\yellow.png,up,,,,,,,,,,,,,0,0,0,5,0,18,18,18,,,,,,,,,,,,,,,,,,,,,,,,,,,,,,,,,,,,,,,,,,,,,,,,,,,,,,,,up,1,248.18493969994597,None,248.18493969994597,None,248.18493969994597,249.18614670005627,248.18493969994597,249.18614670005627,248.18493969994597,249.18614670005627,248.18493969994597,249.18614670005627,248.18493969994597,248.68529849988408,248.18493969994597,248.68529849988408,248.18493969994597,248.68529849988408,248.18493969994597,248.68529849988408,248.18493969994597,None,0.46634329995140433,,,,,11037,001,2024_Mar_11_1535,nback,2021.2.3,59.9362278145724,
1-back,instructions\back-1.png,conditions\11back-e.xlsx,,,experiment,1,3,stim\gray.png,stim\gray.png,stim\yellow.png,stim\gray.png,down,,,,,,,,,,,,,0,0,0,5,0,19,19,19,,,,,,,,,,,,,,,,,,,,,,,,,,,,,,,,,,,,,,,,,,,,,,,,,,,,,,,,down,1,249.68667209986597,None,249.68667209986597,None,249.68667209986597,250.68891509994864,249.68667209986597,250.68891509994864,249.68667209986597,250.68891509994864,249.68667209986597,250.68891509994864,249.68667209986597,250.18816350004636,249.68667209986597,250.18816350004636,249.68667209986597,250.18816350004636,249.68667209986597,250.18816350004636,249.68667209986597,None,0.7010342001449317,,,,,11037,001,2024_Mar_11_1535,nback,2021.2.3,59.9362278145724,
1-back,instructions\back-1.png,conditions\11back-e.xlsx,,,,,,,,,,,,,,,,,,,,,,,0,0,0,5,,,,,,,,,,,,,,,,,,,,,,,,,,,,,,,,,,,,,,,,,,,,,,,,,,,,,,,,,,,,,,,,,,,,,,,,,,,,,,,,,,,,,251.17235059989616,None,,,11037,001,2024_Mar_11_1535,nback,2021.2.3,59.9362278145724,
0-back,instructions\back-0.png,conditions\00back-e.xlsx,,,experiment,0,3,stim\gray.png,stim\gray.png,stim\yellow.png,stim\gray.png,right,,,,,,,,,,,,,0,1,1,0,0,0,0,0,,,,,,,,,,,,,,,252.29128009988926,256.7998039999511,256.7648453998845,None,,,,,,,,,,,,,,,,,,,,,,,,,,,,,,,,,,,,,,right,1,257.1990732999984,None,257.1990732999984,None,257.1990732999984,258.20032060006633,257.1990732999984,258.20032060006633,257.1990732999984,258.20032060006633,257.1990732999984,258.20032060006633,257.1990732999984,257.6997670000419,257.1990732999984,257.6997670000419,257.1990732999984,257.6997670000419,257.1990732999984,257.6997670000419,257.1990732999984,None,0.6443175999447703,,,,,11037,001,2024_Mar_11_1535,nback,2021.2.3,59.9362278145724,
0-back,instructions\back-0.png,conditions\00back-e.xlsx,,,experiment,0,4,stim\gray.png,stim\gray.png,stim\gray.png,stim\yellow.png,down,,,,,,,,,,,,,0,1,1,0,0,1,1,1,,,,,,,,,,,,,,,,,,,,,,,,,,,,,,,,,,,,,,,,,,,,,,,,,,,,,,,,down,1,258.683469499927,None,258.683469499927,None,258.683469499927,259.68570759985596,258.683469499927,259.68570759985596,258.683469499927,259.68570759985596,258.683469499927,259.68570759985596,258.683469499927,259.1853759000078,258.683469499927,259.1853759000078,258.683469499927,259.1853759000078,258.683469499927,259.1853759000078,258.683469499927,None,1.2481912998482585,,,,,11037,001,2024_Mar_11_1535,nback,2021.2.3,59.9362278145724,
0-back,instructions\back-0.png,conditions\00back-e.xlsx,,,experiment,0,1,stim\yellow.png,stim\gray.png,stim\gray.png,stim\gray.png,up,,,,,,,,,,,,,0,1,1,0,0,2,2,2,,,,,,,,,,,,,,,,,,,,,,,,,,,,,,,,,,,,,,,,,,,,,,,,,,,,,,,,up,1,260.18577339989133,None,260.18577339989133,None,260.18577339989133,261.18824519985355,260.18577339989133,261.18824519985355,260.18577339989133,261.18824519985355,260.18577339989133,261.18824519985355,260.18577339989133,260.6866154000163,260.18577339989133,260.6866154000163,260.18577339989133,260.6866154000163,260.18577339989133,260.6866154000163,260.18577339989133,None,0.6578200000803918,,,,,11037,001,2024_Mar_11_1535,nback,2021.2.3,59.9362278145724,
0-back,instructions\back-0.png,conditions\00back-e.xlsx,,,experiment,0,2,stim\gray.png,stim\yellow.png,stim\gray.png,stim\gray.png,left,,,,,,,,,,,,,0,1,1,0,0,3,3,3,,,,,,,,,,,,,,,,,,,,,,,,,,,,,,,,,,,,,,,,,,,,,,,,,,,,,,,,left,1,261.6881394998636,None,261.6881394998636,None,261.6881394998636,262.6919042998925,261.6881394998636,262.6919042998925,261.6881394998636,262.6919042998925,261.6881394998636,262.6919042998925,261.6881394998636,262.1888271998614,261.6881394998636,262.1888271998614,261.6881394998636,262.1888271998614,261.6881394998636,262.1888271998614,261.6881394998636,None,0.3876021998003125,,,,,11037,001,2024_Mar_11_1535,nback,2021.2.3,59.9362278145724,
0-back,instructions\back-0.png,conditions\00back-e.xlsx,,,experiment,0,2,stim\gray.png,stim\yellow.png,stim\gray.png,stim\gray.png,left,,,,,,,,,,,,,0,1,1,0,0,4,4,4,,,,,,,,,,,,,,,,,,,,,,,,,,,,,,,,,,,,,,,,,,,,,,,,,,,,,,,,left,1,263.17425899999216,None,263.17425899999216,None,263.17425899999216,264.17527109989896,263.17425899999216,264.17527109989896,263.17425899999216,264.17527109989896,263.17425899999216,264.17527109989896,263.17425899999216,263.6757217999548,263.17425899999216,263.6757217999548,263.17425899999216,263.6757217999548,263.17425899999216,263.6757217999548,263.17425899999216,None,0.5574990999884903,,,,,11037,001,2024_Mar_11_1535,nback,2021.2.3,59.9362278145724,
0-back,instructions\back-0.png,conditions\00back-e.xlsx,,,experiment,0,1,stim\yellow.png,stim\gray.png,stim\gray.png,stim\gray.png,up,,,,,,,,,,,,,0,1,1,0,0,5,5,5,,,,,,,,,,,,,,,,,,,,,,,,,,,,,,,,,,,,,,,,,,,,,,,,,,,,,,,,up,1,264.67715159989893,None,264.67715159989893,None,264.67715159989893,265.6776196998544,264.67715159989893,265.6776196998544,264.67715159989893,265.6776196998544,264.67715159989893,265.6776196998544,264.67715159989893,265.1774750999175,264.67715159989893,265.1774750999175,264.67715159989893,265.1774750999175,264.67715159989893,265.1774750999175,264.67715159989893,None,0.5181128000840545,,,,,11037,001,2024_Mar_11_1535,nback,2021.2.3,59.9362278145724,
0-back,instructions\back-0.png,conditions\00back-e.xlsx,,,experiment,0,4,stim\gray.png,stim\gray.png,stim\gray.png,stim\yellow.png,down,,,,,,,,,,,,,0,1,1,0,0,6,6,6,,,,,,,,,,,,,,,,,,,,,,,,,,,,,,,,,,,,,,,,,,,,,,,,,,,,,,,,down,1,266.17874139989726,None,266.17874139989726,None,266.17874139989726,267.1803200999275,266.17874139989726,267.1803200999275,266.17874139989726,267.1803200999275,266.17874139989726,267.1803200999275,266.17874139989726,266.67969949985854,266.17874139989726,266.67969949985854,266.17874139989726,266.67969949985854,266.17874139989726,266.67969949985854,266.17874139989726,None,0.7696595001034439,,,,,11037,001,2024_Mar_11_1535,nback,2021.2.3,59.9362278145724,
0-back,instructions\back-0.png,conditions\00back-e.xlsx,,,experiment,0,3,stim\gray.png,stim\gray.png,stim\yellow.png,stim\gray.png,right,,,,,,,,,,,,,0,1,1,0,0,7,7,7,,,,,,,,,,,,,,,,,,,,,,,,,,,,,,,,,,,,,,,,,,,,,,,,,,,,,,,,right,1,267.68183739995584,None,267.68183739995584,None,267.68183739995584,268.6823268998414,267.68183739995584,268.6823268998414,267.68183739995584,268.6823268998414,267.68183739995584,268.6823268998414,267.68183739995584,268.18157289992087,267.68183739995584,268.18157289992087,267.68183739995584,268.18157289992087,267.68183739995584,268.18157289992087,267.68183739995584,None,0.6505481998901814,,,,,11037,001,2024_Mar_11_1535,nback,2021.2.3,59.9362278145724,
0-back,instructions\back-0.png,conditions\00back-e.xlsx,,,experiment,0,4,stim\gray.png,stim\gray.png,stim\gray.png,stim\yellow.png,down,,,,,,,,,,,,,0,1,1,0,0,8,8,8,,,,,,,,,,,,,,,,,,,,,,,,,,,,,,,,,,,,,,,,,,,,,,,,,,,,,,,,down,1,269.1835624000523,None,269.1835624000523,None,269.1835624000523,270.1846366999671,269.1835624000523,270.1846366999671,269.1835624000523,270.1846366999671,269.1835624000523,270.1846366999671,269.1835624000523,269.683893899899,269.1835624000523,269.683893899899,269.1835624000523,269.683893899899,269.1835624000523,269.683893899899,269.1835624000523,None,0.5960806999355555,,,,,11037,001,2024_Mar_11_1535,nback,2021.2.3,59.9362278145724,
0-back,instructions\back-0.png,conditions\00back-e.xlsx,,,experiment,0,3,stim\gray.png,stim\gray.png,stim\yellow.png,stim\gray.png,right,,,,,,,,,,,,,0,1,1,0,0,9,9,9,,,,,,,,,,,,,,,,,,,,,,,,,,,,,,,,,,,,,,,,,,,,,,,,,,,,,,,,right,1,270.68513559992425,None,270.68513559992425,None,270.68513559992425,271.6865554000251,270.68513559992425,271.6865554000251,270.68513559992425,271.6865554000251,270.68513559992425,271.6865554000251,270.68513559992425,271.18699899991043,270.68513559992425,271.18699899991043,270.68513559992425,271.18699899991043,270.68513559992425,271.18699899991043,270.68513559992425,None,0.5588726999703795,,,,,11037,001,2024_Mar_11_1535,nback,2021.2.3,59.9362278145724,
0-back,instructions\back-0.png,conditions\00back-e.xlsx,,,experiment,0,1,stim\yellow.png,stim\gray.png,stim\gray.png,stim\gray.png,up,,,,,,,,,,,,,0,1,1,0,0,10,10,10,,,,,,,,,,,,,,,,,,,,,,,,,,,,,,,,,,,,,,,,,,,,,,,,,,,,,,,,up,1,272.1874553998932,None,272.1874553998932,None,272.1874553998932,273.1899192999117,272.1874553998932,273.1899192999117,272.1874553998932,273.1899192999117,272.1874553998932,273.1899192999117,272.1874553998932,272.6883113000076,272.1874553998932,272.6883113000076,272.1874553998932,272.6883113000076,272.1874553998932,272.6883113000076,272.1874553998932,None,0.8242107001133263,,,,,11037,001,2024_Mar_11_1535,nback,2021.2.3,59.9362278145724,
0-back,instructions\back-0.png,conditions\00back-e.xlsx,,,experiment,0,2,stim\gray.png,stim\yellow.png,stim\gray.png,stim\gray.png,left,,,,,,,,,,,,,0,1,1,0,0,11,11,11,,,,,,,,,,,,,,,,,,,,,,,,,,,,,,,,,,,,,,,,,,,,,,,,,,,,,,,,left,1,273.6729667999316,None,273.6729667999316,None,273.6729667999316,274.67461250000633,273.6729667999316,274.67461250000633,273.6729667999316,274.67461250000633,273.6729667999316,274.67461250000633,273.6729667999316,274.17422719998285,273.6729667999316,274.17422719998285,273.6729667999316,274.17422719998285,273.6729667999316,274.17422719998285,273.6729667999316,None,0.8670326999854296,,,,,11037,001,2024_Mar_11_1535,nback,2021.2.3,59.9362278145724,
0-back,instructions\back-0.png,conditions\00back-e.xlsx,,,experiment,0,3,stim\gray.png,stim\gray.png,stim\yellow.png,stim\gray.png,right,,,,,,,,,,,,,0,1,1,0,0,12,12,12,,,,,,,,,,,,,,,,,,,,,,,,,,,,,,,,,,,,,,,,,,,,,,,,,,,,,,,,right,1,275.1750805999618,None,275.1750805999618,None,275.1750805999618,276.17764339991845,275.1750805999618,276.17764339991845,275.1750805999618,276.17764339991845,275.1750805999618,276.17764339991845,275.1750805999618,275.6768646999262,275.1750805999618,275.6768646999262,275.1750805999618,275.6768646999262,275.1750805999618,275.6768646999262,275.1750805999618,None,0.8687248001806438,,,,,11037,001,2024_Mar_11_1535,nback,2021.2.3,59.9362278145724,
0-back,instructions\back-0.png,conditions\00back-e.xlsx,,,experiment,0,1,stim\yellow.png,stim\gray.png,stim\gray.png,stim\gray.png,up,,,,,,,,,,,,,0,1,1,0,0,13,13,13,,,,,,,,,,,,,,,,,,,,,,,,,,,,,,,,,,,,,,,,,,,,,,,,,,,,,,,,up,1,276.6776405000128,None,276.6776405000128,None,276.6776405000128,277.67904650000855,276.6776405000128,277.67904650000855,276.6776405000128,277.67904650000855,276.6776405000128,277.67904650000855,276.6776405000128,277.1786386000458,276.6776405000128,277.1786386000458,276.6776405000128,277.1786386000458,276.6776405000128,277.1786386000458,276.6776405000128,None,0.8701468999497592,,,,,11037,001,2024_Mar_11_1535,nback,2021.2.3,59.9362278145724,
0-back,instructions\back-0.png,conditions\00back-e.xlsx,,,experiment,0,4,stim\gray.png,stim\gray.png,stim\gray.png,stim\yellow.png,down,,,,,,,,,,,,,0,1,1,0,0,14,14,14,,,,,,,,,,,,,,,,,,,,,,,,,,,,,,,,,,,,,,,,,,,,,,,,,,,,,,,,down,1,278.1812146999873,None,278.1812146999873,None,278.1812146999873,279.18141700001433,278.1812146999873,279.18141700001433,278.1812146999873,279.18141700001433,278.1812146999873,279.18141700001433,278.1812146999873,278.68082779995166,278.1812146999873,278.68082779995166,278.1812146999873,278.68082779995166,278.1812146999873,278.68082779995166,278.1812146999873,None,0.8229439998976886,,,,,11037,001,2024_Mar_11_1535,nback,2021.2.3,59.9362278145724,
0-back,instructions\back-0.png,conditions\00back-e.xlsx,,,experiment,0,2,stim\gray.png,stim\yellow.png,stim\gray.png,stim\gray.png,left,,,,,,,,,,,,,0,1,1,0,0,15,15,15,,,,,,,,,,,,,,,,,,,,,,,,,,,,,,,,,,,,,,,,,,,,,,,,,,,,,,,,left,1,279.6820298000239,None,279.6820298000239,None,279.6820298000239,280.68337320000865,279.6820298000239,280.68337320000865,279.6820298000239,280.68337320000865,279.6820298000239,280.68337320000865,279.6820298000239,280.18262779992074,279.6820298000239,280.18262779992074,279.6820298000239,280.18262779992074,279.6820298000239,280.18262779992074,279.6820298000239,None,0.8023614999838173,,,,,11037,001,2024_Mar_11_1535,nback,2021.2.3,59.9362278145724,
0-back,instructions\back-0.png,conditions\00back-e.xlsx,,,experiment,0,1,stim\yellow.png,stim\gray.png,stim\gray.png,stim\gray.png,up,,,,,,,,,,,,,0,1,1,0,0,16,16,16,,,,,,,,,,,,,,,,,,,,,,,,,,,,,,,,,,,,,,,,,,,,,,,,,,,,,,,,up,1,281.18426189990714,None,281.18426189990714,None,281.18426189990714,282.18578269984573,281.18426189990714,282.18578269984573,281.18426189990714,282.18578269984573,281.18426189990714,282.18578269984573,281.18426189990714,281.6851154998876,281.18426189990714,281.6851154998876,281.18426189990714,281.6851154998876,281.18426189990714,281.6851154998876,281.18426189990714,None,0.8439317001029849,,,,,11037,001,2024_Mar_11_1535,nback,2021.2.3,59.9362278145724,
0-back,instructions\back-0.png,conditions\00back-e.xlsx,,,experiment,0,2,stim\gray.png,stim\yellow.png,stim\gray.png,stim\gray.png,left,,,,,,,,,,,,,0,1,1,0,0,17,17,17,,,,,,,,,,,,,,,,,,,,,,,,,,,,,,,,,,,,,,,,,,,,,,,,,,,,,,,,left,1,282.6865496998653,None,282.6865496998653,None,282.6865496998653,283.6881215998437,282.6865496998653,283.6881215998437,282.6865496998653,283.6881215998437,282.6865496998653,283.6881215998437,282.6865496998653,283.18745049997233,282.6865496998653,283.18745049997233,282.6865496998653,283.18745049997233,282.6865496998653,283.18745049997233,282.6865496998653,None,0.9099155999720097,,,,,11037,001,2024_Mar_11_1535,nback,2021.2.3,59.9362278145724,
0-back,instructions\back-0.png,conditions\00back-e.xlsx,,,experiment,0,3,stim\gray.png,stim\gray.png,stim\yellow.png,stim\gray.png,right,,,,,,,,,,,,,0,1,1,0,0,18,18,18,,,,,,,,,,,,,,,,,,,,,,,,,,,,,,,,,,,,,,,,,,,,,,,,,,,,,,,,right,1,284.1887234998867,None,284.1887234998867,None,284.1887234998867,285.19104829989374,284.1887234998867,285.19104829989374,284.1887234998867,285.19104829989374,284.1887234998867,285.19104829989374,284.1887234998867,284.6898077998776,284.1887234998867,284.6898077998776,284.1887234998867,284.6898077998776,284.1887234998867,284.6898077998776,284.1887234998867,None,0.6078540000598878,,,,,11037,001,2024_Mar_11_1535,nback,2021.2.3,59.9362278145724,
0-back,instructions\back-0.png,conditions\00back-e.xlsx,,,experiment,0,4,stim\gray.png,stim\gray.png,stim\gray.png,stim\yellow.png,down,,,,,,,,,,,,,0,1,1,0,0,19,19,19,,,,,,,,,,,,,,,,,,,,,,,,,,,,,,,,,,,,,,,,,,,,,,,,,,,,,,,,down,1,285.67426749994047,None,285.67426749994047,None,285.67426749994047,286.67593629984185,285.67426749994047,286.67593629984185,285.67426749994047,286.67593629984185,285.67426749994047,286.67593629984185,285.67426749994047,286.17591769993305,285.67426749994047,286.17591769993305,285.67426749994047,286.17591769993305,285.67426749994047,286.17591769993305,285.67426749994047,None,0.905521199805662,,,,,11037,001,2024_Mar_11_1535,nback,2021.2.3,59.9362278145724,
0-back,instructions\back-0.png,conditions\00back-e.xlsx,,,,,,,,,,,,,,,,,,,,,,,0,1,1,0,,,,,,,,,,,,,,,,,,,,,,,,,,,,,,,,,,,,,,,,,,,,,,,,,,,,,,,,,,,,,,,,,,,,,,,,,,,,,,,,,,,,,287.17667139996774,None,,,11037,001,2024_Mar_11_1535,nback,2021.2.3,59.9362278145724,
0-back,instructions\back-0.png,conditions\02back-e.xlsx,,,experiment,0,4,stim\gray.png,stim\gray.png,stim\gray.png,stim\yellow.png,down,,,,,,,,,,,,,0,2,2,7,0,0,0,0,,,,,,,,,,,,,,,288.29549199994653,292.8031260999851,292.7690369000193,None,,,,,,,,,,,,,,,,,,,,,,,,,,,,,,,,,,,,,,down,1,293.20414289995097,None,293.20414289995097,None,293.20414289995097,294.20404929993674,293.20414289995097,294.20404929993674,293.20414289995097,294.20404929993674,293.20414289995097,294.20404929993674,293.20414289995097,293.70378390001133,293.20414289995097,293.70378390001133,293.20414289995097,293.70378390001133,293.20414289995097,293.70378390001133,293.20414289995097,None,0.504149500047788,,,,,11037,001,2024_Mar_11_1535,nback,2021.2.3,59.9362278145724,
0-back,instructions\back-0.png,conditions\02back-e.xlsx,,,experiment,0,2,stim\gray.png,stim\yellow.png,stim\gray.png,stim\gray.png,left,,,,,,,,,,,,,0,2,2,7,0,1,1,1,,,,,,,,,,,,,,,,,,,,,,,,,,,,,,,,,,,,,,,,,,,,,,,,,,,,,,,,left,1,294.68820259999484,None,294.68820259999484,None,294.68820259999484,295.68944099987857,294.68820259999484,295.68944099987857,294.68820259999484,295.68944099987857,294.68820259999484,295.68944099987857,294.68820259999484,295.1886853000615,294.68820259999484,295.1886853000615,294.68820259999484,295.1886853000615,294.68820259999484,295.1886853000615,294.68820259999484,None,0.8841207001823932,,,,,11037,001,2024_Mar_11_1535,nback,2021.2.3,59.9362278145724,
0-back,instructions\back-0.png,conditions\02back-e.xlsx,,,experiment,0,1,stim\yellow.png,stim\gray.png,stim\gray.png,stim\gray.png,up,,,,,,,,,,,,,0,2,2,7,0,2,2,2,,,,,,,,,,,,,,,,,,,,,,,,,,,,,,,,,,,,,,,,,,,,,,,,,,,,,,,,up,1,296.17380729992874,None,296.17380729992874,None,296.17380729992874,297.1750847999938,296.17380729992874,297.1750847999938,296.17380729992874,297.1750847999938,296.17380729992874,297.1750847999938,296.17380729992874,296.6742165000178,296.17380729992874,296.6742165000178,296.17380729992874,296.6742165000178,296.17380729992874,296.6742165000178,296.17380729992874,None,0.8308053000364453,,,,,11037,001,2024_Mar_11_1535,nback,2021.2.3,59.9362278145724,
0-back,instructions\back-0.png,conditions\02back-e.xlsx,,,experiment,0,2,stim\gray.png,stim\yellow.png,stim\gray.png,stim\gray.png,left,,,,,,,,,,,,,0,2,2,7,0,3,3,3,,,,,,,,,,,,,,,,,,,,,,,,,,,,,,,,,,,,,,,,,,,,,,,,,,,,,,,,left,1,297.6762434998527,None,297.6762434998527,None,297.6762434998527,298.67748409998603,297.6762434998527,298.67748409998603,297.6762434998527,298.67748409998603,297.6762434998527,298.67748409998603,297.6762434998527,298.17652989993803,297.6762434998527,298.17652989993803,297.6762434998527,298.17652989993803,297.6762434998527,298.17652989993803,297.6762434998527,None,1.0886309000197798,,,,,11037,001,2024_Mar_11_1535,nback,2021.2.3,59.9362278145724,
0-back,instructions\back-0.png,conditions\02back-e.xlsx,,,experiment,0,3,stim\gray.png,stim\gray.png,stim\yellow.png,stim\gray.png,right,,,,,,,,,,,,,0,2,2,7,0,4,4,4,,,,,,,,,,,,,,,,,,,,,,,,,,,,,,,,,,,,,,,,,,,,,,,,,,,,,,,,right,1,299.178276399849,None,299.178276399849,None,299.178276399849,300.1801148999948,299.178276399849,300.1801148999948,299.178276399849,300.1801148999948,299.178276399849,300.1801148999948,299.178276399849,299.67919319984503,299.178276399849,299.67919319984503,299.178276399849,299.67919319984503,299.178276399849,299.67919319984503,299.178276399849,None,1.1464186001103371,,,,,11037,001,2024_Mar_11_1535,nback,2021.2.3,59.9362278145724,
0-back,instructions\back-0.png,conditions\02back-e.xlsx,,,experiment,0,1,stim\yellow.png,stim\gray.png,stim\gray.png,stim\gray.png,up,,,,,,,,,,,,,0,2,2,7,0,5,5,5,,,,,,,,,,,,,,,,,,,,,,,,,,,,,,,,,,,,,,,,,,,,,,,,,,,,,,,,up,1,300.68032249994576,None,300.68032249994576,None,300.68032249994576,301.6819455998484,300.68032249994576,301.6819455998484,300.68032249994576,301.6819455998484,300.68032249994576,301.6819455998484,300.68032249994576,301.18114369991235,300.68032249994576,301.18114369991235,300.68032249994576,301.18114369991235,300.68032249994576,301.18114369991235,300.68032249994576,None,1.0683921999298036,,,,,11037,001,2024_Mar_11_1535,nback,2021.2.3,59.9362278145724,
0-back,instructions\back-0.png,conditions\02back-e.xlsx,,,experiment,0,2,stim\gray.png,stim\yellow.png,stim\gray.png,stim\gray.png,left,,,,,,,,,,,,,0,2,2,7,0,6,6,6,,,,,,,,,,,,,,,,,,,,,,,,,,,,,,,,,,,,,,,,,,,,,,,,,,,,,,,,left,1,302.18332839990035,None,302.18332839990035,None,302.18332839990035,303.1841221000068,302.18332839990035,303.1841221000068,302.18332839990035,303.1841221000068,302.18332839990035,303.1841221000068,302.18332839990035,302.68398460000753,302.18332839990035,302.68398460000753,302.18332839990035,302.68398460000753,302.18332839990035,302.68398460000753,302.18332839990035,None,0.8613464999943972,,,,,11037,001,2024_Mar_11_1535,nback,2021.2.3,59.9362278145724,
0-back,instructions\back-0.png,conditions\02back-e.xlsx,,,experiment,0,3,stim\gray.png,stim\gray.png,stim\yellow.png,stim\gray.png,right,,,,,,,,,,,,,0,2,2,7,0,7,7,7,,,,,,,,,,,,,,,,,,,,,,,,,,,,,,,,,,,,,,,,,,,,,,,,,,,,,,,,right,1,303.6852587000467,None,303.6852587000467,None,303.6852587000467,304.6863893000409,303.6852587000467,304.6863893000409,303.6852587000467,304.6863893000409,303.6852587000467,304.6863893000409,303.6852587000467,304.186529800063,303.6852587000467,304.186529800063,303.6852587000467,304.186529800063,303.6852587000467,304.186529800063,303.6852587000467,None,0.8554269999731332,,,,,11037,001,2024_Mar_11_1535,nback,2021.2.3,59.9362278145724,
0-back,instructions\back-0.png,conditions\02back-e.xlsx,,,experiment,0,4,stim\gray.png,stim\gray.png,stim\gray.png,stim\yellow.png,down,,,,,,,,,,,,,0,2,2,7,0,8,8,8,,,,,,,,,,,,,,,,,,,,,,,,,,,,,,,,,,,,,,,,,,,,,,,,,,,,,,,,down,1,305.1871875000652,None,305.1871875000652,None,305.1871875000652,306.1886082999408,305.1871875000652,306.1886082999408,305.1871875000652,306.1886082999408,305.1871875000652,306.1886082999408,305.1871875000652,305.6878267999273,305.1871875000652,305.6878267999273,305.1871875000652,305.6878267999273,305.1871875000652,305.6878267999273,305.1871875000652,None,0.8734482999425381,,,,,11037,001,2024_Mar_11_1535,nback,2021.2.3,59.9362278145724,
0-back,instructions\back-0.png,conditions\02back-e.xlsx,,,experiment,0,3,stim\gray.png,stim\gray.png,stim\yellow.png,stim\gray.png,right,,,,,,,,,,,,,0,2,2,7,0,9,9,9,,,,,,,,,,,,,,,,,,,,,,,,,,,,,,,,,,,,,,,,,,,,,,,,,,,,,,,,right,1,306.6728230000008,None,306.6728230000008,None,306.6728230000008,307.6752706000116,306.6728230000008,307.6752706000116,306.6728230000008,307.6752706000116,306.6728230000008,307.6752706000116,306.6728230000008,307.17351570003666,306.6728230000008,307.17351570003666,306.6728230000008,307.17351570003666,306.6728230000008,307.17351570003666,306.6728230000008,None,0.9561236000154167,,,,,11037,001,2024_Mar_11_1535,nback,2021.2.3,59.9362278145724,
0-back,instructions\back-0.png,conditions\02back-e.xlsx,,,experiment,0,1,stim\yellow.png,stim\gray.png,stim\gray.png,stim\gray.png,up,,,,,,,,,,,,,0,2,2,7,0,10,10,10,,,,,,,,,,,,,,,,,,,,,,,,,,,,,,,,,,,,,,,,,,,,,,,,,,,,,,,,up,1,308.17510039987974,None,308.17510039987974,None,308.17510039987974,309.1773039000109,308.17510039987974,309.1773039000109,308.17510039987974,309.1773039000109,308.17510039987974,309.1773039000109,308.17510039987974,308.6761353998445,308.17510039987974,308.6761353998445,308.17510039987974,308.6761353998445,308.17510039987974,308.6761353998445,308.17510039987974,None,0.8616416999138892,,,,,11037,001,2024_Mar_11_1535,nback,2021.2.3,59.9362278145724,
0-back,instructions\back-0.png,conditions\02back-e.xlsx,,,experiment,0,4,stim\gray.png,stim\gray.png,stim\gray.png,stim\yellow.png,down,,,,,,,,,,,,,0,2,2,7,0,11,11,11,,,,,,,,,,,,,,,,,,,,,,,,,,,,,,,,,,,,,,,,,,,,,,,,,,,,,,,,down,1,309.67722459998913,None,309.67722459998913,None,309.67722459998913,310.6797098000534,309.67722459998913,310.6797098000534,309.67722459998913,310.6797098000534,309.67722459998913,310.6797098000534,309.67722459998913,310.1786962999031,309.67722459998913,310.1786962999031,309.67722459998913,310.1786962999031,309.67722459998913,310.1786962999031,309.67722459998913,None,1.1196452998556197,,,,,11037,001,2024_Mar_11_1535,nback,2021.2.3,59.9362278145724,
0-back,instructions\back-0.png,conditions\02back-e.xlsx,,,experiment,0,3,stim\gray.png,stim\gray.png,stim\yellow.png,stim\gray.png,right,,,,,,,,,,,,,0,2,2,7,0,12,12,12,,,,,,,,,,,,,,,,,,,,,,,,,,,,,,,,,,,,,,,,,,,,,,,,,,,,,,,,right,1,311.179567999905,None,311.179567999905,None,311.179567999905,312.18210199987516,311.179567999905,312.18210199987516,311.179567999905,312.18210199987516,311.179567999905,312.18210199987516,311.179567999905,311.6801758999936,311.179567999905,311.6801758999936,311.179567999905,311.6801758999936,311.179567999905,311.6801758999936,311.179567999905,None,1.1690882998518646,,,,,11037,001,2024_Mar_11_1535,nback,2021.2.3,59.9362278145724,
0-back,instructions\back-0.png,conditions\02back-e.xlsx,,,experiment,0,1,stim\yellow.png,stim\gray.png,stim\gray.png,stim\gray.png,up,,,,,,,,,,,,,0,2,2,7,0,13,13,13,,,,,,,,,,,,,,,,,,,,,,,,,,,,,,,,,,,,,,,,,,,,,,,,,,,,,,,,up,1,312.681588599924,None,312.681588599924,None,312.681588599924,313.6832699999213,312.681588599924,313.6832699999213,312.681588599924,313.6832699999213,312.681588599924,313.6832699999213,312.681588599924,313.1835765000433,312.681588599924,313.1835765000433,312.681588599924,313.1835765000433,312.681588599924,313.1835765000433,312.681588599924,None,0.9711114000529051,,,,,11037,001,2024_Mar_11_1535,nback,2021.2.3,59.9362278145724,
0-back,instructions\back-0.png,conditions\02back-e.xlsx,,,experiment,0,2,stim\gray.png,stim\yellow.png,stim\gray.png,stim\gray.png,left,,,,,,,,,,,,,0,2,2,7,0,14,14,14,,,,,,,,,,,,,,,,,,,,,,,,,,,,,,,,,,,,,,,,,,,,,,,,,,,,,,,,left,1,314.1840431999881,None,314.1840431999881,None,314.1840431999881,315.18577539990656,314.1840431999881,315.18577539990656,314.1840431999881,315.18577539990656,314.1840431999881,315.18577539990656,314.1840431999881,314.68512320006266,314.1840431999881,314.68512320006266,314.1840431999881,314.68512320006266,314.1840431999881,314.68512320006266,314.1840431999881,None,1.0448561999946833,,,,,11037,001,2024_Mar_11_1535,nback,2021.2.3,59.9362278145724,
0-back,instructions\back-0.png,conditions\02back-e.xlsx,,,experiment,0,1,stim\yellow.png,stim\gray.png,stim\gray.png,stim\gray.png,up,,,,,,,,,,,,,0,2,2,7,0,15,15,15,,,,,,,,,,,,,,,,,,,,,,,,,,,,,,,,,,,,,,,,,,,,,,,,,,,,,,,,up,1,315.686483199941,None,315.686483199941,None,315.686483199941,316.6884603998624,315.686483199941,316.6884603998624,315.686483199941,316.6884603998624,315.686483199941,316.6884603998624,315.686483199941,316.18703190004453,315.686483199941,316.18703190004453,315.686483199941,316.18703190004453,315.686483199941,316.18703190004453,315.686483199941,None,0.9022086998447776,,,,,11037,001,2024_Mar_11_1535,nback,2021.2.3,59.9362278145724,
0-back,instructions\back-0.png,conditions\02back-e.xlsx,,,experiment,0,3,stim\gray.png,stim\gray.png,stim\yellow.png,stim\gray.png,right,,,,,,,,,,,,,0,2,2,7,0,16,16,16,,,,,,,,,,,,,,,,,,,,,,,,,,,,,,,,,,,,,,,,,,,,,,,,,,,,,,,,right,1,317.17202339996584,None,317.17202339996584,None,317.17202339996584,318.17347349994816,317.17202339996584,318.17347349994816,317.17202339996584,318.17347349994816,317.17202339996584,318.17347349994816,317.17202339996584,317.67309039994143,317.17202339996584,317.67309039994143,317.17202339996584,317.67309039994143,317.17202339996584,317.67309039994143,317.17202339996584,None,0.88146509998478,,,,,11037,001,2024_Mar_11_1535,nback,2021.2.3,59.9362278145724,
0-back,instructions\back-0.png,conditions\02back-e.xlsx,,,experiment,0,4,stim\gray.png,stim\gray.png,stim\gray.png,stim\yellow.png,down,,,,,,,,,,,,,0,2,2,7,0,17,17,17,,,,,,,,,,,,,,,,,,,,,,,,,,,,,,,,,,,,,,,,,,,,,,,,,,,,,,,,down,1,318.6741175998468,None,318.6741175998468,None,318.6741175998468,319.6767142000608,318.6741175998468,319.6767142000608,318.6741175998468,319.6767142000608,318.6741175998468,319.6767142000608,318.6741175998468,319.174879899947,318.6741175998468,319.174879899947,318.6741175998468,319.174879899947,318.6741175998468,319.174879899947,318.6741175998468,None,0.4516692999750376,,,,,11037,001,2024_Mar_11_1535,nback,2021.2.3,59.9362278145724,
0-back,instructions\back-0.png,conditions\02back-e.xlsx,,,experiment,0,4,stim\gray.png,stim\gray.png,stim\gray.png,stim\yellow.png,down,,,,,,,,,,,,,0,2,2,7,0,18,18,18,,,,,,,,,,,,,,,,,,,,,,,,,,,,,,,,,,,,,,,,,,,,,,,,,,,,,,,,down,1,320.1767118999269,None,320.1767118999269,None,320.1767118999269,321.1785484000575,320.1767118999269,321.1785484000575,320.1767118999269,321.1785484000575,320.1767118999269,321.1785484000575,320.1767118999269,320.6779191000387,320.1767118999269,320.6779191000387,320.1767118999269,320.6779191000387,320.1767118999269,320.6779191000387,320.1767118999269,None,0.8924260998610407,,,,,11037,001,2024_Mar_11_1535,nback,2021.2.3,59.9362278145724,
0-back,instructions\back-0.png,conditions\02back-e.xlsx,,,experiment,0,2,stim\gray.png,stim\yellow.png,stim\gray.png,stim\gray.png,left,,,,,,,,,,,,,0,2,2,7,0,19,19,19,,,,,,,,,,,,,,,,,,,,,,,,,,,,,,,,,,,,,,,,,,,,,,,,,,,,,,,,left,1,321.67866509989835,None,321.67866509989835,None,321.67866509989835,322.67999959993176,321.67866509989835,322.67999959993176,321.67866509989835,322.67999959993176,321.67866509989835,322.67999959993176,321.67866509989835,322.1797704999335,321.67866509989835,322.1797704999335,321.67866509989835,322.1797704999335,321.67866509989835,322.1797704999335,321.67866509989835,None,0.798481100006029,,,,,11037,001,2024_Mar_11_1535,nback,2021.2.3,59.9362278145724,
0-back,instructions\back-0.png,conditions\02back-e.xlsx,,,,,,,,,,,,,,,,,,,,,,,0,2,2,7,,,,,,,,,,,,,,,,,,,,,,,,,,,,,,,,,,,,,,,,,,,,,,,,,,,,,,,,,,,,,,,,,,,,,,,,,,,,,,,,,,,,,323.1815756999422,None,,,11037,001,2024_Mar_11_1535,nback,2021.2.3,59.9362278145724,
1-back,instructions\back-1.png,conditions\13back-e.xlsx,,,experiment,1,1,stim\yellow.png,stim\gray.png,stim\gray.png,stim\gray.png,None,,,,,,,,,,,,,0,3,3,10,0,0,0,0,,,,,,,,,,,,,,,324.2818167998921,328.7897526999004,328.7726948999334,None,,,,,,,,,,,,,,,,,,,,,,,,,,,,,,,,,,,,,,None,1,329.1906610999722,None,329.1906610999722,None,329.1906610999722,330.192145699868,329.1906610999722,330.192145699868,329.1906610999722,330.192145699868,329.1906610999722,330.192145699868,329.1906610999722,329.6909320000559,329.1906610999722,329.6909320000559,329.1906610999722,329.6909320000559,329.1906610999722,329.6909320000559,329.1906610999722,None,,,,,,11037,001,2024_Mar_11_1535,nback,2021.2.3,59.9362278145724,
1-back,instructions\back-1.png,conditions\13back-e.xlsx,,,experiment,1,2,stim\gray.png,stim\yellow.png,stim\gray.png,stim\gray.png,up,,,,,,,,,,,,,0,3,3,10,0,1,1,1,,,,,,,,,,,,,,,,,,,,,,,,,,,,,,,,,,,,,,,,,,,,,,,,,,,,,,,,up,1,330.67549160006456,None,330.67549160006456,None,330.67549160006456,331.6780020999722,330.67549160006456,331.6780020999722,330.67549160006456,331.6780020999722,330.67549160006456,331.6780020999722,330.67549160006456,331.1763001999352,330.67549160006456,331.1763001999352,330.67549160006456,331.1763001999352,330.67549160006456,331.1763001999352,330.67549160006456,None,0.385899200104177,,,,,11037,001,2024_Mar_11_1535,nback,2021.2.3,59.9362278145724,
1-back,instructions\back-1.png,conditions\13back-e.xlsx,,,experiment,1,4,stim\gray.png,stim\gray.png,stim\gray.png,stim\yellow.png,left,,,,,,,,,,,,,0,3,3,10,0,2,2,2,,,,,,,,,,,,,,,,,,,,,,,,,,,,,,,,,,,,,,,,,,,,,,,,,,,,,,,,left,1,332.17782299988903,None,332.17782299988903,None,332.17782299988903,333.17919519986026,332.17782299988903,333.17919519986026,332.17782299988903,333.17919519986026,332.17782299988903,333.17919519986026,332.17782299988903,332.6785728998948,332.17782299988903,332.6785728998948,332.17782299988903,332.6785728998948,332.17782299988903,332.6785728998948,332.17782299988903,None,0.8600181001238525,,,,,11037,001,2024_Mar_11_1535,nback,2021.2.3,59.9362278145724,
1-back,instructions\back-1.png,conditions\13back-e.xlsx,,,experiment,1,3,stim\gray.png,stim\gray.png,stim\yellow.png,stim\gray.png,down,,,,,,,,,,,,,0,3,3,10,0,3,3,3,,,,,,,,,,,,,,,,,,,,,,,,,,,,,,,,,,,,,,,,,,,,,,,,,,,,,,,,down,1,333.6802300000563,None,333.6802300000563,None,333.6802300000563,334.68207650003023,333.6802300000563,334.68207650003023,333.6802300000563,334.68207650003023,333.6802300000563,334.68207650003023,333.6802300000563,334.1813481999561,333.6802300000563,334.1813481999561,333.6802300000563,334.1813481999561,333.6802300000563,334.1813481999561,333.6802300000563,None,0.6293379999697208,,,,,11037,001,2024_Mar_11_1535,nback,2021.2.3,59.9362278145724,
1-back,instructions\back-1.png,conditions\13back-e.xlsx,,,experiment,1,1,stim\yellow.png,stim\gray.png,stim\gray.png,stim\gray.png,right,,,,,,,,,,,,,0,3,3,10,0,4,4,4,,,,,,,,,,,,,,,,,,,,,,,,,,,,,,,,,,,,,,,,,,,,,,,,,,,,,,,,right,1,335.1822249998804,None,335.1822249998804,None,335.1822249998804,336.18454240006395,335.1822249998804,336.18454240006395,335.1822249998804,336.18454240006395,335.1822249998804,336.18454240006395,335.1822249998804,335.68304509995505,335.1822249998804,335.68304509995505,335.1822249998804,335.68304509995505,335.1822249998804,335.68304509995505,335.1822249998804,None,0.5514077001716942,,,,,11037,001,2024_Mar_11_1535,nback,2021.2.3,59.9362278145724,
1-back,instructions\back-1.png,conditions\13back-e.xlsx,,,experiment,1,3,stim\gray.png,stim\gray.png,stim\yellow.png,stim\gray.png,up,,,,,,,,,,,,,0,3,3,10,0,5,5,5,,,,,,,,,,,,,,,,,,,,,,,,,,,,,,,,,,,,,,,,,,,,,,,,,,,,,,,,up,1,336.68460129993036,None,336.68460129993036,None,336.68460129993036,337.68710089987144,336.68460129993036,337.68710089987144,336.68460129993036,337.68710089987144,336.68460129993036,337.68710089987144,336.68460129993036,337.1852450000588,336.68460129993036,337.1852450000588,336.68460129993036,337.1852450000588,336.68460129993036,337.1852450000588,336.68460129993036,None,1.256969700101763,,,,,11037,001,2024_Mar_11_1535,nback,2021.2.3,59.9362278145724,
1-back,instructions\back-1.png,conditions\13back-e.xlsx,,,experiment,1,2,stim\gray.png,stim\yellow.png,stim\gray.png,stim\gray.png,right,,,,,,,,,,,,,0,3,3,10,0,6,6,6,,,,,,,,,,,,,,,,,,,,,,,,,,,,,,,,,,,,,,,,,,,,,,,,,,,,,,,,right,1,338.18757770000957,None,338.18757770000957,None,338.18757770000957,339.18842480005696,338.18757770000957,339.18842480005696,338.18757770000957,339.18842480005696,338.18757770000957,339.18842480005696,338.18757770000957,338.68774960003793,338.18757770000957,338.68774960003793,338.18757770000957,338.68774960003793,338.18757770000957,338.68774960003793,338.18757770000957,None,1.0100774001330137,,,,,11037,001,2024_Mar_11_1535,nback,2021.2.3,59.9362278145724,
1-back,instructions\back-1.png,conditions\13back-e.xlsx,,,experiment,1,4,stim\gray.png,stim\gray.png,stim\gray.png,stim\yellow.png,left,,,,,,,,,,,,,0,3,3,10,0,7,7,7,,,,,,,,,,,,,,,,,,,,,,,,,,,,,,,,,,,,,,,,,,,,,,,,,,,,,,,,left,1,339.6733476999216,None,339.6733476999216,None,339.6733476999216,340.6748834999744,339.6733476999216,340.6748834999744,339.6733476999216,340.6748834999744,339.6733476999216,340.6748834999744,339.6733476999216,340.1738678999245,339.6733476999216,340.1738678999245,339.6733476999216,340.1738678999245,339.6733476999216,340.1738678999245,339.6733476999216,None,0.900793100008741,,,,,11037,001,2024_Mar_11_1535,nback,2021.2.3,59.9362278145724,
1-back,instructions\back-1.png,conditions\13back-e.xlsx,,,experiment,1,1,stim\yellow.png,stim\gray.png,stim\gray.png,stim\gray.png,down,,,,,,,,,,,,,0,3,3,10,0,8,8,8,,,,,,,,,,,,,,,,,,,,,,,,,,,,,,,,,,,,,,,,,,,,,,,,,,,,,,,,down,1,341.17478480003774,None,341.17478480003774,None,341.17478480003774,342.17727470002137,341.17478480003774,342.17727470002137,341.17478480003774,342.17727470002137,341.17478480003774,342.17727470002137,341.17478480003774,341.6754189999774,341.17478480003774,341.6754189999774,341.17478480003774,341.6754189999774,341.17478480003774,341.6754189999774,341.17478480003774,None,0.9187201999593526,,,,,11037,001,2024_Mar_11_1535,nback,2021.2.3,59.9362278145724,
1-back,instructions\back-1.png,conditions\13back-e.xlsx,,,experiment,1,2,stim\gray.png,stim\yellow.png,stim\gray.png,stim\gray.png,up,,,,,,,,,,,,,0,3,3,10,0,9,9,9,,,,,,,,,,,,,,,,,,,,,,,,,,,,,,,,,,,,,,,,,,,,,,,,,,,,,,,,up,1,342.6776954999659,None,342.6776954999659,None,342.6776954999659,343.67853079992346,342.6776954999659,343.67853079992346,342.6776954999659,343.67853079992346,342.6776954999659,343.67853079992346,342.6776954999659,343.177893999964,342.6776954999659,343.177893999964,342.6776954999659,343.177893999964,342.6776954999659,343.177893999964,342.6776954999659,None,0.7197865999769419,,,,,11037,001,2024_Mar_11_1535,nback,2021.2.3,59.9362278145724,
1-back,instructions\back-1.png,conditions\13back-e.xlsx,,,experiment,1,4,stim\gray.png,stim\gray.png,stim\gray.png,stim\yellow.png,left,,,,,,,,,,,,,0,3,3,10,0,10,10,10,,,,,,,,,,,,,,,,,,,,,,,,,,,,,,,,,,,,,,,,,,,,,,,,,,,,,,,,left,1,344.1797319999896,None,344.1797319999896,None,344.1797319999896,345.18155930005014,344.1797319999896,345.18155930005014,344.1797319999896,345.18155930005014,344.1797319999896,345.18155930005014,344.1797319999896,344.6808722000569,344.1797319999896,344.6808722000569,344.1797319999896,344.6808722000569,344.1797319999896,344.6808722000569,344.1797319999896,None,0.9779415000230074,,,,,11037,001,2024_Mar_11_1535,nback,2021.2.3,59.9362278145724,
1-back,instructions\back-1.png,conditions\13back-e.xlsx,,,experiment,1,3,stim\gray.png,stim\gray.png,stim\yellow.png,stim\gray.png,down,,,,,,,,,,,,,0,3,3,10,0,11,11,11,,,,,,,,,,,,,,,,,,,,,,,,,,,,,,,,,,,,,,,,,,,,,,,,,,,,,,,,down,1,345.68161770002916,None,345.68161770002916,None,345.68161770002916,346.6838799000252,345.68161770002916,346.6838799000252,345.68161770002916,346.6838799000252,345.68161770002916,346.6838799000252,345.68161770002916,346.183117199922,345.68161770002916,346.183117199922,345.68161770002916,346.183117199922,345.68161770002916,346.183117199922,345.68161770002916,None,0.6527805998921394,,,,,11037,001,2024_Mar_11_1535,nback,2021.2.3,59.9362278145724,
1-back,instructions\back-1.png,conditions\13back-e.xlsx,,,experiment,1,2,stim\gray.png,stim\yellow.png,stim\gray.png,stim\gray.png,right,,,,,,,,,,,,,0,3,3,10,0,12,12,12,,,,,,,,,,,,,,,,,,,,,,,,,,,,,,,,,,,,,,,,,,,,,,,,,,,,,,,,right,1,347.18439750000834,None,347.18439750000834,None,347.18439750000834,348.18625819985755,347.18439750000834,348.18625819985755,347.18439750000834,348.18625819985755,347.18439750000834,348.18625819985755,347.18439750000834,347.68471099995077,347.18439750000834,347.68471099995077,347.18439750000834,347.68471099995077,347.18439750000834,347.68471099995077,347.18439750000834,None,0.4852952999062836,,,,,11037,001,2024_Mar_11_1535,nback,2021.2.3,59.9362278145724,
1-back,instructions\back-1.png,conditions\13back-e.xlsx,,,experiment,1,4,stim\gray.png,stim\gray.png,stim\gray.png,stim\yellow.png,left,,,,,,,,,,,,,0,3,3,10,0,13,13,13,,,,,,,,,,,,,,,,,,,,,,,,,,,,,,,,,,,,,,,,,,,,,,,,,,,,,,,,left,1,348.68612569989637,None,348.68612569989637,None,348.68612569989637,349.68758010002784,348.68612569989637,349.68758010002784,348.68612569989637,349.68758010002784,348.68612569989637,349.68758010002784,348.68612569989637,349.1870515998453,348.68612569989637,349.1870515998453,348.68612569989637,349.1870515998453,348.68612569989637,349.1870515998453,348.68612569989637,None,0.47999000013805926,,,,,11037,001,2024_Mar_11_1535,nback,2021.2.3,59.9362278145724,
1-back,instructions\back-1.png,conditions\13back-e.xlsx,,,experiment,1,1,stim\yellow.png,stim\gray.png,stim\gray.png,stim\gray.png,down,,,,,,,,,,,,,0,3,3,10,0,14,14,14,,,,,,,,,,,,,,,,,,,,,,,,,,,,,,,,,,,,,,,,,,,,,,,,,,,,,,,,down,1,350.188257599948,None,350.188257599948,None,350.188257599948,351.1905218998436,350.188257599948,351.1905218998436,350.188257599948,351.1905218998436,350.188257599948,351.1905218998436,350.188257599948,350.690062899841,350.188257599948,350.690062899841,350.188257599948,350.690062899841,350.188257599948,350.690062899841,350.188257599948,None,0.6256754000205547,,,,,11037,001,2024_Mar_11_1535,nback,2021.2.3,59.9362278145724,
1-back,instructions\back-1.png,conditions\13back-e.xlsx,,,experiment,1,4,stim\gray.png,stim\gray.png,stim\gray.png,stim\yellow.png,up,,,,,,,,,,,,,0,3,3,10,0,15,15,15,,,,,,,,,,,,,,,,,,,,,,,,,,,,,,,,,,,,,,,,,,,,,,,,,,,,,,,,up,1,351.6738456999883,None,351.6738456999883,None,351.6738456999883,352.6754725999199,351.6738456999883,352.6754725999199,351.6738456999883,352.6754725999199,351.6738456999883,352.6754725999199,351.6738456999883,352.175627599936,351.6738456999883,352.175627599936,351.6738456999883,352.175627599936,351.6738456999883,352.175627599936,351.6738456999883,None,1.0370289999991655,,,,,11037,001,2024_Mar_11_1535,nback,2021.2.3,59.9362278145724,
1-back,instructions\back-1.png,conditions\13back-e.xlsx,,,experiment,1,1,stim\yellow.png,stim\gray.png,stim\gray.png,stim\gray.png,down,,,,,,,,,,,,,0,3,3,10,0,16,16,16,,,,,,,,,,,,,,,,,,,,,,,,,,,,,,,,,,,,,,,,,,,,,,,,,,,,,,,,down,1,353.17719289986417,None,353.17719289986417,None,353.17719289986417,354.1776797999628,353.17719289986417,354.1776797999628,353.17719289986417,354.1776797999628,353.17719289986417,354.1776797999628,353.17719289986417,353.6769099000376,353.17719289986417,353.6769099000376,353.17719289986417,353.6769099000376,353.17719289986417,353.6769099000376,353.17719289986417,None,0.9171382000204176,,,,,11037,001,2024_Mar_11_1535,nback,2021.2.3,59.9362278145724,
1-back,instructions\back-1.png,conditions\13back-e.xlsx,,,experiment,1,3,stim\gray.png,stim\gray.png,stim\yellow.png,stim\gray.png,up,,,,,,,,,,,,,0,3,3,10,0,17,17,17,,,,,,,,,,,,,,,,,,,,,,,,,,,,,,,,,,,,,,,,,,,,,,,,,,,,,,,,up,1,354.6784339000005,None,354.6784339000005,None,354.6784339000005,355.6798985998612,354.6784339000005,355.6798985998612,354.6784339000005,355.6798985998612,354.6784339000005,355.6798985998612,354.6784339000005,355.1805870998651,354.6784339000005,355.1805870998651,354.6784339000005,355.1805870998651,354.6784339000005,355.1805870998651,354.6784339000005,None,0.8475589000154287,,,,,11037,001,2024_Mar_11_1535,nback,2021.2.3,59.9362278145724,
