backseq,backinstr,backfile,instruction,size_in,Trialtype,back,number,P1,P2,P3,P4,corrAns,trials_practice.thisRepN,trials_practice.thisTrialN,trials_practice.thisN,trials_practice.thisIndex,trials.thisRepN,trials.thisTrialN,trials.thisN,trials.thisIndex,trials_3.thisRepN,trials_3.thisTrialN,trials_3.thisN,trials_3.thisIndex,trials_2.thisRepN,trials_2.thisTrialN,trials_2.thisN,trials_2.thisIndex,trials_4.thisRepN,trials_4.thisTrialN,trials_4.thisN,trials_4.thisIndex,image.started,image.stopped,image_2.started,image_2.stopped,key_resp.keys,key_resp.rt,key_resp.started,key_resp.stopped,image_3.started,image_3.stopped,key_resp_2.keys,key_resp_2.rt,key_resp_2.started,key_resp_2.stopped,image_4.started,image_4.stopped,text.started,text.stopped,H1.started,H1.stopped,H2.started,H2.stopped,H3.started,H3.stopped,H4.started,H4.stopped,key_resp_3.keys,key_resp_3.corr,key_resp_3.rt,key_resp_3.started,key_resp_3.stopped,text_4.started,text_4.stopped,F1.started,F1.stopped,F2.started,F2.stopped,F3.started,F3.stopped,F4.started,F4.stopped,image_7.started,image_7.stopped,text_5.started,text_5.stopped,key_resp_6.keys,key_resp_6.rt,key_resp_6.started,key_resp_6.stopped,image_5.started,image_5.stopped,key_resp_4.keys,key_resp_4.rt,key_resp_4.started,key_resp_4.stopped,key_resp_5.keys,key_resp_5.corr,key_resp_5.started,key_resp_5.stopped,text_3.started,text_3.stopped,H1_2.started,H1_2.stopped,H2_2.started,H2_2.stopped,H3_2.started,H3_2.stopped,H4_2.started,H4_2.stopped,F1_2.started,F1_2.stopped,F2_2.started,F2_2.stopped,F3_2.started,F3_2.stopped,F4_2.started,F4_2.stopped,image_8.started,image_8.stopped,key_resp_5.rt,text_2.started,text_2.stopped,image_6.started,image_6.stopped,participant,session,date,expName,psychopyVersion,frameRate,
,,,,,,,,,,,,,,,,,,,,,,,,,,,,,,,,,10.426572400145233,None,11.364085800014436,None,space,9.985729600070044,11.364085800014436,None,,,,,,,,,,,,,,,,,,,,,,,,,,,,,,,,,,,,,,,,,,,,,,,,,,,,,,,,,,,,,,,,,,,,,,,,,,,,,11035,001,2024_Mar_10_1411,nback,2021.2.3,59.92599140912863,
0-back,instructions\back-0.png,conditions\0back-p.xlsx,instructions\0-BACK.png,"(15, 8)",practice,0,1,stim\yellow.png,stim\gray.png,stim\gray.png,stim\gray.png,up,0,0,0,0,0,0,0,0,0,0,0,0,,,,,,,,,,,,,,,,,21.427020500181243,None,space,3.5547937999945134,21.427020500181243,None,25.16562270000577,29.67313430015929,29.62280990020372,None,30.023211600026116,31.02464360021986,30.023211600026116,31.02464360021986,30.023211600026116,31.02464360021986,30.023211600026116,31.02464360021986,up,1,0.8146593999117613,30.023211600026116,None,30.023211600026116,None,30.023211600026116,30.52377980016172,30.023211600026116,30.52377980016172,30.023211600026116,30.52377980016172,30.023211600026116,30.52377980016172,30.023211600026116,None,,,,,,,,,,,,,,,,,,,,,,,,,,,,,,,,,,,,,,,,,,11035,001,2024_Mar_10_1411,nback,2021.2.3,59.92599140912863,
0-back,instructions\back-0.png,conditions\0back-p.xlsx,instructions\0-BACK.png,"(15, 8)",practice,0,2,stim\gray.png,stim\yellow.png,stim\gray.png,stim\gray.png,left,0,0,0,0,0,0,0,0,0,1,1,1,,,,,,,,,,,,,,,,,,,,,,,,,,,31.508504200028256,32.51066210004501,31.508504200028256,32.51066210004501,31.508504200028256,32.51066210004501,31.508504200028256,32.51066210004501,left,1,0.4093625999521464,31.508504200028256,None,31.508504200028256,None,31.508504200028256,32.00950859999284,31.508504200028256,32.00950859999284,31.508504200028256,32.00950859999284,31.508504200028256,32.00950859999284,31.508504200028256,None,,,,,,,,,,,,,,,,,,,,,,,,,,,,,,,,,,,,,,,,,,11035,001,2024_Mar_10_1411,nback,2021.2.3,59.92599140912863,
0-back,instructions\back-0.png,conditions\0back-p.xlsx,instructions\0-BACK.png,"(15, 8)",practice,0,3,stim\gray.png,stim\gray.png,stim\yellow.png,stim\gray.png,right,0,0,0,0,0,0,0,0,0,2,2,2,,,,,,,,,,,,,,,,,,,,,,,,,,,33.0121599000413,34.01246530003846,33.0121599000413,34.01246530003846,33.0121599000413,34.01246530003846,33.0121599000413,34.01246530003846,right,1,0.30544820008799434,33.0121599000413,None,33.0121599000413,None,33.0121599000413,33.51176260015927,33.0121599000413,33.51176260015927,33.0121599000413,33.51176260015927,33.0121599000413,33.51176260015927,33.0121599000413,None,,,,,,,,,,,,,,,,,,,,,,,,,,,,,,,,,,,,,,,,,,11035,001,2024_Mar_10_1411,nback,2021.2.3,59.92599140912863,
0-back,instructions\back-0.png,conditions\0back-p.xlsx,instructions\0-BACK.png,"(15, 8)",practice,0,4,stim\gray.png,stim\gray.png,stim\gray.png,stim\yellow.png,down,0,0,0,0,0,0,0,0,0,3,3,3,,,,,,,,,,,,,,,,,,,,,,,,,,,34.51335860020481,35.51540370006114,34.51335860020481,35.51540370006114,34.51335860020481,35.51540370006114,34.51335860020481,35.51540370006114,down,1,0.3565334000159055,34.51335860020481,None,34.51335860020481,None,34.51335860020481,35.01368660014123,34.51335860020481,35.01368660014123,34.51335860020481,35.01368660014123,34.51335860020481,35.01368660014123,34.51335860020481,None,,,,,,,,,,,,,,,,,,,,,,,,,,,,,,,,,,,,,,,,,,11035,001,2024_Mar_10_1411,nback,2021.2.3,59.92599140912863,
0-back,instructions\back-0.png,conditions\0back-p.xlsx,instructions\0-BACK.png,"(15, 8)",practice,0,2,stim\gray.png,stim\yellow.png,stim\gray.png,stim\gray.png,left,0,0,0,0,0,0,0,0,0,4,4,4,,,,,,,,,,,,,,,,,,,,,,,,,,,36.01542770001106,37.01686210022308,36.01542770001106,37.01686210022308,36.01542770001106,37.01686210022308,36.01542770001106,37.01686210022308,left,1,0.3026562000159174,36.01542770001106,None,36.01542770001106,None,36.01542770001106,36.51736600021832,36.01542770001106,36.51736600021832,36.01542770001106,36.51736600021832,36.01542770001106,36.51736600021832,36.01542770001106,None,,,,,,,,,,,,,,,,,,,,,,,,,,,,,,,,,,,,,,,,,,11035,001,2024_Mar_10_1411,nback,2021.2.3,59.92599140912863,
0-back,instructions\back-0.png,conditions\0back-p.xlsx,instructions\0-BACK.png,"(15, 8)",practice,0,1,stim\yellow.png,stim\gray.png,stim\gray.png,stim\gray.png,up,0,0,0,0,0,0,0,0,0,5,5,5,,,,,,,,,,,,,,,,,,,,,,,,,,,37.51769810006954,38.51934300013818,37.51769810006954,38.51934300013818,37.51769810006954,38.51934300013818,37.51769810006954,38.51934300013818,up,1,0.36836840002797544,37.51769810006954,None,37.51769810006954,None,37.51769810006954,38.019737700000405,37.51769810006954,38.019737700000405,37.51769810006954,38.019737700000405,37.51769810006954,38.019737700000405,37.51769810006954,None,,,,,,,,,,,,,,,,,,,,,,,,,,,,,,,,,,,,,,,,,,11035,001,2024_Mar_10_1411,nback,2021.2.3,59.92599140912863,
0-back,instructions\back-0.png,conditions\0back-p.xlsx,instructions\0-BACK.png,"(15, 8)",practice,0,4,stim\gray.png,stim\gray.png,stim\gray.png,stim\yellow.png,down,0,0,0,0,0,0,0,0,0,6,6,6,,,,,,,,,,,,,,,,,,,,,,,,,,,39.00333170010708,40.00607350002974,39.00333170010708,40.00607350002974,39.00333170010708,40.00607350002974,39.00333170010708,40.00607350002974,down,1,0.4586087001953274,39.00333170010708,None,39.00333170010708,None,39.00333170010708,39.504012500168756,39.00333170010708,39.504012500168756,39.00333170010708,39.504012500168756,39.00333170010708,39.504012500168756,39.00333170010708,None,,,,,,,,,,,,,,,,,,,,,,,,,,,,,,,,,,,,,,,,,,11035,001,2024_Mar_10_1411,nback,2021.2.3,59.92599140912863,
0-back,instructions\back-0.png,conditions\0back-p.xlsx,instructions\0-BACK.png,"(15, 8)",practice,0,3,stim\gray.png,stim\gray.png,stim\yellow.png,stim\gray.png,right,0,0,0,0,0,0,0,0,0,7,7,7,,,,,,,,,,,,,,,,,,,,,,,,,,,40.5056007001549,41.506895300000906,40.5056007001549,41.506895300000906,40.5056007001549,41.506895300000906,40.5056007001549,41.506895300000906,right,1,0.38787960004992783,40.5056007001549,None,40.5056007001549,None,40.5056007001549,41.00641100015491,40.5056007001549,41.00641100015491,40.5056007001549,41.00641100015491,40.5056007001549,41.00641100015491,40.5056007001549,None,,,,,,,,,,,,,,,,,,,,,,,,,,,,,,,,,,,,,,,,,,11035,001,2024_Mar_10_1411,nback,2021.2.3,59.92599140912863,
0-back,instructions\back-0.png,conditions\0back-p.xlsx,instructions\0-BACK.png,"(15, 8)",practice,0,3,stim\gray.png,stim\gray.png,stim\yellow.png,stim\gray.png,right,0,0,0,0,0,0,0,0,0,8,8,8,,,,,,,,,,,,,,,,,,,,,,,,,,,42.00772630004212,43.00995870004408,42.00772630004212,43.00995870004408,42.00772630004212,43.00995870004408,42.00772630004212,43.00995870004408,right,1,0.3738688000012189,42.00772630004212,None,42.00772630004212,None,42.00772630004212,42.509619100019336,42.00772630004212,42.509619100019336,42.00772630004212,42.509619100019336,42.00772630004212,42.509619100019336,42.00772630004212,None,,,,,,,,,,,,,,,,,,,,,,,,,,,,,,,,,,,,,,,,,,11035,001,2024_Mar_10_1411,nback,2021.2.3,59.92599140912863,
0-back,instructions\back-0.png,conditions\0back-p.xlsx,instructions\0-BACK.png,"(15, 8)",practice,0,4,stim\gray.png,stim\gray.png,stim\gray.png,stim\yellow.png,down,0,0,0,0,0,0,0,0,0,9,9,9,,,,,,,,,,,,,,,,,,,,,,,,,,,43.51006880006753,44.51242160005495,43.51006880006753,44.51242160005495,43.51006880006753,44.51242160005495,43.51006880006753,44.51242160005495,down,1,0.4405265999957919,43.51006880006753,None,43.51006880006753,None,43.51006880006753,44.01188390003517,43.51006880006753,44.01188390003517,43.51006880006753,44.01188390003517,43.51006880006753,44.01188390003517,43.51006880006753,None,,,,,,,,,,,,,,,,,,,,,,,,,,,,,,,,,,,,,,,,,,11035,001,2024_Mar_10_1411,nback,2021.2.3,59.92599140912863,
0-back,instructions\back-0.png,conditions\0back-p.xlsx,instructions\0-BACK.png,"(15, 8)",practice,0,1,stim\yellow.png,stim\gray.png,stim\gray.png,stim\gray.png,up,0,0,0,0,0,0,0,0,0,10,10,10,,,,,,,,,,,,,,,,,,,,,,,,,,,45.01235880004242,46.01450650021434,45.01235880004242,46.01450650021434,45.01235880004242,46.01450650021434,45.01235880004242,46.01450650021434,up,1,0.38585389987565577,45.01235880004242,None,45.01235880004242,None,45.01235880004242,45.513063200050965,45.01235880004242,45.513063200050965,45.01235880004242,45.513063200050965,45.01235880004242,45.513063200050965,45.01235880004242,None,,,,,,,,,,,,,,,,,,,,,,,,,,,,,,,,,,,,,,,,,,11035,001,2024_Mar_10_1411,nback,2021.2.3,59.92599140912863,
0-back,instructions\back-0.png,conditions\0back-p.xlsx,instructions\0-BACK.png,"(15, 8)",practice,0,2,stim\gray.png,stim\yellow.png,stim\gray.png,stim\gray.png,left,0,0,0,0,0,0,0,0,0,11,11,11,,,,,,,,,,,,,,,,,,,,,,,,,,,46.5145987002179,47.51623420021497,46.5145987002179,47.51623420021497,46.5145987002179,47.51623420021497,46.5145987002179,47.51623420021497,left,1,0.3156510000117123,46.5145987002179,None,46.5145987002179,None,46.5145987002179,47.01616860018112,46.5145987002179,47.01616860018112,46.5145987002179,47.01616860018112,46.5145987002179,47.01616860018112,46.5145987002179,None,,,,,,,,,,,,,,,,,,,,,,,,,,,,,,,,,,,,,,,,,,11035,001,2024_Mar_10_1411,nback,2021.2.3,59.92599140912863,
0-back,instructions\back-0.png,conditions\0back-p.xlsx,instructions\0-BACK.png,"(15, 8)",practice,0,4,stim\gray.png,stim\gray.png,stim\gray.png,stim\yellow.png,down,0,0,0,0,0,0,0,0,0,12,12,12,,,,,,,,,,,,,,,,,,,,,,,,,,,48.01697440003045,49.018512200098485,48.01697440003045,49.018512200098485,48.01697440003045,49.018512200098485,48.01697440003045,49.018512200098485,down,1,0.43670139997266233,48.01697440003045,None,48.01697440003045,None,48.01697440003045,48.51767750014551,48.01697440003045,48.51767750014551,48.01697440003045,48.51767750014551,48.01697440003045,48.51767750014551,48.01697440003045,None,,,,,,,,,,,,,,,,,,,,,,,,,,,,,,,,,,,,,,,,,,11035,001,2024_Mar_10_1411,nback,2021.2.3,59.92599140912863,
0-back,instructions\back-0.png,conditions\0back-p.xlsx,instructions\0-BACK.png,"(15, 8)",practice,0,3,stim\gray.png,stim\gray.png,stim\yellow.png,stim\gray.png,right,0,0,0,0,0,0,0,0,0,13,13,13,,,,,,,,,,,,,,,,,,,,,,,,,,,49.50338100013323,50.50459840008989,49.50338100013323,50.50459840008989,49.50338100013323,50.50459840008989,49.50338100013323,50.50459840008989,right,1,0.40684329997748137,49.50338100013323,None,49.50338100013323,None,49.50338100013323,50.00319700012915,49.50338100013323,50.00319700012915,49.50338100013323,50.00319700012915,49.50338100013323,50.00319700012915,49.50338100013323,None,,,,,,,,,,,,,,,,,,,,,,,,,,,,,,,,,,,,,,,,,,11035,001,2024_Mar_10_1411,nback,2021.2.3,59.92599140912863,
0-back,instructions\back-0.png,conditions\0back-p.xlsx,instructions\0-BACK.png,"(15, 8)",practice,0,1,stim\yellow.png,stim\gray.png,stim\gray.png,stim\gray.png,up,0,0,0,0,0,0,0,0,0,14,14,14,,,,,,,,,,,,,,,,,,,,,,,,,,,51.00510260020383,52.00711410003714,51.00510260020383,52.00711410003714,51.00510260020383,52.00711410003714,51.00510260020383,52.00711410003714,up,1,0.32126459991559386,51.00510260020383,None,51.00510260020383,None,51.00510260020383,51.505424700211734,51.00510260020383,51.505424700211734,51.00510260020383,51.505424700211734,51.00510260020383,51.505424700211734,51.00510260020383,None,,,,,,,,,,,,,,,,,,,,,,,,,,,,,,,,,,,,,,,,,,11035,001,2024_Mar_10_1411,nback,2021.2.3,59.92599140912863,
0-back,instructions\back-0.png,conditions\0back-p.xlsx,instructions\0-BACK.png,"(15, 8)",practice,0,2,stim\gray.png,stim\yellow.png,stim\gray.png,stim\gray.png,left,0,0,0,0,0,0,0,0,0,15,15,15,,,,,,,,,,,,,,,,,,,,,,,,,,,52.50811670022085,53.50874310010113,52.50811670022085,53.50874310010113,52.50811670022085,53.50874310010113,52.50811670022085,53.50874310010113,left,1,0.2983924001455307,52.50811670022085,None,52.50811670022085,None,52.50811670022085,53.00854350021109,52.50811670022085,53.00854350021109,52.50811670022085,53.00854350021109,52.50811670022085,53.00854350021109,52.50811670022085,None,,,,,,,,,,,,,,,,,,,,,,,,,,,,,,,,,,,,,,,,,,11035,001,2024_Mar_10_1411,nback,2021.2.3,59.92599140912863,
0-back,instructions\back-0.png,conditions\0back-p.xlsx,instructions\0-BACK.png,"(15, 8)",practice,0,3,stim\gray.png,stim\gray.png,stim\yellow.png,stim\gray.png,right,0,0,0,0,0,0,0,0,0,16,16,16,,,,,,,,,,,,,,,,,,,,,,,,,,,54.00965390005149,55.01061480003409,54.00965390005149,55.01061480003409,54.00965390005149,55.01061480003409,54.00965390005149,55.01061480003409,right,1,0.3407809000927955,54.00965390005149,None,54.00965390005149,None,54.00965390005149,54.51132080005482,54.00965390005149,54.51132080005482,54.00965390005149,54.51132080005482,54.00965390005149,54.51132080005482,54.00965390005149,None,,,,,,,,,,,,,,,,,,,,,,,,,,,,,,,,,,,,,,,,,,11035,001,2024_Mar_10_1411,nback,2021.2.3,59.92599140912863,
0-back,instructions\back-0.png,conditions\0back-p.xlsx,instructions\0-BACK.png,"(15, 8)",practice,0,1,stim\yellow.png,stim\gray.png,stim\gray.png,stim\gray.png,up,0,0,0,0,0,0,0,0,0,17,17,17,,,,,,,,,,,,,,,,,,,,,,,,,,,55.511501300148666,56.513936600182205,55.511501300148666,56.513936600182205,55.511501300148666,56.513936600182205,55.511501300148666,56.513936600182205,up,1,0.3026108001358807,55.511501300148666,None,55.511501300148666,None,55.511501300148666,56.01299330010079,55.511501300148666,56.01299330010079,55.511501300148666,56.01299330010079,55.511501300148666,56.01299330010079,55.511501300148666,None,,,,,,,,,,,,,,,,,,,,,,,,,,,,,,,,,,,,,,,,,,11035,001,2024_Mar_10_1411,nback,2021.2.3,59.92599140912863,
0-back,instructions\back-0.png,conditions\0back-p.xlsx,instructions\0-BACK.png,"(15, 8)",practice,0,4,stim\gray.png,stim\gray.png,stim\gray.png,stim\yellow.png,down,0,0,0,0,0,0,0,0,0,18,18,18,,,,,,,,,,,,,,,,,,,,,,,,,,,57.013783500064164,58.015334400115535,57.013783500064164,58.015334400115535,57.013783500064164,58.015334400115535,57.013783500064164,58.015334400115535,down,1,0.2961476999334991,57.013783500064164,None,57.013783500064164,None,57.013783500064164,57.515567700145766,57.013783500064164,57.515567700145766,57.013783500064164,57.515567700145766,57.013783500064164,57.515567700145766,57.013783500064164,None,,,,,,,,,,,,,,,,,,,,,,,,,,,,,,,,,,,,,,,,,,11035,001,2024_Mar_10_1411,nback,2021.2.3,59.92599140912863,
0-back,instructions\back-0.png,conditions\0back-p.xlsx,instructions\0-BACK.png,"(15, 8)",practice,0,2,stim\gray.png,stim\yellow.png,stim\gray.png,stim\gray.png,left,0,0,0,0,0,0,0,0,0,19,19,19,,,,,,,,,,,,,,,,,,,,,,,,,,,58.51603550021537,59.51764030009508,58.51603550021537,59.51764030009508,58.51603550021537,59.51764030009508,58.51603550021537,59.51764030009508,left,1,0.3457963999826461,58.51603550021537,None,58.51603550021537,None,58.51603550021537,59.01792810019106,58.51603550021537,59.01792810019106,58.51603550021537,59.01792810019106,58.51603550021537,59.01792810019106,58.51603550021537,None,,,,,,,,,,,,,,,,,,,,,,,,,,,,,,,,,,,,,,,,,,11035,001,2024_Mar_10_1411,nback,2021.2.3,59.92599140912863,
0-back,instructions\back-0.png,conditions\0back-p.xlsx,instructions\0-BACK.png,"(15, 8)",,,,,,,,,0,0,0,0,0,0,0,0,,,,,,,,,,,,,,,,,,,,,,,,,,,,,,,,,,,,,,,,,,,,,,,,,,,,,,,,,,,,,,,,,,,,,,,,,,,,,,,,,,,,,,,,,,,,,,,,,11035,001,2024_Mar_10_1411,nback,2021.2.3,59.92599140912863,
1-back,instructions\back-1.png,conditions\1back-p.xlsx,instructions\1-BACK.png,"(25, 15)",practice,1,1,stim\yellow.png,stim\gray.png,stim\gray.png,stim\gray.png,None,0,0,0,0,0,1,1,1,0,0,0,0,,,,,,,,,,,,,,,,,60.18516470002942,None,space,3.9809336999896914,60.18516470002942,None,64.2913282001391,68.79796940018423,68.78469860018231,None,69.21547890012152,70.21733980020508,69.21547890012152,70.21733980020508,69.21547890012152,70.21733980020508,69.21547890012152,70.21733980020508,None,1,,69.21547890012152,None,69.21547890012152,None,69.21547890012152,69.71634530019946,69.21547890012152,69.71634530019946,69.21547890012152,69.71634530019946,69.21547890012152,69.71634530019946,69.21547890012152,None,,,,,,,,,,,,,,,,,,,,,,,,,,,,,,,,,,,,,,,,,,11035,001,2024_Mar_10_1411,nback,2021.2.3,59.92599140912863,
1-back,instructions\back-1.png,conditions\1back-p.xlsx,instructions\1-BACK.png,"(25, 15)",practice,1,2,stim\gray.png,stim\yellow.png,stim\gray.png,stim\gray.png,up,0,0,0,0,0,1,1,1,0,1,1,1,,,,,,,,,,,,,,,,,,,,,,,,,,,70.70104070007801,71.70382010005414,70.70104070007801,71.70382010005414,70.70104070007801,71.70382010005414,70.70104070007801,71.70382010005414,up,1,0.5054673999547958,70.70104070007801,None,70.70104070007801,None,70.70104070007801,71.20261690020561,70.70104070007801,71.20261690020561,70.70104070007801,71.20261690020561,70.70104070007801,71.20261690020561,70.70104070007801,None,,,,,,,,,,,,,,,,,,,,,,,,,,,,,,,,,,,,,,,,,,11035,001,2024_Mar_10_1411,nback,2021.2.3,59.92599140912863,
1-back,instructions\back-1.png,conditions\1back-p.xlsx,instructions\1-BACK.png,"(25, 15)",practice,1,3,stim\gray.png,stim\gray.png,stim\yellow.png,stim\gray.png,left,0,0,0,0,0,1,1,1,0,2,2,2,,,,,,,,,,,,,,,,,,,,,,,,,,,72.20335600012913,73.20495240017772,72.20335600012913,73.20495240017772,72.20335600012913,73.20495240017772,72.20335600012913,73.20495240017772,right,0,0.45119629986584187,72.20335600012913,None,72.20335600012913,None,72.20335600012913,72.7041755001992,72.20335600012913,72.7041755001992,72.20335600012913,72.7041755001992,72.20335600012913,72.7041755001992,72.20335600012913,None,,,,,,,,,,,,,,,,,,,,,,,,,,,,,,,,,,,,,,,,,,11035,001,2024_Mar_10_1411,nback,2021.2.3,59.92599140912863,
1-back,instructions\back-1.png,conditions\1back-p.xlsx,instructions\1-BACK.png,"(25, 15)",practice,1,4,stim\gray.png,stim\gray.png,stim\gray.png,stim\yellow.png,right,0,0,0,0,0,1,1,1,0,3,3,3,,,,,,,,,,,,,,,,,,,,,,,,,,,73.70616930001415,74.7078163002152,73.70616930001415,74.7078163002152,73.70616930001415,74.7078163002152,73.70616930001415,74.7078163002152,right,1,0.6522915000095963,73.70616930001415,None,73.70616930001415,None,73.70616930001415,74.20631989999674,73.70616930001415,74.20631989999674,73.70616930001415,74.20631989999674,73.70616930001415,74.20631989999674,73.70616930001415,None,,,,,,,,,,,,,,,,,,,,,,,,,,,,,,,,,,,,,,,,,,11035,001,2024_Mar_10_1411,nback,2021.2.3,59.92599140912863,
1-back,instructions\back-1.png,conditions\1back-p.xlsx,instructions\1-BACK.png,"(25, 15)",practice,1,2,stim\gray.png,stim\yellow.png,stim\gray.png,stim\gray.png,down,0,0,0,0,0,1,1,1,0,4,4,4,,,,,,,,,,,,,,,,,,,,,,,,,,,75.20775350020267,76.20995010016486,75.20775350020267,76.20995010016486,75.20775350020267,76.20995010016486,75.20775350020267,76.20995010016486,down,1,0.35158439981751144,75.20775350020267,None,75.20775350020267,None,75.20775350020267,75.71022330014966,75.20775350020267,75.71022330014966,75.20775350020267,75.71022330014966,75.20775350020267,75.71022330014966,75.20775350020267,None,,,,,,,,,,,,,,,,,,,,,,,,,,,,,,,,,,,,,,,,,,11035,001,2024_Mar_10_1411,nback,2021.2.3,59.92599140912863,
1-back,instructions\back-1.png,conditions\1back-p.xlsx,instructions\1-BACK.png,"(25, 15)",practice,1,1,stim\yellow.png,stim\gray.png,stim\gray.png,stim\gray.png,left,0,0,0,0,0,1,1,1,0,5,5,5,,,,,,,,,,,,,,,,,,,,,,,,,,,76.71152550005354,77.71163490018807,76.71152550005354,77.71163490018807,76.71152550005354,77.71163490018807,76.71152550005354,77.71163490018807,left,1,0.31890109996311367,76.71152550005354,None,76.71152550005354,None,76.71152550005354,77.21086140000261,76.71152550005354,77.21086140000261,76.71152550005354,77.21086140000261,76.71152550005354,77.21086140000261,76.71152550005354,None,,,,,,,,,,,,,,,,,,,,,,,,,,,,,,,,,,,,,,,,,,11035,001,2024_Mar_10_1411,nback,2021.2.3,59.92599140912863,
1-back,instructions\back-1.png,conditions\1back-p.xlsx,instructions\1-BACK.png,"(25, 15)",practice,1,4,stim\gray.png,stim\gray.png,stim\gray.png,stim\yellow.png,up,0,0,0,0,0,1,1,1,0,6,6,6,,,,,,,,,,,,,,,,,,,,,,,,,,,78.21242840006016,79.21370390010998,78.21242840006016,79.21370390010998,78.21242840006016,79.21370390010998,78.21242840006016,79.21370390010998,up,1,0.26662520016543567,78.21242840006016,None,78.21242840006016,None,78.21242840006016,78.71446770010516,78.21242840006016,78.71446770010516,78.21242840006016,78.71446770010516,78.21242840006016,78.71446770010516,78.21242840006016,None,,,,,,,,,,,,,,,,,,,,,,,,,,,,,,,,,,,,,,,,,,11035,001,2024_Mar_10_1411,nback,2021.2.3,59.92599140912863,
1-back,instructions\back-1.png,conditions\1back-p.xlsx,instructions\1-BACK.png,"(25, 15)",practice,1,3,stim\gray.png,stim\gray.png,stim\yellow.png,stim\gray.png,down,0,0,0,0,0,1,1,1,0,7,7,7,,,,,,,,,,,,,,,,,,,,,,,,,,,79.69799510017037,80.7002278000582,79.69799510017037,80.7002278000582,79.69799510017037,80.7002278000582,79.69799510017037,80.7002278000582,down,1,0.30983430007472634,79.69799510017037,None,79.69799510017037,None,79.69799510017037,80.19866940006614,79.69799510017037,80.19866940006614,79.69799510017037,80.19866940006614,79.69799510017037,80.19866940006614,79.69799510017037,None,,,,,,,,,,,,,,,,,,,,,,,,,,,,,,,,,,,,,,,,,,11035,001,2024_Mar_10_1411,nback,2021.2.3,59.92599140912863,
1-back,instructions\back-1.png,conditions\1back-p.xlsx,instructions\1-BACK.png,"(25, 15)",practice,1,3,stim\gray.png,stim\gray.png,stim\yellow.png,stim\gray.png,right,0,0,0,0,0,1,1,1,0,8,8,8,,,,,,,,,,,,,,,,,,,,,,,,,,,81.2002063000109,82.20171390008181,81.2002063000109,82.20171390008181,81.2002063000109,82.20171390008181,81.2002063000109,82.20171390008181,right,1,0.254891199991107,81.2002063000109,None,81.2002063000109,None,81.2002063000109,81.70104870013893,81.2002063000109,81.70104870013893,81.2002063000109,81.70104870013893,81.2002063000109,81.70104870013893,81.2002063000109,None,,,,,,,,,,,,,,,,,,,,,,,,,,,,,,,,,,,,,,,,,,11035,001,2024_Mar_10_1411,nback,2021.2.3,59.92599140912863,
1-back,instructions\back-1.png,conditions\1back-p.xlsx,instructions\1-BACK.png,"(25, 15)",practice,1,4,stim\gray.png,stim\gray.png,stim\gray.png,stim\yellow.png,right,0,0,0,0,0,1,1,1,0,9,9,9,,,,,,,,,,,,,,,,,,,,,,,,,,,82.70232730009593,83.70402120007202,82.70232730009593,83.70402120007202,82.70232730009593,83.70402120007202,82.70232730009593,83.70402120007202,right,1,1.1763857000041753,82.70232730009593,None,82.70232730009593,None,82.70232730009593,83.20339020015672,82.70232730009593,83.20339020015672,82.70232730009593,83.20339020015672,82.70232730009593,83.20339020015672,82.70232730009593,None,,,,,,,,,,,,,,,,,,,,,,,,,,,,,,,,,,,,,,,,,,11035,001,2024_Mar_10_1411,nback,2021.2.3,59.92599140912863,
1-back,instructions\back-1.png,conditions\1back-p.xlsx,instructions\1-BACK.png,"(25, 15)",practice,1,1,stim\yellow.png,stim\gray.png,stim\gray.png,stim\gray.png,down,0,0,0,0,0,1,1,1,0,10,10,10,,,,,,,,,,,,,,,,,,,,,,,,,,,84.20581340021454,85.20626090001315,84.20581340021454,85.20626090001315,84.20581340021454,85.20626090001315,84.20581340021454,85.20626090001315,down,1,0.38512819982133806,84.20581340021454,None,84.20581340021454,None,84.20581340021454,84.70633050007746,84.20581340021454,84.70633050007746,84.20581340021454,84.70633050007746,84.20581340021454,84.70633050007746,84.20581340021454,None,,,,,,,,,,,,,,,,,,,,,,,,,,,,,,,,,,,,,,,,,,11035,001,2024_Mar_10_1411,nback,2021.2.3,59.92599140912863,
1-back,instructions\back-1.png,conditions\1back-p.xlsx,instructions\1-BACK.png,"(25, 15)",practice,1,2,stim\gray.png,stim\yellow.png,stim\gray.png,stim\gray.png,up,0,0,0,0,0,1,1,1,0,11,11,11,,,,,,,,,,,,,,,,,,,,,,,,,,,85.70693640015088,86.70942120021209,85.70693640015088,86.70942120021209,85.70693640015088,86.70942120021209,85.70693640015088,86.70942120021209,up,1,0.2200072999112308,85.70693640015088,None,85.70693640015088,None,85.70693640015088,86.20762160001323,85.70693640015088,86.20762160001323,85.70693640015088,86.20762160001323,85.70693640015088,86.20762160001323,85.70693640015088,None,,,,,,,,,,,,,,,,,,,,,,,,,,,,,,,,,,,,,,,,,,11035,001,2024_Mar_10_1411,nback,2021.2.3,59.92599140912863,
1-back,instructions\back-1.png,conditions\1back-p.xlsx,instructions\1-BACK.png,"(25, 15)",practice,1,4,stim\gray.png,stim\gray.png,stim\gray.png,stim\yellow.png,left,0,0,0,0,0,1,1,1,0,12,12,12,,,,,,,,,,,,,,,,,,,,,,,,,,,87.20908780000173,88.21169750019908,87.20908780000173,88.21169750019908,87.20908780000173,88.21169750019908,87.20908780000173,88.21169750019908,left,1,0.32593570020981133,87.20908780000173,None,87.20908780000173,None,87.20908780000173,87.71019930019975,87.20908780000173,87.71019930019975,87.20908780000173,87.71019930019975,87.20908780000173,87.71019930019975,87.20908780000173,None,,,,,,,,,,,,,,,,,,,,,,,,,,,,,,,,,,,,,,,,,,11035,001,2024_Mar_10_1411,nback,2021.2.3,59.92599140912863,
1-back,instructions\back-1.png,conditions\1back-p.xlsx,instructions\1-BACK.png,"(25, 15)",practice,1,3,stim\gray.png,stim\gray.png,stim\yellow.png,stim\gray.png,down,0,0,0,0,0,1,1,1,0,13,13,13,,,,,,,,,,,,,,,,,,,,,,,,,,,88.71154950000346,89.71318680001423,88.71154950000346,89.71318680001423,88.71154950000346,89.71318680001423,88.71154950000346,89.71318680001423,down,1,0.22439530002884567,88.71154950000346,None,88.71154950000346,None,88.71154950000346,89.21312339999713,88.71154950000346,89.21312339999713,88.71154950000346,89.21312339999713,88.71154950000346,89.21312339999713,88.71154950000346,None,,,,,,,,,,,,,,,,,,,,,,,,,,,,,,,,,,,,,,,,,,11035,001,2024_Mar_10_1411,nback,2021.2.3,59.92599140912863,
1-back,instructions\back-1.png,conditions\1back-p.xlsx,instructions\1-BACK.png,"(25, 15)",practice,1,1,stim\yellow.png,stim\gray.png,stim\gray.png,stim\gray.png,right,0,0,0,0,0,1,1,1,0,14,14,14,,,,,,,,,,,,,,,,,,,,,,,,,,,90.19865030003712,91.19865040015429,90.19865030003712,91.19865040015429,90.19865030003712,91.19865040015429,90.19865030003712,91.19865040015429,right,1,0.21740259998477995,90.19865030003712,None,90.19865030003712,None,90.19865030003712,90.69790240004659,90.19865030003712,90.69790240004659,90.19865030003712,90.69790240004659,90.19865030003712,90.69790240004659,90.19865030003712,None,,,,,,,,,,,,,,,,,,,,,,,,,,,,,,,,,,,,,,,,,,11035,001,2024_Mar_10_1411,nback,2021.2.3,59.92599140912863,
1-back,instructions\back-1.png,conditions\1back-p.xlsx,instructions\1-BACK.png,"(25, 15)",practice,1,2,stim\gray.png,stim\yellow.png,stim\gray.png,stim\gray.png,up,0,0,0,0,0,1,1,1,0,15,15,15,,,,,,,,,,,,,,,,,,,,,,,,,,,91.69918970018625,92.70126910018735,91.69918970018625,92.70126910018735,91.69918970018625,92.70126910018735,91.69918970018625,92.70126910018735,up,1,0.16411150014027953,91.69918970018625,None,91.69918970018625,None,91.69918970018625,92.2008969001472,91.69918970018625,92.2008969001472,91.69918970018625,92.2008969001472,91.69918970018625,92.2008969001472,91.69918970018625,None,,,,,,,,,,,,,,,,,,,,,,,,,,,,,,,,,,,,,,,,,,11035,001,2024_Mar_10_1411,nback,2021.2.3,59.92599140912863,
1-back,instructions\back-1.png,conditions\1back-p.xlsx,instructions\1-BACK.png,"(25, 15)",practice,1,3,stim\gray.png,stim\gray.png,stim\yellow.png,stim\gray.png,left,0,0,0,0,0,1,1,1,0,16,16,16,,,,,,,,,,,,,,,,,,,,,,,,,,,93.20224210014567,94.20384450000711,93.20224210014567,94.20384450000711,93.20224210014567,94.20384450000711,93.20224210014567,94.20384450000711,left,1,0.09287120006047189,93.20224210014567,None,93.20224210014567,None,93.20224210014567,93.70233040000312,93.20224210014567,93.70233040000312,93.20224210014567,93.70233040000312,93.20224210014567,93.70233040000312,93.20224210014567,None,,,,,,,,,,,,,,,,,,,,,,,,,,,,,,,,,,,,,,,,,,11035,001,2024_Mar_10_1411,nback,2021.2.3,59.92599140912863,
1-back,instructions\back-1.png,conditions\1back-p.xlsx,instructions\1-BACK.png,"(25, 15)",practice,1,1,stim\yellow.png,stim\gray.png,stim\gray.png,stim\gray.png,right,0,0,0,0,0,1,1,1,0,17,17,17,,,,,,,,,,,,,,,,,,,,,,,,,,,94.70402090018615,95.70532260020263,94.70402090018615,95.70532260020263,94.70402090018615,95.70532260020263,94.70402090018615,95.70532260020263,right,1,0.06396329985000193,94.70402090018615,None,94.70402090018615,None,94.70402090018615,95.20520339999348,94.70402090018615,95.20520339999348,94.70402090018615,95.20520339999348,94.70402090018615,95.20520339999348,94.70402090018615,None,,,,,,,,,,,,,,,,,,,,,,,,,,,,,,,,,,,,,,,,,,11035,001,2024_Mar_10_1411,nback,2021.2.3,59.92599140912863,
1-back,instructions\back-1.png,conditions\1back-p.xlsx,instructions\1-BACK.png,"(25, 15)",practice,1,4,stim\gray.png,stim\gray.png,stim\gray.png,stim\yellow.png,up,0,0,0,0,0,1,1,1,0,18,18,18,,,,,,,,,,,,,,,,,,,,,,,,,,,96.20732690021396,97.20840610004961,96.20732690021396,97.20840610004961,96.20732690021396,97.20840610004961,96.20732690021396,97.20840610004961,down,0,0.43213009997271,96.20732690021396,None,96.20732690021396,None,96.20732690021396,96.7070776000619,96.20732690021396,96.7070776000619,96.20732690021396,96.7070776000619,96.20732690021396,96.7070776000619,96.20732690021396,None,,,,,,,,,,,,,,,,,,,,,,,,,,,,,,,,,,,,,,,,,,11035,001,2024_Mar_10_1411,nback,2021.2.3,59.92599140912863,
1-back,instructions\back-1.png,conditions\1back-p.xlsx,instructions\1-BACK.png,"(25, 15)",practice,1,2,stim\gray.png,stim\yellow.png,stim\gray.png,stim\gray.png,down,0,0,0,0,0,1,1,1,0,19,19,19,,,,,,,,,,,,,,,,,,,,,,,,,,,97.70849140011705,98.71047150017694,97.70849140011705,98.71047150017694,97.70849140011705,98.71047150017694,97.70849140011705,98.71047150017694,down,1,0.386863199993968,97.70849140011705,None,97.70849140011705,None,97.70849140011705,98.20916050020605,97.70849140011705,98.20916050020605,97.70849140011705,98.20916050020605,97.70849140011705,98.20916050020605,97.70849140011705,None,,,,,,,,,,,,,,,,,,,,,,,,,,,,,,,,,,,,,,,,,,11035,001,2024_Mar_10_1411,nback,2021.2.3,59.92599140912863,
1-back,instructions\back-1.png,conditions\1back-p.xlsx,instructions\1-BACK.png,"(25, 15)",,,,,,,,,0,0,0,0,0,1,1,1,,,,,,,,,,,,,,,,,,,,,,,,,,,,,,,,,,,,,,,,,,,,,,,,,,,,,,,,,,,,,,,,,,,,,,,,,,,,,,,,,,,,,,,,,,,,,,,,,11035,001,2024_Mar_10_1411,nback,2021.2.3,59.92599140912863,
2-back,instructions\back-2.png,conditions\2back-p.xlsx,instructions\2-BACK.png,"(25, 15)",practice,2,1,stim\yellow.png,stim\gray.png,stim\gray.png,stim\gray.png,None,0,0,0,0,0,2,2,2,0,0,0,0,,,,,,,,,,,,,,,,,99.39415130019188,None,space,3.061251200037077,99.39415130019188,None,102.63504110020585,107.1407629000023,107.09075410012156,None,107.50778570002876,108.51045610010624,107.50778570002876,108.51045610010624,107.50778570002876,108.51045610010624,107.50778570002876,108.51045610010624,None,1,,107.50778570002876,None,107.50778570002876,None,107.50778570002876,108.0081683001481,107.50778570002876,108.0081683001481,107.50778570002876,108.0081683001481,107.50778570002876,108.0081683001481,107.50778570002876,None,,,,,,,,,,,,,,,,,,,,,,,,,,,,,,,,,,,,,,,,,,11035,001,2024_Mar_10_1411,nback,2021.2.3,59.92599140912863,
2-back,instructions\back-2.png,conditions\2back-p.xlsx,instructions\2-BACK.png,"(25, 15)",practice,2,2,stim\gray.png,stim\yellow.png,stim\gray.png,stim\gray.png,None,0,0,0,0,0,2,2,2,0,1,1,1,,,,,,,,,,,,,,,,,,,,,,,,,,,108.99360090005212,109.99427880020812,108.99360090005212,109.99427880020812,108.99360090005212,109.99427880020812,108.99360090005212,109.99427880020812,None,1,,108.99360090005212,None,108.99360090005212,None,108.99360090005212,109.49378620018251,108.99360090005212,109.49378620018251,108.99360090005212,109.49378620018251,108.99360090005212,109.49378620018251,108.99360090005212,None,,,,,,,,,,,,,,,,,,,,,,,,,,,,,,,,,,,,,,,,,,11035,001,2024_Mar_10_1411,nback,2021.2.3,59.92599140912863,
2-back,instructions\back-2.png,conditions\2back-p.xlsx,instructions\2-BACK.png,"(25, 15)",practice,2,3,stim\gray.png,stim\gray.png,stim\yellow.png,stim\gray.png,up,0,0,0,0,0,2,2,2,0,2,2,2,,,,,,,,,,,,,,,,,,,,,,,,,,,110.49430460017174,111.49659500014968,110.49430460017174,111.49659500014968,110.49430460017174,111.49659500014968,110.49430460017174,111.49659500014968,up,1,0.5454418999142945,110.49430460017174,None,110.49430460017174,None,110.49430460017174,110.99561900016852,110.49430460017174,110.99561900016852,110.49430460017174,110.99561900016852,110.49430460017174,110.99561900016852,110.49430460017174,None,,,,,,,,,,,,,,,,,,,,,,,,,,,,,,,,,,,,,,,,,,11035,001,2024_Mar_10_1411,nback,2021.2.3,59.92599140912863,
2-back,instructions\back-2.png,conditions\2back-p.xlsx,instructions\2-BACK.png,"(25, 15)",practice,2,4,stim\gray.png,stim\gray.png,stim\gray.png,stim\yellow.png,left,0,0,0,0,0,2,2,2,0,3,3,3,,,,,,,,,,,,,,,,,,,,,,,,,,,111.99754160013981,112.998068400193,111.99754160013981,112.998068400193,111.99754160013981,112.998068400193,111.99754160013981,112.998068400193,left,1,0.21809179987758398,111.99754160013981,None,111.99754160013981,None,111.99754160013981,112.49850910017267,111.99754160013981,112.49850910017267,111.99754160013981,112.49850910017267,111.99754160013981,112.49850910017267,111.99754160013981,None,,,,,,,,,,,,,,,,,,,,,,,,,,,,,,,,,,,,,,,,,,11035,001,2024_Mar_10_1411,nback,2021.2.3,59.92599140912863,
2-back,instructions\back-2.png,conditions\2back-p.xlsx,instructions\2-BACK.png,"(25, 15)",practice,2,2,stim\gray.png,stim\yellow.png,stim\gray.png,stim\gray.png,right,0,0,0,0,0,2,2,2,0,4,4,4,,,,,,,,,,,,,,,,,,,,,,,,,,,113.49898180016316,114.50038260011934,113.49898180016316,114.50038260011934,113.49898180016316,114.50038260011934,113.49898180016316,114.50038260011934,right,1,0.8367379999253899,113.49898180016316,None,113.49898180016316,None,113.49898180016316,113.99976330017671,113.49898180016316,113.99976330017671,113.49898180016316,113.99976330017671,113.49898180016316,113.99976330017671,113.49898180016316,None,,,,,,,,,,,,,,,,,,,,,,,,,,,,,,,,,,,,,,,,,,11035,001,2024_Mar_10_1411,nback,2021.2.3,59.92599140912863,
2-back,instructions\back-2.png,conditions\2back-p.xlsx,instructions\2-BACK.png,"(25, 15)",practice,2,1,stim\yellow.png,stim\gray.png,stim\gray.png,stim\gray.png,down,0,0,0,0,0,2,2,2,0,5,5,5,,,,,,,,,,,,,,,,,,,,,,,,,,,115.00125170010142,116.00438890000805,115.00125170010142,116.00438890000805,115.00125170010142,116.00438890000805,115.00125170010142,116.00438890000805,left,0,0.7987206999678165,115.00125170010142,None,115.00125170010142,None,115.00125170010142,115.50265080016106,115.00125170010142,115.50265080016106,115.00125170010142,115.50265080016106,115.00125170010142,115.50265080016106,115.00125170010142,None,,,,,,,,,,,,,,,,,,,,,,,,,,,,,,,,,,,,,,,,,,11035,001,2024_Mar_10_1411,nback,2021.2.3,59.92599140912863,
2-back,instructions\back-2.png,conditions\2back-p.xlsx,instructions\2-BACK.png,"(25, 15)",practice,2,4,stim\gray.png,stim\gray.png,stim\gray.png,stim\yellow.png,left,0,0,0,0,0,2,2,2,0,6,6,6,,,,,,,,,,,,,,,,,,,,,,,,,,,116.4879757000599,117.48897160007618,116.4879757000599,117.48897160007618,116.4879757000599,117.48897160007618,116.4879757000599,117.48897160007618,down,0,0.4641152999829501,116.4879757000599,None,116.4879757000599,None,116.4879757000599,116.98874500021338,116.4879757000599,116.98874500021338,116.4879757000599,116.98874500021338,116.4879757000599,116.98874500021338,116.4879757000599,None,,,,,,,,,,,,,,,,,,,,,,,,,,,,,,,,,,,,,,,,,,11035,001,2024_Mar_10_1411,nback,2021.2.3,59.92599140912863,
2-back,instructions\back-2.png,conditions\2back-p.xlsx,instructions\2-BACK.png,"(25, 15)",practice,2,3,stim\gray.png,stim\gray.png,stim\yellow.png,stim\gray.png,up,0,0,0,0,0,2,2,2,0,7,7,7,,,,,,,,,,,,,,,,,,,,,,,,,,,117.98995460011065,118.99072880018502,117.98995460011065,118.99072880018502,117.98995460011065,118.99072880018502,117.98995460011065,118.99072880018502,down,0,1.154041500063613,117.98995460011065,None,117.98995460011065,None,117.98995460011065,118.48975840001367,117.98995460011065,118.48975840001367,117.98995460011065,118.48975840001367,117.98995460011065,118.48975840001367,117.98995460011065,None,,,,,,,,,,,,,,,,,,,,,,,,,,,,,,,,,,,,,,,,,,11035,001,2024_Mar_10_1411,nback,2021.2.3,59.92599140912863,
2-back,instructions\back-2.png,conditions\2back-p.xlsx,instructions\2-BACK.png,"(25, 15)",practice,2,3,stim\gray.png,stim\gray.png,stim\yellow.png,stim\gray.png,down,0,0,0,0,0,2,2,2,0,8,8,8,,,,,,,,,,,,,,,,,,,,,,,,,,,119.49131310009398,120.4928170000203,119.49131310009398,120.4928170000203,119.49131310009398,120.4928170000203,119.49131310009398,120.4928170000203,None,0,,119.49131310009398,None,119.49131310009398,None,119.49131310009398,119.9929014001973,119.49131310009398,119.9929014001973,119.49131310009398,119.9929014001973,119.49131310009398,119.9929014001973,119.49131310009398,None,,,,,,,,,,,,,,,,,,,,,,,,,,,,,,,,,,,,,,,,,,11035,001,2024_Mar_10_1411,nback,2021.2.3,59.92599140912863,
2-back,instructions\back-2.png,conditions\2back-p.xlsx,instructions\2-BACK.png,"(25, 15)",practice,2,4,stim\gray.png,stim\gray.png,stim\gray.png,stim\yellow.png,right,0,0,0,0,0,2,2,2,0,9,9,9,,,,,,,,,,,,,,,,,,,,,,,,,,,120.99354620021768,121.99591769999824,120.99354620021768,121.99591769999824,120.99354620021768,121.99591769999824,120.99354620021768,121.99591769999824,right,1,0.1583364000543952,120.99354620021768,None,120.99354620021768,None,120.99354620021768,121.49436550005339,120.99354620021768,121.49436550005339,120.99354620021768,121.49436550005339,120.99354620021768,121.49436550005339,120.99354620021768,None,,,,,,,,,,,,,,,,,,,,,,,,,,,,,,,,,,,,,,,,,,11035,001,2024_Mar_10_1411,nback,2021.2.3,59.92599140912863,
2-back,instructions\back-2.png,conditions\2back-p.xlsx,instructions\2-BACK.png,"(25, 15)",practice,2,1,stim\yellow.png,stim\gray.png,stim\gray.png,stim\gray.png,right,0,0,0,0,0,2,2,2,0,10,10,10,,,,,,,,,,,,,,,,,,,,,,,,,,,122.49601700017229,123.4986327001825,122.49601700017229,123.4986327001825,122.49601700017229,123.4986327001825,122.49601700017229,123.4986327001825,up,0,0.5280186999589205,122.49601700017229,None,122.49601700017229,None,122.49601700017229,122.99673790019006,122.49601700017229,122.99673790019006,122.49601700017229,122.99673790019006,122.49601700017229,122.99673790019006,122.49601700017229,None,,,,,,,,,,,,,,,,,,,,,,,,,,,,,,,,,,,,,,,,,,11035,001,2024_Mar_10_1411,nback,2021.2.3,59.92599140912863,
2-back,instructions\back-2.png,conditions\2back-p.xlsx,instructions\2-BACK.png,"(25, 15)",practice,2,2,stim\gray.png,stim\yellow.png,stim\gray.png,stim\gray.png,down,0,0,0,0,0,2,2,2,0,11,11,11,,,,,,,,,,,,,,,,,,,,,,,,,,,123.99924680008553,125.00015380000696,123.99924680008553,125.00015380000696,123.99924680008553,125.00015380000696,123.99924680008553,125.00015380000696,None,0,,123.99924680008553,None,123.99924680008553,None,123.99924680008553,124.49954800005071,123.99924680008553,124.49954800005071,123.99924680008553,124.49954800005071,123.99924680008553,124.49954800005071,123.99924680008553,None,,,,,,,,,,,,,,,,,,,,,,,,,,,,,,,,,,,,,,,,,,11035,001,2024_Mar_10_1411,nback,2021.2.3,59.92599140912863,
2-back,instructions\back-2.png,conditions\2back-p.xlsx,instructions\2-BACK.png,"(25, 15)",practice,2,4,stim\gray.png,stim\gray.png,stim\gray.png,stim\yellow.png,up,0,0,0,0,0,2,2,2,0,12,12,12,,,,,,,,,,,,,,,,,,,,,,,,,,,125.50120110018179,126.50281840004027,125.50120110018179,126.50281840004027,125.50120110018179,126.50281840004027,125.50120110018179,126.50281840004027,up,1,0.2908149999566376,125.50120110018179,None,125.50120110018179,None,125.50120110018179,126.00110620004125,125.50120110018179,126.00110620004125,125.50120110018179,126.00110620004125,125.50120110018179,126.00110620004125,125.50120110018179,None,,,,,,,,,,,,,,,,,,,,,,,,,,,,,,,,,,,,,,,,,,11035,001,2024_Mar_10_1411,nback,2021.2.3,59.92599140912863,
2-back,instructions\back-2.png,conditions\2back-p.xlsx,instructions\2-BACK.png,"(25, 15)",practice,2,3,stim\gray.png,stim\gray.png,stim\yellow.png,stim\gray.png,left,0,0,0,0,0,2,2,2,0,13,13,13,,,,,,,,,,,,,,,,,,,,,,,,,,,126.9862084002234,127.99019420007244,126.9862084002234,127.99019420007244,126.9862084002234,127.99019420007244,126.9862084002234,127.99019420007244,right,0,1.4377912001218647,126.9862084002234,None,126.9862084002234,None,126.9862084002234,127.48656089999713,126.9862084002234,127.48656089999713,126.9862084002234,127.48656089999713,126.9862084002234,127.48656089999713,126.9862084002234,None,,,,,,,,,,,,,,,,,,,,,,,,,,,,,,,,,,,,,,,,,,11035,001,2024_Mar_10_1411,nback,2021.2.3,59.92599140912863,
2-back,instructions\back-2.png,conditions\2back-p.xlsx,instructions\2-BACK.png,"(25, 15)",practice,2,1,stim\yellow.png,stim\gray.png,stim\gray.png,stim\gray.png,down,0,0,0,0,0,2,2,2,0,14,14,14,,,,,,,,,,,,,,,,,,,,,,,,,,,128.48804940003902,129.4905221001245,128.48804940003902,129.4905221001245,128.48804940003902,129.4905221001245,128.48804940003902,129.4905221001245,None,0,,128.48804940003902,None,128.48804940003902,None,128.48804940003902,128.98908500000834,128.48804940003902,128.98908500000834,128.48804940003902,128.98908500000834,128.48804940003902,128.98908500000834,128.48804940003902,None,,,,,,,,,,,,,,,,,,,,,,,,,,,,,,,,,,,,,,,,,,11035,001,2024_Mar_10_1411,nback,2021.2.3,59.92599140912863,
2-back,instructions\back-2.png,conditions\2back-p.xlsx,instructions\2-BACK.png,"(25, 15)",practice,2,2,stim\gray.png,stim\yellow.png,stim\gray.png,stim\gray.png,right,0,0,0,0,0,2,2,2,0,15,15,15,,,,,,,,,,,,,,,,,,,,,,,,,,,129.99123080004938,130.9926794001367,129.99123080004938,130.9926794001367,129.99123080004938,130.9926794001367,129.99123080004938,130.9926794001367,down,0,0.43345250003039837,129.99123080004938,None,129.99123080004938,None,129.99123080004938,130.4913107000757,129.99123080004938,130.4913107000757,129.99123080004938,130.4913107000757,129.99123080004938,130.4913107000757,129.99123080004938,None,,,,,,,,,,,,,,,,,,,,,,,,,,,,,,,,,,,,,,,,,,11035,001,2024_Mar_10_1411,nback,2021.2.3,59.92599140912863,
2-back,instructions\back-2.png,conditions\2back-p.xlsx,instructions\2-BACK.png,"(25, 15)",practice,2,3,stim\gray.png,stim\gray.png,stim\yellow.png,stim\gray.png,up,0,0,0,0,0,2,2,2,0,16,16,16,,,,,,,,,,,,,,,,,,,,,,,,,,,131.49310040008277,132.49419250013307,131.49310040008277,132.49419250013307,131.49310040008277,132.49419250013307,131.49310040008277,132.49419250013307,None,0,,131.49310040008277,None,131.49310040008277,None,131.49310040008277,131.9934975001961,131.49310040008277,131.9934975001961,131.49310040008277,131.9934975001961,131.49310040008277,131.9934975001961,131.49310040008277,None,,,,,,,,,,,,,,,,,,,,,,,,,,,,,,,,,,,,,,,,,,11035,001,2024_Mar_10_1411,nback,2021.2.3,59.92599140912863,
2-back,instructions\back-2.png,conditions\2back-p.xlsx,instructions\2-BACK.png,"(25, 15)",practice,2,1,stim\yellow.png,stim\gray.png,stim\gray.png,stim\gray.png,left,0,0,0,0,0,2,2,2,0,17,17,17,,,,,,,,,,,,,,,,,,,,,,,,,,,132.99498830013908,133.99654080020264,132.99498830013908,133.99654080020264,132.99498830013908,133.99654080020264,132.99498830013908,133.99654080020264,left,1,0.30903750006109476,132.99498830013908,None,132.99498830013908,None,132.99498830013908,133.4963652000297,132.99498830013908,133.4963652000297,132.99498830013908,133.4963652000297,132.99498830013908,133.4963652000297,132.99498830013908,None,,,,,,,,,,,,,,,,,,,,,,,,,,,,,,,,,,,,,,,,,,11035,001,2024_Mar_10_1411,nback,2021.2.3,59.92599140912863,
2-back,instructions\back-2.png,conditions\2back-p.xlsx,instructions\2-BACK.png,"(25, 15)",practice,2,4,stim\gray.png,stim\gray.png,stim\gray.png,stim\yellow.png,right,0,0,0,0,0,2,2,2,0,18,18,18,,,,,,,,,,,,,,,,,,,,,,,,,,,134.49738090019673,135.49951660004444,134.49738090019673,135.49951660004444,134.49738090019673,135.49951660004444,134.49738090019673,135.49951660004444,None,0,,134.49738090019673,None,134.49738090019673,None,134.49738090019673,134.99792830017395,134.49738090019673,134.99792830017395,134.49738090019673,134.99792830017395,134.49738090019673,134.99792830017395,134.49738090019673,None,,,,,,,,,,,,,,,,,,,,,,,,,,,,,,,,,,,,,,,,,,11035,001,2024_Mar_10_1411,nback,2021.2.3,59.92599140912863,
2-back,instructions\back-2.png,conditions\2back-p.xlsx,instructions\2-BACK.png,"(25, 15)",practice,2,2,stim\gray.png,stim\yellow.png,stim\gray.png,stim\gray.png,up,0,0,0,0,0,2,2,2,0,19,19,19,,,,,,,,,,,,,,,,,,,,,,,,,,,135.9996241000481,137.00145420012996,135.9996241000481,137.00145420012996,135.9996241000481,137.00145420012996,135.9996241000481,137.00145420012996,up,1,0.2567672999575734,135.9996241000481,None,135.9996241000481,None,135.9996241000481,136.50115860020742,135.9996241000481,136.50115860020742,135.9996241000481,136.50115860020742,135.9996241000481,136.50115860020742,135.9996241000481,None,,,,,,,,,,,,,,,,,,,,,,,,,,,,,,,,,,,,,,,,,,11035,001,2024_Mar_10_1411,nback,2021.2.3,59.92599140912863,
2-back,instructions\back-2.png,conditions\2back-p.xlsx,instructions\2-BACK.png,"(25, 15)",,,,,,,,,0,0,0,0,0,2,2,2,,,,,,,,,,,,,,,,,,,,,,,,,,,,,,,,,,,,,,,,,,,,,,,,,,,,,,,,,,,,,,,,,,,,,,,,,,,,,,,,,,,,,,,,,,,,,,,,,11035,001,2024_Mar_10_1411,nback,2021.2.3,59.92599140912863,
,,,,,,,,,,,,,0,0,0,0,,,,,,,,,,,,,,,,,,,,,,,,,,,,,,,,,,,,,,,,,,,,,,,,,,,,,,,,,,,,137.50177600001916,None,s,4.956314499955624,137.50177600001916,None,,,,,,,,,,,,,,,,,,,,,,,,,,,,,,,,,,,,11035,001,2024_Mar_10_1411,nback,2021.2.3,59.92599140912863,
0-back,instructions\back-0.png,conditions\0back-p.xlsx,instructions\0-BACK.png,"(15, 8)",practice,0,1,stim\yellow.png,stim\gray.png,stim\gray.png,stim\gray.png,up,1,0,1,0,0,0,0,0,0,0,0,0,,,,,,,,,,,,,,,,,142.5426402001176,None,space,5.9142045001499355,142.5426402001176,None,148.61877729999833,153.12541520013474,153.092756500002,None,153.5110717001371,154.51134670013562,153.5110717001371,154.51134670013562,153.5110717001371,154.51134670013562,153.5110717001371,154.51134670013562,up,1,0.609643200179562,153.5110717001371,None,153.5110717001371,None,153.5110717001371,154.01003470015712,153.5110717001371,154.01003470015712,153.5110717001371,154.01003470015712,153.5110717001371,154.01003470015712,153.5110717001371,None,,,,,,,,,,,,,,,,,,,,,,,,,,,,,,,,,,,,,,,,,,11035,001,2024_Mar_10_1411,nback,2021.2.3,59.92599140912863,
0-back,instructions\back-0.png,conditions\0back-p.xlsx,instructions\0-BACK.png,"(15, 8)",practice,0,2,stim\gray.png,stim\yellow.png,stim\gray.png,stim\gray.png,left,1,0,1,0,0,0,0,0,0,1,1,1,,,,,,,,,,,,,,,,,,,,,,,,,,,154.99470110004768,155.9963626000099,154.99470110004768,155.9963626000099,154.99470110004768,155.9963626000099,154.99470110004768,155.9963626000099,left,1,0.4943623999133706,154.99470110004768,None,154.99470110004768,None,154.99470110004768,155.4966221000068,154.99470110004768,155.4966221000068,154.99470110004768,155.4966221000068,154.99470110004768,155.4966221000068,154.99470110004768,None,,,,,,,,,,,,,,,,,,,,,,,,,,,,,,,,,,,,,,,,,,11035,001,2024_Mar_10_1411,nback,2021.2.3,59.92599140912863,
0-back,instructions\back-0.png,conditions\0back-p.xlsx,instructions\0-BACK.png,"(15, 8)",practice,0,3,stim\gray.png,stim\gray.png,stim\yellow.png,stim\gray.png,right,1,0,1,0,0,0,0,0,0,2,2,2,,,,,,,,,,,,,,,,,,,,,,,,,,,156.49718140019104,157.49856810015626,156.49718140019104,157.49856810015626,156.49718140019104,157.49856810015626,156.49718140019104,157.49856810015626,right,1,0.35207879985682666,156.49718140019104,None,156.49718140019104,None,156.49718140019104,156.99871350009926,156.49718140019104,156.99871350009926,156.49718140019104,156.99871350009926,156.49718140019104,156.99871350009926,156.49718140019104,None,,,,,,,,,,,,,,,,,,,,,,,,,,,,,,,,,,,,,,,,,,11035,001,2024_Mar_10_1411,nback,2021.2.3,59.92599140912863,
0-back,instructions\back-0.png,conditions\0back-p.xlsx,instructions\0-BACK.png,"(15, 8)",practice,0,4,stim\gray.png,stim\gray.png,stim\gray.png,stim\yellow.png,down,1,0,1,0,0,0,0,0,0,3,3,3,,,,,,,,,,,,,,,,,,,,,,,,,,,157.99969510012306,159.00066560017876,157.99969510012306,159.00066560017876,157.99969510012306,159.00066560017876,157.99969510012306,159.00066560017876,down,1,0.3695851000957191,157.99969510012306,None,157.99969510012306,None,157.99969510012306,158.50022810022347,157.99969510012306,158.50022810022347,157.99969510012306,158.50022810022347,157.99969510012306,158.50022810022347,157.99969510012306,None,,,,,,,,,,,,,,,,,,,,,,,,,,,,,,,,,,,,,,,,,,11035,001,2024_Mar_10_1411,nback,2021.2.3,59.92599140912863,
0-back,instructions\back-0.png,conditions\0back-p.xlsx,instructions\0-BACK.png,"(15, 8)",practice,0,2,stim\gray.png,stim\yellow.png,stim\gray.png,stim\gray.png,left,1,0,1,0,0,0,0,0,0,4,4,4,,,,,,,,,,,,,,,,,,,,,,,,,,,159.50159700005315,160.50325010018423,159.50159700005315,160.50325010018423,159.50159700005315,160.50325010018423,159.50159700005315,160.50325010018423,left,1,0.33206119993701577,159.50159700005315,None,159.50159700005315,None,159.50159700005315,160.00311400019564,159.50159700005315,160.00311400019564,159.50159700005315,160.00311400019564,159.50159700005315,160.00311400019564,159.50159700005315,None,,,,,,,,,,,,,,,,,,,,,,,,,,,,,,,,,,,,,,,,,,11035,001,2024_Mar_10_1411,nback,2021.2.3,59.92599140912863,
0-back,instructions\back-0.png,conditions\0back-p.xlsx,instructions\0-BACK.png,"(15, 8)",practice,0,1,stim\yellow.png,stim\gray.png,stim\gray.png,stim\gray.png,up,1,0,1,0,0,0,0,0,0,5,5,5,,,,,,,,,,,,,,,,,,,,,,,,,,,161.00478509999812,162.00536900013685,161.00478509999812,162.00536900013685,161.00478509999812,162.00536900013685,161.00478509999812,162.00536900013685,up,1,0.3167352001182735,161.00478509999812,None,161.00478509999812,None,161.00478509999812,161.50461400020868,161.00478509999812,161.50461400020868,161.00478509999812,161.50461400020868,161.00478509999812,161.50461400020868,161.00478509999812,None,,,,,,,,,,,,,,,,,,,,,,,,,,,,,,,,,,,,,,,,,,11035,001,2024_Mar_10_1411,nback,2021.2.3,59.92599140912863,
0-back,instructions\back-0.png,conditions\0back-p.xlsx,instructions\0-BACK.png,"(15, 8)",practice,0,4,stim\gray.png,stim\gray.png,stim\gray.png,stim\yellow.png,down,1,0,1,0,0,0,0,0,0,6,6,6,,,,,,,,,,,,,,,,,,,,,,,,,,,162.50613710004836,163.5077186000999,162.50613710004836,163.5077186000999,162.50613710004836,163.5077186000999,162.50613710004836,163.5077186000999,down,1,0.44691529986448586,162.50613710004836,None,162.50613710004836,None,162.50613710004836,163.00789640005678,162.50613710004836,163.00789640005678,162.50613710004836,163.00789640005678,162.50613710004836,163.00789640005678,162.50613710004836,None,,,,,,,,,,,,,,,,,,,,,,,,,,,,,,,,,,,,,,,,,,11035,001,2024_Mar_10_1411,nback,2021.2.3,59.92599140912863,
0-back,instructions\back-0.png,conditions\0back-p.xlsx,instructions\0-BACK.png,"(15, 8)",practice,0,3,stim\gray.png,stim\gray.png,stim\yellow.png,stim\gray.png,right,1,0,1,0,0,0,0,0,0,7,7,7,,,,,,,,,,,,,,,,,,,,,,,,,,,163.99178870022297,164.99408570001833,163.99178870022297,164.99408570001833,163.99178870022297,164.99408570001833,163.99178870022297,164.99408570001833,right,1,0.33767420006915927,163.99178870022297,None,163.99178870022297,None,163.99178870022297,164.49229840002954,163.99178870022297,164.49229840002954,163.99178870022297,164.49229840002954,163.99178870022297,164.49229840002954,163.99178870022297,None,,,,,,,,,,,,,,,,,,,,,,,,,,,,,,,,,,,,,,,,,,11035,001,2024_Mar_10_1411,nback,2021.2.3,59.92599140912863,
0-back,instructions\back-0.png,conditions\0back-p.xlsx,instructions\0-BACK.png,"(15, 8)",practice,0,3,stim\gray.png,stim\gray.png,stim\yellow.png,stim\gray.png,right,1,0,1,0,0,0,0,0,0,8,8,8,,,,,,,,,,,,,,,,,,,,,,,,,,,165.49420270021074,166.49563010013662,165.49420270021074,166.49563010013662,165.49420270021074,166.49563010013662,165.49420270021074,166.49563010013662,right,1,0.31498630018904805,165.49420270021074,None,165.49420270021074,None,165.49420270021074,165.9947365000844,165.49420270021074,165.9947365000844,165.49420270021074,165.9947365000844,165.49420270021074,165.9947365000844,165.49420270021074,None,,,,,,,,,,,,,,,,,,,,,,,,,,,,,,,,,,,,,,,,,,11035,001,2024_Mar_10_1411,nback,2021.2.3,59.92599140912863,
0-back,instructions\back-0.png,conditions\0back-p.xlsx,instructions\0-BACK.png,"(15, 8)",practice,0,4,stim\gray.png,stim\gray.png,stim\gray.png,stim\yellow.png,down,1,0,1,0,0,0,0,0,0,9,9,9,,,,,,,,,,,,,,,,,,,,,,,,,,,166.9976979000494,167.99927580007352,166.9976979000494,167.99927580007352,166.9976979000494,167.99927580007352,166.9976979000494,167.99927580007352,down,1,0.4354727999307215,166.9976979000494,None,166.9976979000494,None,166.9976979000494,167.4982342000585,166.9976979000494,167.4982342000585,166.9976979000494,167.4982342000585,166.9976979000494,167.4982342000585,166.9976979000494,None,,,,,,,,,,,,,,,,,,,,,,,,,,,,,,,,,,,,,,,,,,11035,001,2024_Mar_10_1411,nback,2021.2.3,59.92599140912863,
0-back,instructions\back-0.png,conditions\0back-p.xlsx,instructions\0-BACK.png,"(15, 8)",practice,0,1,stim\yellow.png,stim\gray.png,stim\gray.png,stim\gray.png,up,1,0,1,0,0,0,0,0,0,10,10,10,,,,,,,,,,,,,,,,,,,,,,,,,,,168.49889120017178,169.50109360017814,168.49889120017178,169.50109360017814,168.49889120017178,169.50109360017814,168.49889120017178,169.50109360017814,up,1,0.35837620007805526,168.49889120017178,None,168.49889120017178,None,168.49889120017178,168.99930170015432,168.49889120017178,168.99930170015432,168.49889120017178,168.99930170015432,168.49889120017178,168.99930170015432,168.49889120017178,None,,,,,,,,,,,,,,,,,,,,,,,,,,,,,,,,,,,,,,,,,,11035,001,2024_Mar_10_1411,nback,2021.2.3,59.92599140912863,
0-back,instructions\back-0.png,conditions\0back-p.xlsx,instructions\0-BACK.png,"(15, 8)",practice,0,2,stim\gray.png,stim\yellow.png,stim\gray.png,stim\gray.png,left,1,0,1,0,0,0,0,0,0,11,11,11,,,,,,,,,,,,,,,,,,,,,,,,,,,170.00094210007228,171.00305890012532,170.00094210007228,171.00305890012532,170.00094210007228,171.00305890012532,170.00094210007228,171.00305890012532,left,1,0.3203686000779271,170.00094210007228,None,170.00094210007228,None,170.00094210007228,170.50201870012097,170.00094210007228,170.50201870012097,170.00094210007228,170.50201870012097,170.00094210007228,170.50201870012097,170.00094210007228,None,,,,,,,,,,,,,,,,,,,,,,,,,,,,,,,,,,,,,,,,,,11035,001,2024_Mar_10_1411,nback,2021.2.3,59.92599140912863,
0-back,instructions\back-0.png,conditions\0back-p.xlsx,instructions\0-BACK.png,"(15, 8)",practice,0,4,stim\gray.png,stim\gray.png,stim\gray.png,stim\yellow.png,down,1,0,1,0,0,0,0,0,0,12,12,12,,,,,,,,,,,,,,,,,,,,,,,,,,,171.50306840008125,172.50555200013332,171.50306840008125,172.50555200013332,171.50306840008125,172.50555200013332,171.50306840008125,172.50555200013332,down,1,0.26647419994696975,171.50306840008125,None,171.50306840008125,None,171.50306840008125,172.005096900044,171.50306840008125,172.005096900044,171.50306840008125,172.005096900044,171.50306840008125,172.005096900044,171.50306840008125,None,,,,,,,,,,,,,,,,,,,,,,,,,,,,,,,,,,,,,,,,,,11035,001,2024_Mar_10_1411,nback,2021.2.3,59.92599140912863,
0-back,instructions\back-0.png,conditions\0back-p.xlsx,instructions\0-BACK.png,"(15, 8)",practice,0,3,stim\gray.png,stim\gray.png,stim\yellow.png,stim\gray.png,right,1,0,1,0,0,0,0,0,0,13,13,13,,,,,,,,,,,,,,,,,,,,,,,,,,,172.98931990005076,173.9901480001863,172.98931990005076,173.9901480001863,172.98931990005076,173.9901480001863,172.98931990005076,173.9901480001863,right,1,0.3241599998436868,172.98931990005076,None,172.98931990005076,None,172.98931990005076,173.49015260022134,172.98931990005076,173.49015260022134,172.98931990005076,173.49015260022134,172.98931990005076,173.49015260022134,172.98931990005076,None,,,,,,,,,,,,,,,,,,,,,,,,,,,,,,,,,,,,,,,,,,11035,001,2024_Mar_10_1411,nback,2021.2.3,59.92599140912863,
0-back,instructions\back-0.png,conditions\0back-p.xlsx,instructions\0-BACK.png,"(15, 8)",practice,0,1,stim\yellow.png,stim\gray.png,stim\gray.png,stim\gray.png,up,1,0,1,0,0,0,0,0,0,14,14,14,,,,,,,,,,,,,,,,,,,,,,,,,,,174.49092750018463,175.49249140010215,174.49092750018463,175.49249140010215,174.49092750018463,175.49249140010215,174.49092750018463,175.49249140010215,up,1,0.2945797999855131,174.49092750018463,None,174.49092750018463,None,174.49092750018463,174.99272040021606,174.49092750018463,174.99272040021606,174.49092750018463,174.99272040021606,174.49092750018463,174.99272040021606,174.49092750018463,None,,,,,,,,,,,,,,,,,,,,,,,,,,,,,,,,,,,,,,,,,,11035,001,2024_Mar_10_1411,nback,2021.2.3,59.92599140912863,
0-back,instructions\back-0.png,conditions\0back-p.xlsx,instructions\0-BACK.png,"(15, 8)",practice,0,2,stim\gray.png,stim\yellow.png,stim\gray.png,stim\gray.png,left,1,0,1,0,0,0,0,0,0,15,15,15,,,,,,,,,,,,,,,,,,,,,,,,,,,175.99317650008015,176.99548400007188,175.99317650008015,176.99548400007188,175.99317650008015,176.99548400007188,175.99317650008015,176.99548400007188,left,1,0.2482979001943022,175.99317650008015,None,175.99317650008015,None,175.99317650008015,176.49470440018922,175.99317650008015,176.49470440018922,175.99317650008015,176.49470440018922,175.99317650008015,176.49470440018922,175.99317650008015,None,,,,,,,,,,,,,,,,,,,,,,,,,,,,,,,,,,,,,,,,,,11035,001,2024_Mar_10_1411,nback,2021.2.3,59.92599140912863,
0-back,instructions\back-0.png,conditions\0back-p.xlsx,instructions\0-BACK.png,"(15, 8)",practice,0,3,stim\gray.png,stim\gray.png,stim\yellow.png,stim\gray.png,right,1,0,1,0,0,0,0,0,0,16,16,16,,,,,,,,,,,,,,,,,,,,,,,,,,,177.49546480015852,178.49842280009761,177.49546480015852,178.49842280009761,177.49546480015852,178.49842280009761,177.49546480015852,178.49842280009761,right,1,0.3537568000610918,177.49546480015852,None,177.49546480015852,None,177.49546480015852,177.99627110012807,177.49546480015852,177.99627110012807,177.49546480015852,177.99627110012807,177.49546480015852,177.99627110012807,177.49546480015852,None,,,,,,,,,,,,,,,,,,,,,,,,,,,,,,,,,,,,,,,,,,11035,001,2024_Mar_10_1411,nback,2021.2.3,59.92599140912863,
0-back,instructions\back-0.png,conditions\0back-p.xlsx,instructions\0-BACK.png,"(15, 8)",practice,0,1,stim\yellow.png,stim\gray.png,stim\gray.png,stim\gray.png,up,1,0,1,0,0,0,0,0,0,17,17,17,,,,,,,,,,,,,,,,,,,,,,,,,,,178.99750250019133,179.99903000006452,178.99750250019133,179.99903000006452,178.99750250019133,179.99903000006452,178.99750250019133,179.99903000006452,up,1,0.37227259995415807,178.99750250019133,None,178.99750250019133,None,178.99750250019133,179.49852230004035,178.99750250019133,179.49852230004035,178.99750250019133,179.49852230004035,178.99750250019133,179.49852230004035,178.99750250019133,None,,,,,,,,,,,,,,,,,,,,,,,,,,,,,,,,,,,,,,,,,,11035,001,2024_Mar_10_1411,nback,2021.2.3,59.92599140912863,
0-back,instructions\back-0.png,conditions\0back-p.xlsx,instructions\0-BACK.png,"(15, 8)",practice,0,4,stim\gray.png,stim\gray.png,stim\gray.png,stim\yellow.png,down,1,0,1,0,0,0,0,0,0,18,18,18,,,,,,,,,,,,,,,,,,,,,,,,,,,180.50003590015694,181.50218400009908,180.50003590015694,181.50218400009908,180.50003590015694,181.50218400009908,180.50003590015694,181.50218400009908,down,1,0.35762530006468296,180.50003590015694,None,180.50003590015694,None,180.50003590015694,181.00084770005196,180.50003590015694,181.00084770005196,180.50003590015694,181.00084770005196,180.50003590015694,181.00084770005196,180.50003590015694,None,,,,,,,,,,,,,,,,,,,,,,,,,,,,,,,,,,,,,,,,,,11035,001,2024_Mar_10_1411,nback,2021.2.3,59.92599140912863,
0-back,instructions\back-0.png,conditions\0back-p.xlsx,instructions\0-BACK.png,"(15, 8)",practice,0,2,stim\gray.png,stim\yellow.png,stim\gray.png,stim\gray.png,left,1,0,1,0,0,0,0,0,0,19,19,19,,,,,,,,,,,,,,,,,,,,,,,,,,,182.0025094000157,183.00385710014962,182.0025094000157,183.00385710014962,182.0025094000157,183.00385710014962,182.0025094000157,183.00385710014962,left,1,0.34308989997953176,182.0025094000157,None,182.0025094000157,None,182.0025094000157,182.50374930002727,182.0025094000157,182.50374930002727,182.0025094000157,182.50374930002727,182.0025094000157,182.50374930002727,182.0025094000157,None,,,,,,,,,,,,,,,,,,,,,,,,,,,,,,,,,,,,,,,,,,11035,001,2024_Mar_10_1411,nback,2021.2.3,59.92599140912863,
0-back,instructions\back-0.png,conditions\0back-p.xlsx,instructions\0-BACK.png,"(15, 8)",,,,,,,,,1,0,1,0,0,0,0,0,,,,,,,,,,,,,,,,,,,,,,,,,,,,,,,,,,,,,,,,,,,,,,,,,,,,,,,,,,,,,,,,,,,,,,,,,,,,,,,,,,,,,,,,,,,,,,,,,11035,001,2024_Mar_10_1411,nback,2021.2.3,59.92599140912863,
1-back,instructions\back-1.png,conditions\1back-p.xlsx,instructions\1-BACK.png,"(25, 15)",practice,1,1,stim\yellow.png,stim\gray.png,stim\gray.png,stim\gray.png,None,1,0,1,0,0,1,1,1,0,0,0,0,,,,,,,,,,,,,,,,,183.63796600000933,None,space,1.6278669000603259,183.63796600000933,None,185.39077370008454,189.89916670019738,189.88103520008735,None,190.31542670005,191.31726780021563,190.31542670005,191.31726780021563,190.31542670005,191.31726780021563,190.31542670005,191.31726780021563,None,1,,190.31542670005,None,190.31542670005,None,190.31542670005,190.81561700021848,190.31542670005,190.81561700021848,190.31542670005,190.81561700021848,190.31542670005,190.81561700021848,190.31542670005,None,,,,,,,,,,,,,,,,,,,,,,,,,,,,,,,,,,,,,,,,,,11035,001,2024_Mar_10_1411,nback,2021.2.3,59.92599140912863,
1-back,instructions\back-1.png,conditions\1back-p.xlsx,instructions\1-BACK.png,"(25, 15)",practice,1,2,stim\gray.png,stim\yellow.png,stim\gray.png,stim\gray.png,up,1,0,1,0,0,1,1,1,0,1,1,1,,,,,,,,,,,,,,,,,,,,,,,,,,,191.80042250012048,192.80288790003397,191.80042250012048,192.80288790003397,191.80042250012048,192.80288790003397,191.80042250012048,192.80288790003397,up,1,0.2811680000741035,191.80042250012048,None,191.80042250012048,None,191.80042250012048,192.30114240013063,191.80042250012048,192.30114240013063,191.80042250012048,192.30114240013063,191.80042250012048,192.30114240013063,191.80042250012048,None,,,,,,,,,,,,,,,,,,,,,,,,,,,,,,,,,,,,,,,,,,11035,001,2024_Mar_10_1411,nback,2021.2.3,59.92599140912863,
1-back,instructions\back-1.png,conditions\1back-p.xlsx,instructions\1-BACK.png,"(25, 15)",practice,1,3,stim\gray.png,stim\gray.png,stim\yellow.png,stim\gray.png,left,1,0,1,0,0,1,1,1,0,2,2,2,,,,,,,,,,,,,,,,,,,,,,,,,,,193.3030544000212,194.30418450012803,193.3030544000212,194.30418450012803,193.3030544000212,194.30418450012803,193.3030544000212,194.30418450012803,left,1,0.2191095999442041,193.3030544000212,None,193.3030544000212,None,193.3030544000212,193.80337570002303,193.3030544000212,193.80337570002303,193.3030544000212,193.80337570002303,193.3030544000212,193.80337570002303,193.3030544000212,None,,,,,,,,,,,,,,,,,,,,,,,,,,,,,,,,,,,,,,,,,,11035,001,2024_Mar_10_1411,nback,2021.2.3,59.92599140912863,
1-back,instructions\back-1.png,conditions\1back-p.xlsx,instructions\1-BACK.png,"(25, 15)",practice,1,4,stim\gray.png,stim\gray.png,stim\gray.png,stim\yellow.png,right,1,0,1,0,0,1,1,1,0,3,3,3,,,,,,,,,,,,,,,,,,,,,,,,,,,194.80477490019985,195.80638070008717,194.80477490019985,195.80638070008717,194.80477490019985,195.80638070008717,194.80477490019985,195.80638070008717,right,1,0.16561809997074306,194.80477490019985,None,194.80477490019985,None,194.80477490019985,195.30640510004014,194.80477490019985,195.30640510004014,194.80477490019985,195.30640510004014,194.80477490019985,195.30640510004014,194.80477490019985,None,,,,,,,,,,,,,,,,,,,,,,,,,,,,,,,,,,,,,,,,,,11035,001,2024_Mar_10_1411,nback,2021.2.3,59.92599140912863,
1-back,instructions\back-1.png,conditions\1back-p.xlsx,instructions\1-BACK.png,"(25, 15)",practice,1,2,stim\gray.png,stim\yellow.png,stim\gray.png,stim\gray.png,down,1,0,1,0,0,1,1,1,0,4,4,4,,,,,,,,,,,,,,,,,,,,,,,,,,,196.30759470001794,197.31107200006954,196.30759470001794,197.31107200006954,196.30759470001794,197.31107200006954,196.30759470001794,197.31107200006954,down,1,0.18296159990131855,196.30759470001794,None,196.30759470001794,None,196.30759470001794,196.80797100020573,196.30759470001794,196.80797100020573,196.30759470001794,196.80797100020573,196.30759470001794,196.80797100020573,196.30759470001794,None,,,,,,,,,,,,,,,,,,,,,,,,,,,,,,,,,,,,,,,,,,11035,001,2024_Mar_10_1411,nback,2021.2.3,59.92599140912863,
1-back,instructions\back-1.png,conditions\1back-p.xlsx,instructions\1-BACK.png,"(25, 15)",practice,1,1,stim\yellow.png,stim\gray.png,stim\gray.png,stim\gray.png,left,1,0,1,0,0,1,1,1,0,5,5,5,,,,,,,,,,,,,,,,,,,,,,,,,,,197.80934810009785,198.81178690004162,197.80934810009785,198.81178690004162,197.80934810009785,198.81178690004162,197.80934810009785,198.81178690004162,left,1,0.20895080012269318,197.80934810009785,None,197.80934810009785,None,197.80934810009785,198.31164980004542,197.80934810009785,198.31164980004542,197.80934810009785,198.31164980004542,197.80934810009785,198.31164980004542,197.80934810009785,None,,,,,,,,,,,,,,,,,,,,,,,,,,,,,,,,,,,,,,,,,,11035,001,2024_Mar_10_1411,nback,2021.2.3,59.92599140912863,
1-back,instructions\back-1.png,conditions\1back-p.xlsx,instructions\1-BACK.png,"(25, 15)",practice,1,4,stim\gray.png,stim\gray.png,stim\gray.png,stim\yellow.png,up,1,0,1,0,0,1,1,1,0,6,6,6,,,,,,,,,,,,,,,,,,,,,,,,,,,199.29594169999473,200.29650670010597,199.29594169999473,200.29650670010597,199.29594169999473,200.29650670010597,199.29594169999473,200.29650670010597,up,1,0.20191540010273457,199.29594169999473,None,199.29594169999473,None,199.29594169999473,199.79621620010585,199.29594169999473,199.79621620010585,199.29594169999473,199.79621620010585,199.29594169999473,199.79621620010585,199.29594169999473,None,,,,,,,,,,,,,,,,,,,,,,,,,,,,,,,,,,,,,,,,,,11035,001,2024_Mar_10_1411,nback,2021.2.3,59.92599140912863,
1-back,instructions\back-1.png,conditions\1back-p.xlsx,instructions\1-BACK.png,"(25, 15)",practice,1,3,stim\gray.png,stim\gray.png,stim\yellow.png,stim\gray.png,down,1,0,1,0,0,1,1,1,0,7,7,7,,,,,,,,,,,,,,,,,,,,,,,,,,,200.79736570012756,201.79902490018867,200.79736570012756,201.79902490018867,200.79736570012756,201.79902490018867,200.79736570012756,201.79902490018867,down,1,0.39678239985369146,200.79736570012756,None,200.79736570012756,None,200.79736570012756,201.2982240000274,200.79736570012756,201.2982240000274,200.79736570012756,201.2982240000274,200.79736570012756,201.2982240000274,200.79736570012756,None,,,,,,,,,,,,,,,,,,,,,,,,,,,,,,,,,,,,,,,,,,11035,001,2024_Mar_10_1411,nback,2021.2.3,59.92599140912863,
1-back,instructions\back-1.png,conditions\1back-p.xlsx,instructions\1-BACK.png,"(25, 15)",practice,1,3,stim\gray.png,stim\gray.png,stim\yellow.png,stim\gray.png,right,1,0,1,0,0,1,1,1,0,8,8,8,,,,,,,,,,,,,,,,,,,,,,,,,,,202.29932480002753,203.3018853000831,202.29932480002753,203.3018853000831,202.29932480002753,203.3018853000831,202.29932480002753,203.3018853000831,right,1,0.4547530000563711,202.29932480002753,None,202.29932480002753,None,202.29932480002753,202.80039380001836,202.29932480002753,202.80039380001836,202.29932480002753,202.80039380001836,202.29932480002753,202.80039380001836,202.29932480002753,None,,,,,,,,,,,,,,,,,,,,,,,,,,,,,,,,,,,,,,,,,,11035,001,2024_Mar_10_1411,nback,2021.2.3,59.92599140912863,
1-back,instructions\back-1.png,conditions\1back-p.xlsx,instructions\1-BACK.png,"(25, 15)",practice,1,4,stim\gray.png,stim\gray.png,stim\gray.png,stim\yellow.png,right,1,0,1,0,0,1,1,1,0,9,9,9,,,,,,,,,,,,,,,,,,,,,,,,,,,203.80185270006768,204.80329810013063,203.80185270006768,204.80329810013063,203.80185270006768,204.80329810013063,203.80185270006768,204.80329810013063,right,1,0.5443688000086695,203.80185270006768,None,203.80185270006768,None,203.80185270006768,204.30249160015956,203.80185270006768,204.30249160015956,203.80185270006768,204.30249160015956,203.80185270006768,204.30249160015956,203.80185270006768,None,,,,,,,,,,,,,,,,,,,,,,,,,,,,,,,,,,,,,,,,,,11035,001,2024_Mar_10_1411,nback,2021.2.3,59.92599140912863,
1-back,instructions\back-1.png,conditions\1back-p.xlsx,instructions\1-BACK.png,"(25, 15)",practice,1,1,stim\yellow.png,stim\gray.png,stim\gray.png,stim\gray.png,down,1,0,1,0,0,1,1,1,0,10,10,10,,,,,,,,,,,,,,,,,,,,,,,,,,,205.30472060013562,206.30627260007896,205.30472060013562,206.30627260007896,205.30472060013562,206.30627260007896,205.30472060013562,206.30627260007896,down,1,0.28182250005193055,205.30472060013562,None,205.30472060013562,None,205.30472060013562,205.8049993000459,205.30472060013562,205.8049993000459,205.30472060013562,205.8049993000459,205.30472060013562,205.8049993000459,205.30472060013562,None,,,,,,,,,,,,,,,,,,,,,,,,,,,,,,,,,,,,,,,,,,11035,001,2024_Mar_10_1411,nback,2021.2.3,59.92599140912863,
1-back,instructions\back-1.png,conditions\1back-p.xlsx,instructions\1-BACK.png,"(25, 15)",practice,1,2,stim\gray.png,stim\yellow.png,stim\gray.png,stim\gray.png,up,1,0,1,0,0,1,1,1,0,11,11,11,,,,,,,,,,,,,,,,,,,,,,,,,,,206.8063659002073,207.80763540021144,206.8063659002073,207.80763540021144,206.8063659002073,207.80763540021144,206.8063659002073,207.80763540021144,up,1,0.26857790001668036,206.8063659002073,None,206.8063659002073,None,206.8063659002073,207.30715000000782,206.8063659002073,207.30715000000782,206.8063659002073,207.30715000000782,206.8063659002073,207.30715000000782,206.8063659002073,None,,,,,,,,,,,,,,,,,,,,,,,,,,,,,,,,,,,,,,,,,,11035,001,2024_Mar_10_1411,nback,2021.2.3,59.92599140912863,
1-back,instructions\back-1.png,conditions\1back-p.xlsx,instructions\1-BACK.png,"(25, 15)",practice,1,4,stim\gray.png,stim\gray.png,stim\gray.png,stim\yellow.png,left,1,0,1,0,0,1,1,1,0,12,12,12,,,,,,,,,,,,,,,,,,,,,,,,,,,208.30915140011348,209.31019150000066,208.30915140011348,209.31019150000066,208.30915140011348,209.31019150000066,208.30915140011348,209.31019150000066,left,1,0.23734800005331635,208.30915140011348,None,208.30915140011348,None,208.30915140011348,208.80937320017256,208.30915140011348,208.80937320017256,208.30915140011348,208.80937320017256,208.30915140011348,208.80937320017256,208.30915140011348,None,,,,,,,,,,,,,,,,,,,,,,,,,,,,,,,,,,,,,,,,,,11035,001,2024_Mar_10_1411,nback,2021.2.3,59.92599140912863,
1-back,instructions\back-1.png,conditions\1back-p.xlsx,instructions\1-BACK.png,"(25, 15)",practice,1,3,stim\gray.png,stim\gray.png,stim\yellow.png,stim\gray.png,down,1,0,1,0,0,1,1,1,0,13,13,13,,,,,,,,,,,,,,,,,,,,,,,,,,,209.79427700000815,210.7958580001723,209.79427700000815,210.7958580001723,209.79427700000815,210.7958580001723,209.79427700000815,210.7958580001723,down,1,0.14412529999390244,209.79427700000815,None,209.79427700000815,None,209.79427700000815,210.29496340011247,209.79427700000815,210.29496340011247,209.79427700000815,210.29496340011247,209.79427700000815,210.29496340011247,209.79427700000815,None,,,,,,,,,,,,,,,,,,,,,,,,,,,,,,,,,,,,,,,,,,11035,001,2024_Mar_10_1411,nback,2021.2.3,59.92599140912863,
1-back,instructions\back-1.png,conditions\1back-p.xlsx,instructions\1-BACK.png,"(25, 15)",practice,1,1,stim\yellow.png,stim\gray.png,stim\gray.png,stim\gray.png,right,1,0,1,0,0,1,1,1,0,14,14,14,,,,,,,,,,,,,,,,,,,,,,,,,,,211.29714500019327,212.29785600001924,211.29714500019327,212.29785600001924,211.29714500019327,212.29785600001924,211.29714500019327,212.29785600001924,right,1,0.19334180001169443,211.29714500019327,None,211.29714500019327,None,211.29714500019327,211.79733670013957,211.29714500019327,211.79733670013957,211.29714500019327,211.79733670013957,211.29714500019327,211.79733670013957,211.29714500019327,None,,,,,,,,,,,,,,,,,,,,,,,,,,,,,,,,,,,,,,,,,,11035,001,2024_Mar_10_1411,nback,2021.2.3,59.92599140912863,
1-back,instructions\back-1.png,conditions\1back-p.xlsx,instructions\1-BACK.png,"(25, 15)",practice,1,2,stim\gray.png,stim\yellow.png,stim\gray.png,stim\gray.png,up,1,0,1,0,0,1,1,1,0,15,15,15,,,,,,,,,,,,,,,,,,,,,,,,,,,212.7994900001213,213.80049120006151,212.7994900001213,213.80049120006151,212.7994900001213,213.80049120006151,212.7994900001213,213.80049120006151,up,1,0.17921350011602044,212.7994900001213,None,212.7994900001213,None,212.7994900001213,213.2994025000371,212.7994900001213,213.2994025000371,212.7994900001213,213.2994025000371,212.7994900001213,213.2994025000371,212.7994900001213,None,,,,,,,,,,,,,,,,,,,,,,,,,,,,,,,,,,,,,,,,,,11035,001,2024_Mar_10_1411,nback,2021.2.3,59.92599140912863,
1-back,instructions\back-1.png,conditions\1back-p.xlsx,instructions\1-BACK.png,"(25, 15)",practice,1,3,stim\gray.png,stim\gray.png,stim\yellow.png,stim\gray.png,left,1,0,1,0,0,1,1,1,0,16,16,16,,,,,,,,,,,,,,,,,,,,,,,,,,,214.30095780012198,215.3032912001945,214.30095780012198,215.3032912001945,214.30095780012198,215.3032912001945,214.30095780012198,215.3032912001945,left,1,0.21316089993342757,214.30095780012198,None,214.30095780012198,None,214.30095780012198,214.802591400221,214.30095780012198,214.802591400221,214.30095780012198,214.802591400221,214.30095780012198,214.802591400221,214.30095780012198,None,,,,,,,,,,,,,,,,,,,,,,,,,,,,,,,,,,,,,,,,,,11035,001,2024_Mar_10_1411,nback,2021.2.3,59.92599140912863,
1-back,instructions\back-1.png,conditions\1back-p.xlsx,instructions\1-BACK.png,"(25, 15)",practice,1,1,stim\yellow.png,stim\gray.png,stim\gray.png,stim\gray.png,right,1,0,1,0,0,1,1,1,0,17,17,17,,,,,,,,,,,,,,,,,,,,,,,,,,,215.8042014001403,216.80707149999216,215.8042014001403,216.80707149999216,215.8042014001403,216.80707149999216,215.8042014001403,216.80707149999216,right,1,0.206144800176844,215.8042014001403,None,215.8042014001403,None,215.8042014001403,216.30418520001695,215.8042014001403,216.30418520001695,215.8042014001403,216.30418520001695,215.8042014001403,216.30418520001695,215.8042014001403,None,,,,,,,,,,,,,,,,,,,,,,,,,,,,,,,,,,,,,,,,,,11035,001,2024_Mar_10_1411,nback,2021.2.3,59.92599140912863,
1-back,instructions\back-1.png,conditions\1back-p.xlsx,instructions\1-BACK.png,"(25, 15)",practice,1,4,stim\gray.png,stim\gray.png,stim\gray.png,stim\yellow.png,up,1,0,1,0,0,1,1,1,0,18,18,18,,,,,,,,,,,,,,,,,,,,,,,,,,,217.30546280019917,218.3084347001277,217.30546280019917,218.3084347001277,217.30546280019917,218.3084347001277,217.30546280019917,218.3084347001277,up,1,0.2013513999991119,217.30546280019917,None,217.30546280019917,None,217.30546280019917,217.80722960014828,217.30546280019917,217.80722960014828,217.30546280019917,217.80722960014828,217.30546280019917,217.80722960014828,217.30546280019917,None,,,,,,,,,,,,,,,,,,,,,,,,,,,,,,,,,,,,,,,,,,11035,001,2024_Mar_10_1411,nback,2021.2.3,59.92599140912863,
1-back,instructions\back-1.png,conditions\1back-p.xlsx,instructions\1-BACK.png,"(25, 15)",practice,1,2,stim\gray.png,stim\yellow.png,stim\gray.png,stim\gray.png,down,1,0,1,0,0,1,1,1,0,19,19,19,,,,,,,,,,,,,,,,,,,,,,,,,,,218.80780770001002,219.80936340009794,218.80780770001002,219.80936340009794,218.80780770001002,219.80936340009794,218.80780770001002,219.80936340009794,down,1,0.1948061001021415,218.80780770001002,None,218.80780770001002,None,218.80780770001002,219.30915690003894,218.80780770001002,219.30915690003894,218.80780770001002,219.30915690003894,218.80780770001002,219.30915690003894,218.80780770001002,None,,,,,,,,,,,,,,,,,,,,,,,,,,,,,,,,,,,,,,,,,,11035,001,2024_Mar_10_1411,nback,2021.2.3,59.92599140912863,
1-back,instructions\back-1.png,conditions\1back-p.xlsx,instructions\1-BACK.png,"(25, 15)",,,,,,,,,1,0,1,0,0,1,1,1,,,,,,,,,,,,,,,,,,,,,,,,,,,,,,,,,,,,,,,,,,,,,,,,,,,,,,,,,,,,,,,,,,,,,,,,,,,,,,,,,,,,,,,,,,,,,,,,,11035,001,2024_Mar_10_1411,nback,2021.2.3,59.92599140912863,
2-back,instructions\back-2.png,conditions\2back-p.xlsx,instructions\2-BACK.png,"(25, 15)",practice,2,1,stim\yellow.png,stim\gray.png,stim\gray.png,stim\gray.png,None,1,0,1,0,0,2,2,2,0,0,0,0,,,,,,,,,,,,,,,,,220.42694870010018,None,space,11.32776609994471,220.42694870010018,None,231.89400980016217,236.4018574000802,236.3676600002218,None,236.80298270005733,237.80386350001208,236.80298270005733,237.80386350001208,236.80298270005733,237.80386350001208,236.80298270005733,237.80386350001208,None,1,,236.80298270005733,None,236.80298270005733,None,236.80298270005733,237.30302240001038,236.80298270005733,237.30302240001038,236.80298270005733,237.30302240001038,236.80298270005733,237.30302240001038,236.80298270005733,None,,,,,,,,,,,,,,,,,,,,,,,,,,,,,,,,,,,,,,,,,,11035,001,2024_Mar_10_1411,nback,2021.2.3,59.92599140912863,
2-back,instructions\back-2.png,conditions\2back-p.xlsx,instructions\2-BACK.png,"(25, 15)",practice,2,2,stim\gray.png,stim\yellow.png,stim\gray.png,stim\gray.png,None,1,0,1,0,0,2,2,2,0,1,1,1,,,,,,,,,,,,,,,,,,,,,,,,,,,238.28706480003893,239.28967800014652,238.28706480003893,239.28967800014652,238.28706480003893,239.28967800014652,238.28706480003893,239.28967800014652,None,1,,238.28706480003893,None,238.28706480003893,None,238.28706480003893,238.7878558000084,238.28706480003893,238.7878558000084,238.28706480003893,238.7878558000084,238.28706480003893,238.7878558000084,238.28706480003893,None,,,,,,,,,,,,,,,,,,,,,,,,,,,,,,,,,,,,,,,,,,11035,001,2024_Mar_10_1411,nback,2021.2.3,59.92599140912863,
2-back,instructions\back-2.png,conditions\2back-p.xlsx,instructions\2-BACK.png,"(25, 15)",practice,2,3,stim\gray.png,stim\gray.png,stim\yellow.png,stim\gray.png,up,1,0,1,0,0,2,2,2,0,2,2,2,,,,,,,,,,,,,,,,,,,,,,,,,,,239.78931000013836,240.79132440011017,239.78931000013836,240.79132440011017,239.78931000013836,240.79132440011017,239.78931000013836,240.79132440011017,up,1,0.3979878001846373,239.78931000013836,None,239.78931000013836,None,239.78931000013836,240.2900597001426,239.78931000013836,240.2900597001426,239.78931000013836,240.2900597001426,239.78931000013836,240.2900597001426,239.78931000013836,None,,,,,,,,,,,,,,,,,,,,,,,,,,,,,,,,,,,,,,,,,,11035,001,2024_Mar_10_1411,nback,2021.2.3,59.92599140912863,
2-back,instructions\back-2.png,conditions\2back-p.xlsx,instructions\2-BACK.png,"(25, 15)",practice,2,4,stim\gray.png,stim\gray.png,stim\gray.png,stim\yellow.png,left,1,0,1,0,0,2,2,2,0,3,3,3,,,,,,,,,,,,,,,,,,,,,,,,,,,241.29273820016533,242.2931181001477,241.29273820016533,242.2931181001477,241.29273820016533,242.2931181001477,241.29273820016533,242.2931181001477,left,1,0.2556201999541372,241.29273820016533,None,241.29273820016533,None,241.29273820016533,241.7924433001317,241.29273820016533,241.7924433001317,241.29273820016533,241.7924433001317,241.29273820016533,241.7924433001317,241.29273820016533,None,,,,,,,,,,,,,,,,,,,,,,,,,,,,,,,,,,,,,,,,,,11035,001,2024_Mar_10_1411,nback,2021.2.3,59.92599140912863,
2-back,instructions\back-2.png,conditions\2back-p.xlsx,instructions\2-BACK.png,"(25, 15)",practice,2,2,stim\gray.png,stim\yellow.png,stim\gray.png,stim\gray.png,right,1,0,1,0,0,2,2,2,0,4,4,4,,,,,,,,,,,,,,,,,,,,,,,,,,,242.7939744000323,243.79609840014018,242.7939744000323,243.79609840014018,242.7939744000323,243.79609840014018,242.7939744000323,243.79609840014018,left,0,0.6731337998062372,242.7939744000323,None,242.7939744000323,None,242.7939744000323,243.2954665001016,242.7939744000323,243.2954665001016,242.7939744000323,243.2954665001016,242.7939744000323,243.2954665001016,242.7939744000323,None,,,,,,,,,,,,,,,,,,,,,,,,,,,,,,,,,,,,,,,,,,11035,001,2024_Mar_10_1411,nback,2021.2.3,59.92599140912863,
2-back,instructions\back-2.png,conditions\2back-p.xlsx,instructions\2-BACK.png,"(25, 15)",practice,2,1,stim\yellow.png,stim\gray.png,stim\gray.png,stim\gray.png,down,1,0,1,0,0,2,2,2,0,5,5,5,,,,,,,,,,,,,,,,,,,,,,,,,,,244.29625050001778,245.29916570009664,244.29625050001778,245.29916570009664,244.29625050001778,245.29916570009664,244.29625050001778,245.29916570009664,None,0,,244.29625050001778,None,244.29625050001778,None,244.29625050001778,244.7969646002166,244.29625050001778,244.7969646002166,244.29625050001778,244.7969646002166,244.29625050001778,244.7969646002166,244.29625050001778,None,,,,,,,,,,,,,,,,,,,,,,,,,,,,,,,,,,,,,,,,,,11035,001,2024_Mar_10_1411,nback,2021.2.3,59.92599140912863,
2-back,instructions\back-2.png,conditions\2back-p.xlsx,instructions\2-BACK.png,"(25, 15)",practice,2,4,stim\gray.png,stim\gray.png,stim\gray.png,stim\yellow.png,left,1,0,1,0,0,2,2,2,0,6,6,6,,,,,,,,,,,,,,,,,,,,,,,,,,,245.78172600013204,246.7832262001466,245.78172600013204,246.7832262001466,245.78172600013204,246.7832262001466,245.78172600013204,246.7832262001466,None,0,,245.78172600013204,None,245.78172600013204,None,245.78172600013204,246.28324090014212,245.78172600013204,246.28324090014212,245.78172600013204,246.28324090014212,245.78172600013204,246.28324090014212,245.78172600013204,None,,,,,,,,,,,,,,,,,,,,,,,,,,,,,,,,,,,,,,,,,,11035,001,2024_Mar_10_1411,nback,2021.2.3,59.92599140912863,
2-back,instructions\back-2.png,conditions\2back-p.xlsx,instructions\2-BACK.png,"(25, 15)",practice,2,3,stim\gray.png,stim\gray.png,stim\yellow.png,stim\gray.png,up,1,0,1,0,0,2,2,2,0,7,7,7,,,,,,,,,,,,,,,,,,,,,,,,,,,247.28427910013124,248.28634380013682,247.28427910013124,248.28634380013682,247.28427910013124,248.28634380013682,247.28427910013124,248.28634380013682,right,0,0.6312879999168217,247.28427910013124,None,247.28427910013124,None,247.28427910013124,247.7848118999973,247.28427910013124,247.7848118999973,247.28427910013124,247.7848118999973,247.28427910013124,247.7848118999973,247.28427910013124,None,,,,,,,,,,,,,,,,,,,,,,,,,,,,,,,,,,,,,,,,,,11035,001,2024_Mar_10_1411,nback,2021.2.3,59.92599140912863,
2-back,instructions\back-2.png,conditions\2back-p.xlsx,instructions\2-BACK.png,"(25, 15)",practice,2,3,stim\gray.png,stim\gray.png,stim\yellow.png,stim\gray.png,down,1,0,1,0,0,2,2,2,0,8,8,8,,,,,,,,,,,,,,,,,,,,,,,,,,,248.78630410018377,249.78860880015418,248.78630410018377,249.78860880015418,248.78630410018377,249.78860880015418,248.78630410018377,249.78860880015418,right,0,0.5210676998831332,248.78630410018377,None,248.78630410018377,None,248.78630410018377,249.28703010012396,248.78630410018377,249.28703010012396,248.78630410018377,249.28703010012396,248.78630410018377,249.28703010012396,248.78630410018377,None,,,,,,,,,,,,,,,,,,,,,,,,,,,,,,,,,,,,,,,,,,11035,001,2024_Mar_10_1411,nback,2021.2.3,59.92599140912863,
2-back,instructions\back-2.png,conditions\2back-p.xlsx,instructions\2-BACK.png,"(25, 15)",practice,2,4,stim\gray.png,stim\gray.png,stim\gray.png,stim\yellow.png,right,1,0,1,0,0,2,2,2,0,9,9,9,,,,,,,,,,,,,,,,,,,,,,,,,,,250.28869840013795,251.2901012999937,250.28869840013795,251.2901012999937,250.28869840013795,251.2901012999937,250.28869840013795,251.2901012999937,down,0,0.5309460998978466,250.28869840013795,None,250.28869840013795,None,250.28869840013795,250.7904149000533,250.28869840013795,250.7904149000533,250.28869840013795,250.7904149000533,250.28869840013795,250.7904149000533,250.28869840013795,None,,,,,,,,,,,,,,,,,,,,,,,,,,,,,,,,,,,,,,,,,,11035,001,2024_Mar_10_1411,nback,2021.2.3,59.92599140912863,
2-back,instructions\back-2.png,conditions\2back-p.xlsx,instructions\2-BACK.png,"(25, 15)",practice,2,1,stim\yellow.png,stim\gray.png,stim\gray.png,stim\gray.png,right,1,0,1,0,0,2,2,2,0,10,10,10,,,,,,,,,,,,,,,,,,,,,,,,,,,251.79097140021622,252.7934935002122,251.79097140021622,252.7934935002122,251.79097140021622,252.7934935002122,251.79097140021622,252.7934935002122,up,0,0.4047345998696983,251.79097140021622,None,251.79097140021622,None,251.79097140021622,252.2915403000079,251.79097140021622,252.2915403000079,251.79097140021622,252.2915403000079,251.79097140021622,252.2915403000079,251.79097140021622,None,,,,,,,,,,,,,,,,,,,,,,,,,,,,,,,,,,,,,,,,,,11035,001,2024_Mar_10_1411,nback,2021.2.3,59.92599140912863,
2-back,instructions\back-2.png,conditions\2back-p.xlsx,instructions\2-BACK.png,"(25, 15)",practice,2,2,stim\gray.png,stim\yellow.png,stim\gray.png,stim\gray.png,down,1,0,1,0,0,2,2,2,0,11,11,11,,,,,,,,,,,,,,,,,,,,,,,,,,,253.292920100037,254.2944769000169,253.292920100037,254.2944769000169,253.292920100037,254.2944769000169,253.292920100037,254.2944769000169,None,0,,253.292920100037,None,253.292920100037,None,253.292920100037,253.7938531001564,253.292920100037,253.7938531001564,253.292920100037,253.7938531001564,253.292920100037,253.7938531001564,253.292920100037,None,,,,,,,,,,,,,,,,,,,,,,,,,,,,,,,,,,,,,,,,,,11035,001,2024_Mar_10_1411,nback,2021.2.3,59.92599140912863,
2-back,instructions\back-2.png,conditions\2back-p.xlsx,instructions\2-BACK.png,"(25, 15)",practice,2,4,stim\gray.png,stim\gray.png,stim\gray.png,stim\yellow.png,up,1,0,1,0,0,2,2,2,0,12,12,12,,,,,,,,,,,,,,,,,,,,,,,,,,,254.7952164001763,255.7977744000964,254.7952164001763,255.7977744000964,254.7952164001763,255.7977744000964,254.7952164001763,255.7977744000964,down,0,0.5125529000069946,254.7952164001763,None,254.7952164001763,None,254.7952164001763,255.29690990014933,254.7952164001763,255.29690990014933,254.7952164001763,255.29690990014933,254.7952164001763,255.29690990014933,254.7952164001763,None,,,,,,,,,,,,,,,,,,,,,,,,,,,,,,,,,,,,,,,,,,11035,001,2024_Mar_10_1411,nback,2021.2.3,59.92599140912863,
2-back,instructions\back-2.png,conditions\2back-p.xlsx,instructions\2-BACK.png,"(25, 15)",practice,2,3,stim\gray.png,stim\gray.png,stim\yellow.png,stim\gray.png,left,1,0,1,0,0,2,2,2,0,13,13,13,,,,,,,,,,,,,,,,,,,,,,,,,,,256.28097800002433,257.28274380019866,256.28097800002433,257.28274380019866,256.28097800002433,257.28274380019866,256.28097800002433,257.28274380019866,right,0,0.6672678000759333,256.28097800002433,None,256.28097800002433,None,256.28097800002433,256.7816520000342,256.28097800002433,256.7816520000342,256.28097800002433,256.7816520000342,256.28097800002433,256.7816520000342,256.28097800002433,None,,,,,,,,,,,,,,,,,,,,,,,,,,,,,,,,,,,,,,,,,,11035,001,2024_Mar_10_1411,nback,2021.2.3,59.92599140912863,
2-back,instructions\back-2.png,conditions\2back-p.xlsx,instructions\2-BACK.png,"(25, 15)",practice,2,1,stim\yellow.png,stim\gray.png,stim\gray.png,stim\gray.png,down,1,0,1,0,0,2,2,2,0,14,14,14,,,,,,,,,,,,,,,,,,,,,,,,,,,257.7833048000466,258.7845681000035,257.7833048000466,258.7845681000035,257.7833048000466,258.7845681000035,257.7833048000466,258.7845681000035,None,0,,257.7833048000466,None,257.7833048000466,None,257.7833048000466,258.2849844000302,257.7833048000466,258.2849844000302,257.7833048000466,258.2849844000302,257.7833048000466,258.2849844000302,257.7833048000466,None,,,,,,,,,,,,,,,,,,,,,,,,,,,,,,,,,,,,,,,,,,11035,001,2024_Mar_10_1411,nback,2021.2.3,59.92599140912863,
2-back,instructions\back-2.png,conditions\2back-p.xlsx,instructions\2-BACK.png,"(25, 15)",practice,2,2,stim\gray.png,stim\yellow.png,stim\gray.png,stim\gray.png,right,1,0,1,0,0,2,2,2,0,15,15,15,,,,,,,,,,,,,,,,,,,,,,,,,,,259.286335100187,260.28707210021093,259.286335100187,260.28707210021093,259.286335100187,260.28707210021093,259.286335100187,260.28707210021093,left,0,0.5731970998458564,259.286335100187,None,259.286335100187,None,259.286335100187,259.78678280021995,259.286335100187,259.78678280021995,259.286335100187,259.78678280021995,259.286335100187,259.78678280021995,259.286335100187,None,,,,,,,,,,,,,,,,,,,,,,,,,,,,,,,,,,,,,,,,,,11035,001,2024_Mar_10_1411,nback,2021.2.3,59.92599140912863,
2-back,instructions\back-2.png,conditions\2back-p.xlsx,instructions\2-BACK.png,"(25, 15)",practice,2,3,stim\gray.png,stim\gray.png,stim\yellow.png,stim\gray.png,up,1,0,1,0,0,2,2,2,0,16,16,16,,,,,,,,,,,,,,,,,,,,,,,,,,,260.7883777001407,261.78957570018247,260.7883777001407,261.78957570018247,260.7883777001407,261.78957570018247,260.7883777001407,261.78957570018247,None,0,,260.7883777001407,None,260.7883777001407,None,260.7883777001407,261.2885541000869,260.7883777001407,261.2885541000869,260.7883777001407,261.2885541000869,260.7883777001407,261.2885541000869,260.7883777001407,None,,,,,,,,,,,,,,,,,,,,,,,,,,,,,,,,,,,,,,,,,,11035,001,2024_Mar_10_1411,nback,2021.2.3,59.92599140912863,
2-back,instructions\back-2.png,conditions\2back-p.xlsx,instructions\2-BACK.png,"(25, 15)",practice,2,1,stim\yellow.png,stim\gray.png,stim\gray.png,stim\gray.png,left,1,0,1,0,0,2,2,2,0,17,17,17,,,,,,,,,,,,,,,,,,,,,,,,,,,262.2911807000637,263.29213970014825,262.2911807000637,263.29213970014825,262.2911807000637,263.29213970014825,262.2911807000637,263.29213970014825,up,0,0.337071199901402,262.2911807000637,None,262.2911807000637,None,262.2911807000637,262.79090560018085,262.2911807000637,262.79090560018085,262.2911807000637,262.79090560018085,262.2911807000637,262.79090560018085,262.2911807000637,None,,,,,,,,,,,,,,,,,,,,,,,,,,,,,,,,,,,,,,,,,,11035,001,2024_Mar_10_1411,nback,2021.2.3,59.92599140912863,
2-back,instructions\back-2.png,conditions\2back-p.xlsx,instructions\2-BACK.png,"(25, 15)",practice,2,4,stim\gray.png,stim\gray.png,stim\gray.png,stim\yellow.png,right,1,0,1,0,0,2,2,2,0,18,18,18,,,,,,,,,,,,,,,,,,,,,,,,,,,263.79319890006445,264.7942929000128,263.79319890006445,264.7942929000128,263.79319890006445,264.7942929000128,263.79319890006445,264.7942929000128,None,0,,263.79319890006445,None,263.79319890006445,None,263.79319890006445,264.2938244000543,263.79319890006445,264.2938244000543,263.79319890006445,264.2938244000543,263.79319890006445,264.2938244000543,263.79319890006445,None,,,,,,,,,,,,,,,,,,,,,,,,,,,,,,,,,,,,,,,,,,11035,001,2024_Mar_10_1411,nback,2021.2.3,59.92599140912863,
2-back,instructions\back-2.png,conditions\2back-p.xlsx,instructions\2-BACK.png,"(25, 15)",practice,2,2,stim\gray.png,stim\yellow.png,stim\gray.png,stim\gray.png,up,1,0,1,0,0,2,2,2,0,19,19,19,,,,,,,,,,,,,,,,,,,,,,,,,,,265.29443100001663,266.2967446001712,265.29443100001663,266.2967446001712,265.29443100001663,266.2967446001712,265.29443100001663,266.2967446001712,right,0,1.2771199999842793,265.29443100001663,None,265.29443100001663,None,265.29443100001663,265.7953729000874,265.29443100001663,265.7953729000874,265.29443100001663,265.7953729000874,265.29443100001663,265.7953729000874,265.29443100001663,None,,,,,,,,,,,,,,,,,,,,,,,,,,,,,,,,,,,,,,,,,,11035,001,2024_Mar_10_1411,nback,2021.2.3,59.92599140912863,
2-back,instructions\back-2.png,conditions\2back-p.xlsx,instructions\2-BACK.png,"(25, 15)",,,,,,,,,1,0,1,0,0,2,2,2,,,,,,,,,,,,,,,,,,,,,,,,,,,,,,,,,,,,,,,,,,,,,,,,,,,,,,,,,,,,,,,,,,,,,,,,,,,,,,,,,,,,,,,,,,,,,,,,,11035,001,2024_Mar_10_1411,nback,2021.2.3,59.92599140912863,
,,,,,,,,,,,,,1,0,1,0,,,,,,,,,,,,,,,,,,,,,,,,,,,,,,,,,,,,,,,,,,,,,,,,,,,,,,,,,,,,266.7967801000923,None,space,2.198969299905002,266.7967801000923,None,,,,,,,,,,,,,,,,,,,,,,,,,,,,,,,,,,,,11035,001,2024_Mar_10_1411,nback,2021.2.3,59.92599140912863,
,,,,,,,,,,,,,,,,,,,,,,,,,,,,,,,,,,,,,,,,,,,,,,,,,,,,,,,,,,,,,,,,,,,,,,,,,,,,,,,,,,269.0167935001664,None,space,12.052203200059012,269.0167935001664,None,,,,,,,,,,,,,,,,,,,,,,,,,,,,,,11035,001,2024_Mar_10_1411,nback,2021.2.3,59.92599140912863,
1-back,instructions\back-1.png,conditions\13back-e.xlsx,,,experiment,1,1,stim\yellow.png,stim\gray.png,stim\gray.png,stim\gray.png,None,,,,,,,,,,,,,0,0,0,10,0,0,0,0,,,,,,,,,,,,,,,281.21844470012,285.72548250015825,285.69203070015647,None,,,,,,,,,,,,,,,,,,,,,,,,,,,,,,,,,,,,,,None,1,286.10975680011325,None,286.10975680011325,None,286.10975680011325,287.1108014001511,286.10975680011325,287.1108014001511,286.10975680011325,287.1108014001511,286.10975680011325,287.1108014001511,286.10975680011325,286.61039380007423,286.10975680011325,286.61039380007423,286.10975680011325,286.61039380007423,286.10975680011325,286.61039380007423,286.10975680011325,None,,,,,,11035,001,2024_Mar_10_1411,nback,2021.2.3,59.92599140912863,
1-back,instructions\back-1.png,conditions\13back-e.xlsx,,,experiment,1,2,stim\gray.png,stim\yellow.png,stim\gray.png,stim\gray.png,up,,,,,,,,,,,,,0,0,0,10,0,1,1,1,,,,,,,,,,,,,,,,,,,,,,,,,,,,,,,,,,,,,,,,,,,,,,,,,,,,,,,,up,1,287.5945909000002,None,287.5945909000002,None,287.5945909000002,288.5968245000113,287.5945909000002,288.5968245000113,287.5945909000002,288.5968245000113,287.5945909000002,288.5968245000113,287.5945909000002,288.09665360022336,287.5945909000002,288.09665360022336,287.5945909000002,288.09665360022336,287.5945909000002,288.09665360022336,287.5945909000002,None,0.29803579999133945,,,,,11035,001,2024_Mar_10_1411,nback,2021.2.3,59.92599140912863,
1-back,instructions\back-1.png,conditions\13back-e.xlsx,,,experiment,1,4,stim\gray.png,stim\gray.png,stim\gray.png,stim\yellow.png,left,,,,,,,,,,,,,0,0,0,10,0,2,2,2,,,,,,,,,,,,,,,,,,,,,,,,,,,,,,,,,,,,,,,,,,,,,,,,,,,,,,,,left,1,289.0970965002198,None,289.0970965002198,None,289.0970965002198,290.1012445001397,289.0970965002198,290.1012445001397,289.0970965002198,290.1012445001397,289.0970965002198,290.1012445001397,289.0970965002198,289.5982003000099,289.0970965002198,289.5982003000099,289.0970965002198,289.5982003000099,289.0970965002198,289.5982003000099,289.0970965002198,None,0.13161329994909465,,,,,11035,001,2024_Mar_10_1411,nback,2021.2.3,59.92599140912863,
1-back,instructions\back-1.png,conditions\13back-e.xlsx,,,experiment,1,3,stim\gray.png,stim\gray.png,stim\yellow.png,stim\gray.png,down,,,,,,,,,,,,,0,0,0,10,0,3,3,3,,,,,,,,,,,,,,,,,,,,,,,,,,,,,,,,,,,,,,,,,,,,,,,,,,,,,,,,down,1,290.59937640000135,None,290.59937640000135,None,290.59937640000135,291.6011815001257,290.59937640000135,291.6011815001257,290.59937640000135,291.6011815001257,290.59937640000135,291.6011815001257,290.59937640000135,291.1008539001923,290.59937640000135,291.1008539001923,290.59937640000135,291.1008539001923,290.59937640000135,291.1008539001923,290.59937640000135,None,0.16566329984925687,,,,,11035,001,2024_Mar_10_1411,nback,2021.2.3,59.92599140912863,
1-back,instructions\back-1.png,conditions\13back-e.xlsx,,,experiment,1,1,stim\yellow.png,stim\gray.png,stim\gray.png,stim\gray.png,right,,,,,,,,,,,,,0,0,0,10,0,4,4,4,,,,,,,,,,,,,,,,,,,,,,,,,,,,,,,,,,,,,,,,,,,,,,,,,,,,,,,,right,1,292.1015926999971,None,292.1015926999971,None,292.1015926999971,293.10318010021,292.1015926999971,293.10318010021,292.1015926999971,293.10318010021,292.1015926999971,293.10318010021,292.1015926999971,292.60334380017594,292.1015926999971,292.60334380017594,292.1015926999971,292.60334380017594,292.1015926999971,292.60334380017594,292.1015926999971,None,0.1436970999930054,,,,,11035,001,2024_Mar_10_1411,nback,2021.2.3,59.92599140912863,
1-back,instructions\back-1.png,conditions\13back-e.xlsx,,,experiment,1,3,stim\gray.png,stim\gray.png,stim\yellow.png,stim\gray.png,up,,,,,,,,,,,,,0,0,0,10,0,5,5,5,,,,,,,,,,,,,,,,,,,,,,,,,,,,,,,,,,,,,,,,,,,,,,,,,,,,,,,,up,1,293.6040766001679,None,293.6040766001679,None,293.6040766001679,294.6065583000891,293.6040766001679,294.6065583000891,293.6040766001679,294.6065583000891,293.6040766001679,294.6065583000891,293.6040766001679,294.1046506999992,293.6040766001679,294.1046506999992,293.6040766001679,294.1046506999992,293.6040766001679,294.1046506999992,293.6040766001679,None,0.2968945000320673,,,,,11035,001,2024_Mar_10_1411,nback,2021.2.3,59.92599140912863,
1-back,instructions\back-1.png,conditions\13back-e.xlsx,,,experiment,1,2,stim\gray.png,stim\yellow.png,stim\gray.png,stim\gray.png,right,,,,,,,,,,,,,0,0,0,10,0,6,6,6,,,,,,,,,,,,,,,,,,,,,,,,,,,,,,,,,,,,,,,,,,,,,,,,,,,,,,,,right,1,295.09056420018896,None,295.09056420018896,None,295.09056420018896,296.09176880004816,295.09056420018896,296.09176880004816,295.09056420018896,296.09176880004816,295.09056420018896,296.09176880004816,295.09056420018896,295.5902554001659,295.09056420018896,295.5902554001659,295.09056420018896,295.5902554001659,295.09056420018896,295.5902554001659,295.09056420018896,None,0.22613890003412962,,,,,11035,001,2024_Mar_10_1411,nback,2021.2.3,59.92599140912863,
1-back,instructions\back-1.png,conditions\13back-e.xlsx,,,experiment,1,4,stim\gray.png,stim\gray.png,stim\gray.png,stim\yellow.png,left,,,,,,,,,,,,,0,0,0,10,0,7,7,7,,,,,,,,,,,,,,,,,,,,,,,,,,,,,,,,,,,,,,,,,,,,,,,,,,,,,,,,left,1,296.591683300212,None,296.591683300212,None,296.591683300212,297.59345909999683,296.591683300212,297.59345909999683,296.591683300212,297.59345909999683,296.591683300212,297.59345909999683,296.591683300212,297.0926875001751,296.591683300212,297.0926875001751,296.591683300212,297.0926875001751,296.591683300212,297.0926875001751,296.591683300212,None,0.36537900008261204,,,,,11035,001,2024_Mar_10_1411,nback,2021.2.3,59.92599140912863,
1-back,instructions\back-1.png,conditions\13back-e.xlsx,,,experiment,1,1,stim\yellow.png,stim\gray.png,stim\gray.png,stim\gray.png,down,,,,,,,,,,,,,0,0,0,10,0,8,8,8,,,,,,,,,,,,,,,,,,,,,,,,,,,,,,,,,,,,,,,,,,,,,,,,,,,,,,,,down,1,298.0940251001157,None,298.0940251001157,None,298.0940251001157,299.09604560001753,298.0940251001157,299.09604560001753,298.0940251001157,299.09604560001753,298.0940251001157,299.09604560001753,298.0940251001157,298.5947340000421,298.0940251001157,298.5947340000421,298.0940251001157,298.5947340000421,298.0940251001157,298.5947340000421,298.0940251001157,None,0.29481460014358163,,,,,11035,001,2024_Mar_10_1411,nback,2021.2.3,59.92599140912863,
1-back,instructions\back-1.png,conditions\13back-e.xlsx,,,experiment,1,2,stim\gray.png,stim\yellow.png,stim\gray.png,stim\gray.png,up,,,,,,,,,,,,,0,0,0,10,0,9,9,9,,,,,,,,,,,,,,,,,,,,,,,,,,,,,,,,,,,,,,,,,,,,,,,,,,,,,,,,up,1,299.5961606001947,None,299.5961606001947,None,299.5961606001947,300.59857260016724,299.5961606001947,300.59857260016724,299.5961606001947,300.59857260016724,299.5961606001947,300.59857260016724,299.5961606001947,300.0979419001378,299.5961606001947,300.0979419001378,299.5961606001947,300.0979419001378,299.5961606001947,300.0979419001378,299.5961606001947,None,0.5129866001661867,,,,,11035,001,2024_Mar_10_1411,nback,2021.2.3,59.92599140912863,
1-back,instructions\back-1.png,conditions\13back-e.xlsx,,,experiment,1,4,stim\gray.png,stim\gray.png,stim\gray.png,stim\yellow.png,left,,,,,,,,,,,,,0,0,0,10,0,10,10,10,,,,,,,,,,,,,,,,,,,,,,,,,,,,,,,,,,,,,,,,,,,,,,,,,,,,,,,,left,1,301.0989531001542,None,301.0989531001542,None,301.0989531001542,302.10068870009854,301.0989531001542,302.10068870009854,301.0989531001542,302.10068870009854,301.0989531001542,302.10068870009854,301.0989531001542,301.59970630006865,301.0989531001542,301.59970630006865,301.0989531001542,301.59970630006865,301.0989531001542,301.59970630006865,301.0989531001542,None,0.22590849990956485,,,,,11035,001,2024_Mar_10_1411,nback,2021.2.3,59.92599140912863,
1-back,instructions\back-1.png,conditions\13back-e.xlsx,,,experiment,1,3,stim\gray.png,stim\gray.png,stim\yellow.png,stim\gray.png,down,,,,,,,,,,,,,0,0,0,10,0,11,11,11,,,,,,,,,,,,,,,,,,,,,,,,,,,,,,,,,,,,,,,,,,,,,,,,,,,,,,,,down,1,302.60041240020655,None,302.60041240020655,None,302.60041240020655,303.60246100020595,302.60041240020655,303.60246100020595,302.60041240020655,303.60246100020595,302.60041240020655,303.60246100020595,302.60041240020655,303.1021535000764,302.60041240020655,303.1021535000764,302.60041240020655,303.1021535000764,302.60041240020655,303.1021535000764,302.60041240020655,None,0.18111600005067885,,,,,11035,001,2024_Mar_10_1411,nback,2021.2.3,59.92599140912863,
1-back,instructions\back-1.png,conditions\13back-e.xlsx,,,experiment,1,2,stim\gray.png,stim\yellow.png,stim\gray.png,stim\gray.png,right,,,,,,,,,,,,,0,0,0,10,0,12,12,12,,,,,,,,,,,,,,,,,,,,,,,,,,,,,,,,,,,,,,,,,,,,,,,,,,,,,,,,right,1,304.1039692000486,None,304.1039692000486,None,304.1039692000486,305.1055891001597,304.1039692000486,305.1055891001597,304.1039692000486,305.1055891001597,304.1039692000486,305.1055891001597,304.1039692000486,304.6047822001856,304.1039692000486,304.6047822001856,304.1039692000486,304.6047822001856,304.1039692000486,304.6047822001856,304.1039692000486,None,0.05308539979159832,,,,,11035,001,2024_Mar_10_1411,nback,2021.2.3,59.92599140912863,
1-back,instructions\back-1.png,conditions\13back-e.xlsx,,,experiment,1,4,stim\gray.png,stim\gray.png,stim\gray.png,stim\yellow.png,left,,,,,,,,,,,,,0,0,0,10,0,13,13,13,,,,,,,,,,,,,,,,,,,,,,,,,,,,,,,,,,,,,,,,,,,,,,,,,,,,,,,,down,0,305.5891924002208,None,305.5891924002208,None,305.5891924002208,306.5901641000528,305.5891924002208,306.5901641000528,305.5891924002208,306.5901641000528,305.5891924002208,306.5901641000528,305.5891924002208,306.090334800072,305.5891924002208,306.090334800072,305.5891924002208,306.090334800072,305.5891924002208,306.090334800072,305.5891924002208,None,0.46393599989823997,,,,,11035,001,2024_Mar_10_1411,nback,2021.2.3,59.92599140912863,
