backseq,backinstr,backfile,instruction,size_in,Trialtype,back,number,P1,P2,P3,P4,corrAns,trials_practice.thisRepN,trials_practice.thisTrialN,trials_practice.thisN,trials_practice.thisIndex,trials.thisRepN,trials.thisTrialN,trials.thisN,trials.thisIndex,trials_3.thisRepN,trials_3.thisTrialN,trials_3.thisN,trials_3.thisIndex,trials_2.thisRepN,trials_2.thisTrialN,trials_2.thisN,trials_2.thisIndex,trials_4.thisRepN,trials_4.thisTrialN,trials_4.thisN,trials_4.thisIndex,image.started,image.stopped,image_2.started,image_2.stopped,key_resp.keys,key_resp.rt,key_resp.started,key_resp.stopped,image_3.started,image_3.stopped,key_resp_2.keys,key_resp_2.rt,key_resp_2.started,key_resp_2.stopped,image_4.started,image_4.stopped,text.started,text.stopped,H1.started,H1.stopped,H2.started,H2.stopped,H3.started,H3.stopped,H4.started,H4.stopped,key_resp_3.keys,key_resp_3.corr,key_resp_3.rt,key_resp_3.started,key_resp_3.stopped,text_4.started,text_4.stopped,F1.started,F1.stopped,F2.started,F2.stopped,F3.started,F3.stopped,F4.started,F4.stopped,image_7.started,image_7.stopped,text_5.started,text_5.stopped,key_resp_6.keys,key_resp_6.rt,key_resp_6.started,key_resp_6.stopped,image_5.started,image_5.stopped,key_resp_4.keys,key_resp_4.rt,key_resp_4.started,key_resp_4.stopped,key_resp_5.keys,key_resp_5.corr,key_resp_5.started,key_resp_5.stopped,text_3.started,text_3.stopped,H1_2.started,H1_2.stopped,H2_2.started,H2_2.stopped,H3_2.started,H3_2.stopped,H4_2.started,H4_2.stopped,F1_2.started,F1_2.stopped,F2_2.started,F2_2.stopped,F3_2.started,F3_2.stopped,F4_2.started,F4_2.stopped,image_8.started,image_8.stopped,key_resp_5.rt,text_2.started,text_2.stopped,image_6.started,image_6.stopped,participant,session,date,expName,psychopyVersion,frameRate,
,,,,,,,,,,,,,,,,,,,,,,,,,,,,,,,,,12.439914100104943,None,13.391099400119856,None,space,2.565540699986741,13.391099400119856,None,,,,,,,,,,,,,,,,,,,,,,,,,,,,,,,,,,,,,,,,,,,,,,,,,,,,,,,,,,,,,,,,,,,,,,,,,,,,,11030,001,2024_Jan_11_0835,nback,2021.2.3,60.0295585560789,
0-back,instructions\back-0.png,conditions\0back-p.xlsx,instructions\0-BACK.png,"(15, 8)",practice,0,1,stim\yellow.png,stim\gray.png,stim\gray.png,stim\gray.png,up,0,0,0,0,0,0,0,0,0,0,0,0,,,,,,,,,,,,,,,,,16.011438500136137,None,space,2.2735985999461263,16.011438500136137,None,18.431139799999073,22.9388961000368,22.906013200059533,None,23.33948800014332,24.341095800045878,23.33948800014332,24.341095800045878,23.33948800014332,24.341095800045878,23.33948800014332,24.341095800045878,up,1,0.3931980999186635,23.33948800014332,None,23.33948800014332,None,23.33948800014332,23.840124299982563,23.33948800014332,23.840124299982563,23.33948800014332,23.840124299982563,23.33948800014332,23.840124299982563,23.33948800014332,None,,,,,,,,,,,,,,,,,,,,,,,,,,,,,,,,,,,,,,,,,,11030,001,2024_Jan_11_0835,nback,2021.2.3,60.0295585560789,
0-back,instructions\back-0.png,conditions\0back-p.xlsx,instructions\0-BACK.png,"(15, 8)",practice,0,2,stim\gray.png,stim\yellow.png,stim\gray.png,stim\gray.png,left,0,0,0,0,0,0,0,0,0,1,1,1,,,,,,,,,,,,,,,,,,,,,,,,,,,24.824825500138104,25.826994400005788,24.824825500138104,25.826994400005788,24.824825500138104,25.826994400005788,24.824825500138104,25.826994400005788,left,1,0.39629629999399185,24.824825500138104,None,24.824825500138104,None,24.824825500138104,25.325766900088638,24.824825500138104,25.325766900088638,24.824825500138104,25.325766900088638,24.824825500138104,25.325766900088638,24.824825500138104,None,,,,,,,,,,,,,,,,,,,,,,,,,,,,,,,,,,,,,,,,,,11030,001,2024_Jan_11_0835,nback,2021.2.3,60.0295585560789,
0-back,instructions\back-0.png,conditions\0back-p.xlsx,instructions\0-BACK.png,"(15, 8)",practice,0,3,stim\gray.png,stim\gray.png,stim\yellow.png,stim\gray.png,right,0,0,0,0,0,0,0,0,0,2,2,2,,,,,,,,,,,,,,,,,,,,,,,,,,,26.327091600047424,27.32964380015619,26.327091600047424,27.32964380015619,26.327091600047424,27.32964380015619,26.327091600047424,27.32964380015619,right,1,0.36619420000351965,26.327091600047424,None,26.327091600047424,None,26.327091600047424,26.827721000183374,26.327091600047424,26.827721000183374,26.327091600047424,26.827721000183374,26.327091600047424,26.827721000183374,26.327091600047424,None,,,,,,,,,,,,,,,,,,,,,,,,,,,,,,,,,,,,,,,,,,11030,001,2024_Jan_11_0835,nback,2021.2.3,60.0295585560789,
0-back,instructions\back-0.png,conditions\0back-p.xlsx,instructions\0-BACK.png,"(15, 8)",practice,0,4,stim\gray.png,stim\gray.png,stim\gray.png,stim\yellow.png,down,0,0,0,0,0,0,0,0,0,3,3,3,,,,,,,,,,,,,,,,,,,,,,,,,,,27.829308100044727,28.830724800005555,27.829308100044727,28.830724800005555,27.829308100044727,28.830724800005555,27.829308100044727,28.830724800005555,down,1,0.2555978000164032,27.829308100044727,None,27.829308100044727,None,27.829308100044727,28.33040129998699,27.829308100044727,28.33040129998699,27.829308100044727,28.33040129998699,27.829308100044727,28.33040129998699,27.829308100044727,None,,,,,,,,,,,,,,,,,,,,,,,,,,,,,,,,,,,,,,,,,,11030,001,2024_Jan_11_0835,nback,2021.2.3,60.0295585560789,
0-back,instructions\back-0.png,conditions\0back-p.xlsx,instructions\0-BACK.png,"(15, 8)",practice,0,2,stim\gray.png,stim\yellow.png,stim\gray.png,stim\gray.png,left,0,0,0,0,0,0,0,0,0,4,4,4,,,,,,,,,,,,,,,,,,,,,,,,,,,29.331359600182623,30.333431100007147,29.331359600182623,30.333431100007147,29.331359600182623,30.333431100007147,29.331359600182623,30.333431100007147,left,1,0.361555099952966,29.331359600182623,None,29.331359600182623,None,29.331359600182623,29.833896400174126,29.331359600182623,29.833896400174126,29.331359600182623,29.833896400174126,29.331359600182623,29.833896400174126,29.331359600182623,None,,,,,,,,,,,,,,,,,,,,,,,,,,,,,,,,,,,,,,,,,,11030,001,2024_Jan_11_0835,nback,2021.2.3,60.0295585560789,
0-back,instructions\back-0.png,conditions\0back-p.xlsx,instructions\0-BACK.png,"(15, 8)",practice,0,1,stim\yellow.png,stim\gray.png,stim\gray.png,stim\gray.png,up,0,0,0,0,0,0,0,0,0,5,5,5,,,,,,,,,,,,,,,,,,,,,,,,,,,30.833669300191104,31.835401500109583,30.833669300191104,31.835401500109583,30.833669300191104,31.835401500109583,30.833669300191104,31.835401500109583,up,1,0.3390885000117123,30.833669300191104,None,30.833669300191104,None,30.833669300191104,31.334653500001878,30.833669300191104,31.334653500001878,30.833669300191104,31.334653500001878,30.833669300191104,31.334653500001878,30.833669300191104,None,,,,,,,,,,,,,,,,,,,,,,,,,,,,,,,,,,,,,,,,,,11030,001,2024_Jan_11_0835,nback,2021.2.3,60.0295585560789,
0-back,instructions\back-0.png,conditions\0back-p.xlsx,instructions\0-BACK.png,"(15, 8)",practice,0,4,stim\gray.png,stim\gray.png,stim\gray.png,stim\yellow.png,down,0,0,0,0,0,0,0,0,0,6,6,6,,,,,,,,,,,,,,,,,,,,,,,,,,,32.33599090017378,33.33730710018426,32.33599090017378,33.33730710018426,32.33599090017378,33.33730710018426,32.33599090017378,33.33730710018426,down,1,0.5407461000140756,32.33599090017378,None,32.33599090017378,None,32.33599090017378,32.83716500014998,32.33599090017378,32.83716500014998,32.33599090017378,32.83716500014998,32.33599090017378,32.83716500014998,32.33599090017378,None,,,,,,,,,,,,,,,,,,,,,,,,,,,,,,,,,,,,,,,,,,11030,001,2024_Jan_11_0835,nback,2021.2.3,60.0295585560789,
0-back,instructions\back-0.png,conditions\0back-p.xlsx,instructions\0-BACK.png,"(15, 8)",practice,0,3,stim\gray.png,stim\gray.png,stim\yellow.png,stim\gray.png,right,0,0,0,0,0,0,0,0,0,7,7,7,,,,,,,,,,,,,,,,,,,,,,,,,,,33.821450100047514,34.82282800017856,33.821450100047514,34.82282800017856,33.821450100047514,34.82282800017856,33.821450100047514,34.82282800017856,right,1,0.3114161998964846,33.821450100047514,None,33.821450100047514,None,33.821450100047514,34.3222186001949,33.821450100047514,34.3222186001949,33.821450100047514,34.3222186001949,33.821450100047514,34.3222186001949,33.821450100047514,None,,,,,,,,,,,,,,,,,,,,,,,,,,,,,,,,,,,,,,,,,,11030,001,2024_Jan_11_0835,nback,2021.2.3,60.0295585560789,
0-back,instructions\back-0.png,conditions\0back-p.xlsx,instructions\0-BACK.png,"(15, 8)",practice,0,3,stim\gray.png,stim\gray.png,stim\yellow.png,stim\gray.png,right,0,0,0,0,0,0,0,0,0,8,8,8,,,,,,,,,,,,,,,,,,,,,,,,,,,35.32370920013636,36.32560970005579,35.32370920013636,36.32560970005579,35.32370920013636,36.32560970005579,35.32370920013636,36.32560970005579,right,1,0.3209818000905216,35.32370920013636,None,35.32370920013636,None,35.32370920013636,35.82480960013345,35.32370920013636,35.82480960013345,35.32370920013636,35.82480960013345,35.32370920013636,35.82480960013345,35.32370920013636,None,,,,,,,,,,,,,,,,,,,,,,,,,,,,,,,,,,,,,,,,,,11030,001,2024_Jan_11_0835,nback,2021.2.3,60.0295585560789,
0-back,instructions\back-0.png,conditions\0back-p.xlsx,instructions\0-BACK.png,"(15, 8)",practice,0,4,stim\gray.png,stim\gray.png,stim\gray.png,stim\yellow.png,down,0,0,0,0,0,0,0,0,0,9,9,9,,,,,,,,,,,,,,,,,,,,,,,,,,,36.825732400175184,37.828016200102866,36.825732400175184,37.828016200102866,36.825732400175184,37.828016200102866,36.825732400175184,37.828016200102866,down,1,0.3870473001152277,36.825732400175184,None,36.825732400175184,None,36.825732400175184,37.327407100005075,36.825732400175184,37.327407100005075,36.825732400175184,37.327407100005075,36.825732400175184,37.327407100005075,36.825732400175184,None,,,,,,,,,,,,,,,,,,,,,,,,,,,,,,,,,,,,,,,,,,11030,001,2024_Jan_11_0835,nback,2021.2.3,60.0295585560789,
0-back,instructions\back-0.png,conditions\0back-p.xlsx,instructions\0-BACK.png,"(15, 8)",practice,0,1,stim\yellow.png,stim\gray.png,stim\gray.png,stim\gray.png,up,0,0,0,0,0,0,0,0,0,10,10,10,,,,,,,,,,,,,,,,,,,,,,,,,,,38.32800450013019,39.3297762000002,38.32800450013019,39.3297762000002,38.32800450013019,39.3297762000002,38.32800450013019,39.3297762000002,up,1,0.31748059997335076,38.32800450013019,None,38.32800450013019,None,38.32800450013019,38.83032860001549,38.32800450013019,38.83032860001549,38.32800450013019,38.83032860001549,38.32800450013019,38.83032860001549,38.32800450013019,None,,,,,,,,,,,,,,,,,,,,,,,,,,,,,,,,,,,,,,,,,,11030,001,2024_Jan_11_0835,nback,2021.2.3,60.0295585560789,
0-back,instructions\back-0.png,conditions\0back-p.xlsx,instructions\0-BACK.png,"(15, 8)",practice,0,2,stim\gray.png,stim\yellow.png,stim\gray.png,stim\gray.png,left,0,0,0,0,0,0,0,0,0,11,11,11,,,,,,,,,,,,,,,,,,,,,,,,,,,39.831022900063545,40.831985200056806,39.831022900063545,40.831985200056806,39.831022900063545,40.831985200056806,39.831022900063545,40.831985200056806,left,1,0.2697208998724818,39.831022900063545,None,39.831022900063545,None,39.831022900063545,40.330910300137475,39.831022900063545,40.330910300137475,39.831022900063545,40.330910300137475,39.831022900063545,40.330910300137475,39.831022900063545,None,,,,,,,,,,,,,,,,,,,,,,,,,,,,,,,,,,,,,,,,,,11030,001,2024_Jan_11_0835,nback,2021.2.3,60.0295585560789,
0-back,instructions\back-0.png,conditions\0back-p.xlsx,instructions\0-BACK.png,"(15, 8)",practice,0,4,stim\gray.png,stim\gray.png,stim\gray.png,stim\yellow.png,down,0,0,0,0,0,0,0,0,0,12,12,12,,,,,,,,,,,,,,,,,,,,,,,,,,,41.33312189998105,42.33442930015735,41.33312189998105,42.33442930015735,41.33312189998105,42.33442930015735,41.33312189998105,42.33442930015735,down,1,0.5118750999681652,41.33312189998105,None,41.33312189998105,None,41.33312189998105,41.83357260003686,41.33312189998105,41.83357260003686,41.33312189998105,41.83357260003686,41.33312189998105,41.83357260003686,41.33312189998105,None,,,,,,,,,,,,,,,,,,,,,,,,,,,,,,,,,,,,,,,,,,11030,001,2024_Jan_11_0835,nback,2021.2.3,60.0295585560789,
0-back,instructions\back-0.png,conditions\0back-p.xlsx,instructions\0-BACK.png,"(15, 8)",practice,0,3,stim\gray.png,stim\gray.png,stim\yellow.png,stim\gray.png,right,0,0,0,0,0,0,0,0,0,13,13,13,,,,,,,,,,,,,,,,,,,,,,,,,,,42.83484970009886,43.836584500037134,42.83484970009886,43.836584500037134,42.83484970009886,43.836584500037134,42.83484970009886,43.836584500037134,right,1,0.31391209992580116,42.83484970009886,None,42.83484970009886,None,42.83484970009886,43.33569880016148,42.83484970009886,43.33569880016148,42.83484970009886,43.33569880016148,42.83484970009886,43.33569880016148,42.83484970009886,None,,,,,,,,,,,,,,,,,,,,,,,,,,,,,,,,,,,,,,,,,,11030,001,2024_Jan_11_0835,nback,2021.2.3,60.0295585560789,
0-back,instructions\back-0.png,conditions\0back-p.xlsx,instructions\0-BACK.png,"(15, 8)",practice,0,1,stim\yellow.png,stim\gray.png,stim\gray.png,stim\gray.png,up,0,0,0,0,0,0,0,0,0,14,14,14,,,,,,,,,,,,,,,,,,,,,,,,,,,44.32047830009833,45.32258220016956,44.32047830009833,45.32258220016956,44.32047830009833,45.32258220016956,44.32047830009833,45.32258220016956,up,1,0.26024030009284616,44.32047830009833,None,44.32047830009833,None,44.32047830009833,44.82189660007134,44.32047830009833,44.82189660007134,44.32047830009833,44.82189660007134,44.32047830009833,44.82189660007134,44.32047830009833,None,,,,,,,,,,,,,,,,,,,,,,,,,,,,,,,,,,,,,,,,,,11030,001,2024_Jan_11_0835,nback,2021.2.3,60.0295585560789,
0-back,instructions\back-0.png,conditions\0back-p.xlsx,instructions\0-BACK.png,"(15, 8)",practice,0,2,stim\gray.png,stim\yellow.png,stim\gray.png,stim\gray.png,left,0,0,0,0,0,0,0,0,0,15,15,15,,,,,,,,,,,,,,,,,,,,,,,,,,,45.822602100204676,46.82456530001946,45.822602100204676,46.82456530001946,45.822602100204676,46.82456530001946,45.822602100204676,46.82456530001946,left,1,0.262145500164479,45.822602100204676,None,45.822602100204676,None,45.822602100204676,46.32340420014225,45.822602100204676,46.32340420014225,45.822602100204676,46.32340420014225,45.822602100204676,46.32340420014225,45.822602100204676,None,,,,,,,,,,,,,,,,,,,,,,,,,,,,,,,,,,,,,,,,,,11030,001,2024_Jan_11_0835,nback,2021.2.3,60.0295585560789,
0-back,instructions\back-0.png,conditions\0back-p.xlsx,instructions\0-BACK.png,"(15, 8)",practice,0,3,stim\gray.png,stim\gray.png,stim\yellow.png,stim\gray.png,right,0,0,0,0,0,0,0,0,0,16,16,16,,,,,,,,,,,,,,,,,,,,,,,,,,,47.324907100060955,48.32630500011146,47.324907100060955,48.32630500011146,47.324907100060955,48.32630500011146,47.324907100060955,48.32630500011146,right,1,0.30391290015541017,47.324907100060955,None,47.324907100060955,None,47.324907100060955,47.82552200020291,47.324907100060955,47.82552200020291,47.324907100060955,47.82552200020291,47.324907100060955,47.82552200020291,47.324907100060955,None,,,,,,,,,,,,,,,,,,,,,,,,,,,,,,,,,,,,,,,,,,11030,001,2024_Jan_11_0835,nback,2021.2.3,60.0295585560789,
0-back,instructions\back-0.png,conditions\0back-p.xlsx,instructions\0-BACK.png,"(15, 8)",practice,0,1,stim\yellow.png,stim\gray.png,stim\gray.png,stim\gray.png,up,0,0,0,0,0,0,0,0,0,17,17,17,,,,,,,,,,,,,,,,,,,,,,,,,,,48.82697230018675,49.82860300014727,48.82697230018675,49.82860300014727,48.82697230018675,49.82860300014727,48.82697230018675,49.82860300014727,up,1,0.35395450005307794,48.82697230018675,None,48.82697230018675,None,48.82697230018675,49.327770100208,48.82697230018675,49.327770100208,48.82697230018675,49.327770100208,48.82697230018675,49.327770100208,48.82697230018675,None,,,,,,,,,,,,,,,,,,,,,,,,,,,,,,,,,,,,,,,,,,11030,001,2024_Jan_11_0835,nback,2021.2.3,60.0295585560789,
0-back,instructions\back-0.png,conditions\0back-p.xlsx,instructions\0-BACK.png,"(15, 8)",practice,0,4,stim\gray.png,stim\gray.png,stim\gray.png,stim\yellow.png,down,0,0,0,0,0,0,0,0,0,18,18,18,,,,,,,,,,,,,,,,,,,,,,,,,,,50.32937759999186,51.33052930003032,50.32937759999186,51.33052930003032,50.32937759999186,51.33052930003032,50.32937759999186,51.33052930003032,down,1,0.323866399936378,50.32937759999186,None,50.32937759999186,None,50.32937759999186,50.829803300090134,50.32937759999186,50.829803300090134,50.32937759999186,50.829803300090134,50.32937759999186,50.829803300090134,50.32937759999186,None,,,,,,,,,,,,,,,,,,,,,,,,,,,,,,,,,,,,,,,,,,11030,001,2024_Jan_11_0835,nback,2021.2.3,60.0295585560789,
0-back,instructions\back-0.png,conditions\0back-p.xlsx,instructions\0-BACK.png,"(15, 8)",practice,0,2,stim\gray.png,stim\yellow.png,stim\gray.png,stim\gray.png,left,0,0,0,0,0,0,0,0,0,19,19,19,,,,,,,,,,,,,,,,,,,,,,,,,,,51.83149400004186,52.83284210017882,51.83149400004186,52.83284210017882,51.83149400004186,52.83284210017882,51.83149400004186,52.83284210017882,left,1,0.31788129988126457,51.83149400004186,None,51.83149400004186,None,51.83149400004186,52.33301519998349,51.83149400004186,52.33301519998349,51.83149400004186,52.33301519998349,51.83149400004186,52.33301519998349,51.83149400004186,None,,,,,,,,,,,,,,,,,,,,,,,,,,,,,,,,,,,,,,,,,,11030,001,2024_Jan_11_0835,nback,2021.2.3,60.0295585560789,
0-back,instructions\back-0.png,conditions\0back-p.xlsx,instructions\0-BACK.png,"(15, 8)",,,,,,,,,0,0,0,0,0,0,0,0,,,,,,,,,,,,,,,,,,,,,,,,,,,,,,,,,,,,,,,,,,,,,,,,,,,,,,,,,,,,,,,,,,,,,,,,,,,,,,,,,,,,,,,,,,,,,,,,,11030,001,2024_Jan_11_0835,nback,2021.2.3,60.0295585560789,
1-back,instructions\back-1.png,conditions\1back-p.xlsx,instructions\1-BACK.png,"(25, 15)",practice,1,1,stim\yellow.png,stim\gray.png,stim\gray.png,stim\gray.png,None,0,0,0,0,0,1,1,1,0,0,0,0,,,,,,,,,,,,,,,,,53.46778660011478,None,space,3.272997099906206,53.46778660011478,None,56.87211980018765,61.38011230016127,61.34560060012154,None,61.79614690016024,62.79824050003663,61.79614690016024,62.79824050003663,61.79614690016024,62.79824050003663,61.79614690016024,62.79824050003663,None,1,,61.79614690016024,None,61.79614690016024,None,61.79614690016024,62.29785279999487,61.79614690016024,62.29785279999487,61.79614690016024,62.29785279999487,61.79614690016024,62.29785279999487,61.79614690016024,None,,,,,,,,,,,,,,,,,,,,,,,,,,,,,,,,,,,,,,,,,,11030,001,2024_Jan_11_0835,nback,2021.2.3,60.0295585560789,
1-back,instructions\back-1.png,conditions\1back-p.xlsx,instructions\1-BACK.png,"(25, 15)",practice,1,2,stim\gray.png,stim\yellow.png,stim\gray.png,stim\gray.png,up,0,0,0,0,0,1,1,1,0,1,1,1,,,,,,,,,,,,,,,,,,,,,,,,,,,63.281809700187296,64.28343900013715,63.281809700187296,64.28343900013715,63.281809700187296,64.28343900013715,63.281809700187296,64.28343900013715,up,1,0.48316820012405515,63.281809700187296,None,63.281809700187296,None,63.281809700187296,63.78322510002181,63.281809700187296,63.78322510002181,63.281809700187296,63.78322510002181,63.281809700187296,63.78322510002181,63.281809700187296,None,,,,,,,,,,,,,,,,,,,,,,,,,,,,,,,,,,,,,,,,,,11030,001,2024_Jan_11_0835,nback,2021.2.3,60.0295585560789,
1-back,instructions\back-1.png,conditions\1back-p.xlsx,instructions\1-BACK.png,"(25, 15)",practice,1,3,stim\gray.png,stim\gray.png,stim\yellow.png,stim\gray.png,left,0,0,0,0,0,1,1,1,0,2,2,2,,,,,,,,,,,,,,,,,,,,,,,,,,,64.7842920999974,65.78599440003745,64.7842920999974,65.78599440003745,64.7842920999974,65.78599440003745,64.7842920999974,65.78599440003745,left,1,0.3490471001714468,64.7842920999974,None,64.7842920999974,None,64.7842920999974,65.28509950009175,64.7842920999974,65.28509950009175,64.7842920999974,65.28509950009175,64.7842920999974,65.28509950009175,64.7842920999974,None,,,,,,,,,,,,,,,,,,,,,,,,,,,,,,,,,,,,,,,,,,11030,001,2024_Jan_11_0835,nback,2021.2.3,60.0295585560789,
1-back,instructions\back-1.png,conditions\1back-p.xlsx,instructions\1-BACK.png,"(25, 15)",practice,1,4,stim\gray.png,stim\gray.png,stim\gray.png,stim\yellow.png,right,0,0,0,0,0,1,1,1,0,3,3,3,,,,,,,,,,,,,,,,,,,,,,,,,,,66.2864678001497,67.28774990001693,66.2864678001497,67.28774990001693,66.2864678001497,67.28774990001693,66.2864678001497,67.28774990001693,right,1,0.27830540016293526,66.2864678001497,None,66.2864678001497,None,66.2864678001497,66.78698710002936,66.2864678001497,66.78698710002936,66.2864678001497,66.78698710002936,66.2864678001497,66.78698710002936,66.2864678001497,None,,,,,,,,,,,,,,,,,,,,,,,,,,,,,,,,,,,,,,,,,,11030,001,2024_Jan_11_0835,nback,2021.2.3,60.0295585560789,
1-back,instructions\back-1.png,conditions\1back-p.xlsx,instructions\1-BACK.png,"(25, 15)",practice,1,2,stim\gray.png,stim\yellow.png,stim\gray.png,stim\gray.png,down,0,0,0,0,0,1,1,1,0,4,4,4,,,,,,,,,,,,,,,,,,,,,,,,,,,67.7885008000303,68.79052330018021,67.7885008000303,68.79052330018021,67.7885008000303,68.79052330018021,67.7885008000303,68.79052330018021,down,1,0.28048519999720156,67.7885008000303,None,67.7885008000303,None,67.7885008000303,68.28930940013379,67.7885008000303,68.28930940013379,67.7885008000303,68.28930940013379,67.7885008000303,68.28930940013379,67.7885008000303,None,,,,,,,,,,,,,,,,,,,,,,,,,,,,,,,,,,,,,,,,,,11030,001,2024_Jan_11_0835,nback,2021.2.3,60.0295585560789,
1-back,instructions\back-1.png,conditions\1back-p.xlsx,instructions\1-BACK.png,"(25, 15)",practice,1,1,stim\yellow.png,stim\gray.png,stim\gray.png,stim\gray.png,left,0,0,0,0,0,1,1,1,0,5,5,5,,,,,,,,,,,,,,,,,,,,,,,,,,,69.29088810016401,70.29226860008202,69.29088810016401,70.29226860008202,69.29088810016401,70.29226860008202,69.29088810016401,70.29226860008202,left,1,0.22583410004153848,69.29088810016401,None,69.29088810016401,None,69.29088810016401,69.79154680017382,69.29088810016401,69.79154680017382,69.29088810016401,69.79154680017382,69.29088810016401,69.79154680017382,69.29088810016401,None,,,,,,,,,,,,,,,,,,,,,,,,,,,,,,,,,,,,,,,,,,11030,001,2024_Jan_11_0835,nback,2021.2.3,60.0295585560789,
1-back,instructions\back-1.png,conditions\1back-p.xlsx,instructions\1-BACK.png,"(25, 15)",practice,1,4,stim\gray.png,stim\gray.png,stim\gray.png,stim\yellow.png,up,0,0,0,0,0,1,1,1,0,6,6,6,,,,,,,,,,,,,,,,,,,,,,,,,,,70.77606120007113,71.77786450018175,70.77606120007113,71.77786450018175,70.77606120007113,71.77786450018175,70.77606120007113,71.77786450018175,up,1,0.2047943000216037,70.77606120007113,None,70.77606120007113,None,70.77606120007113,71.2770349001512,70.77606120007113,71.2770349001512,70.77606120007113,71.2770349001512,70.77606120007113,71.2770349001512,70.77606120007113,None,,,,,,,,,,,,,,,,,,,,,,,,,,,,,,,,,,,,,,,,,,11030,001,2024_Jan_11_0835,nback,2021.2.3,60.0295585560789,
1-back,instructions\back-1.png,conditions\1back-p.xlsx,instructions\1-BACK.png,"(25, 15)",practice,1,3,stim\gray.png,stim\gray.png,stim\yellow.png,stim\gray.png,down,0,0,0,0,0,1,1,1,0,7,7,7,,,,,,,,,,,,,,,,,,,,,,,,,,,72.27841240004636,73.28039770014584,72.27841240004636,73.28039770014584,72.27841240004636,73.28039770014584,72.27841240004636,73.28039770014584,down,1,0.20669990009628236,72.27841240004636,None,72.27841240004636,None,72.27841240004636,72.77986430004239,72.27841240004636,72.77986430004239,72.27841240004636,72.77986430004239,72.27841240004636,72.77986430004239,72.27841240004636,None,,,,,,,,,,,,,,,,,,,,,,,,,,,,,,,,,,,,,,,,,,11030,001,2024_Jan_11_0835,nback,2021.2.3,60.0295585560789,
1-back,instructions\back-1.png,conditions\1back-p.xlsx,instructions\1-BACK.png,"(25, 15)",practice,1,3,stim\gray.png,stim\gray.png,stim\yellow.png,stim\gray.png,right,0,0,0,0,0,1,1,1,0,8,8,8,,,,,,,,,,,,,,,,,,,,,,,,,,,73.78129990003072,74.78329340019263,73.78129990003072,74.78329340019263,73.78129990003072,74.78329340019263,73.78129990003072,74.78329340019263,right,1,0.1914888999890536,73.78129990003072,None,73.78129990003072,None,73.78129990003072,74.28207090008073,73.78129990003072,74.28207090008073,73.78129990003072,74.28207090008073,73.78129990003072,74.28207090008073,73.78129990003072,None,,,,,,,,,,,,,,,,,,,,,,,,,,,,,,,,,,,,,,,,,,11030,001,2024_Jan_11_0835,nback,2021.2.3,60.0295585560789,
1-back,instructions\back-1.png,conditions\1back-p.xlsx,instructions\1-BACK.png,"(25, 15)",practice,1,4,stim\gray.png,stim\gray.png,stim\gray.png,stim\yellow.png,right,0,0,0,0,0,1,1,1,0,9,9,9,,,,,,,,,,,,,,,,,,,,,,,,,,,75.28337990003638,76.28456200007349,75.28337990003638,76.28456200007349,75.28337990003638,76.28456200007349,75.28337990003638,76.28456200007349,right,1,0.2253467000555247,75.28337990003638,None,75.28337990003638,None,75.28337990003638,75.78367360006087,75.28337990003638,75.78367360006087,75.28337990003638,75.78367360006087,75.28337990003638,75.78367360006087,75.28337990003638,None,,,,,,,,,,,,,,,,,,,,,,,,,,,,,,,,,,,,,,,,,,11030,001,2024_Jan_11_0835,nback,2021.2.3,60.0295585560789,
1-back,instructions\back-1.png,conditions\1back-p.xlsx,instructions\1-BACK.png,"(25, 15)",practice,1,1,stim\yellow.png,stim\gray.png,stim\gray.png,stim\gray.png,down,0,0,0,0,0,1,1,1,0,10,10,10,,,,,,,,,,,,,,,,,,,,,,,,,,,76.78525680000894,77.78787780017592,76.78525680000894,77.78787780017592,76.78525680000894,77.78787780017592,76.78525680000894,77.78787780017592,down,1,0.17958740005269647,76.78525680000894,None,76.78525680000894,None,76.78525680000894,77.2858520001173,76.78525680000894,77.2858520001173,76.78525680000894,77.2858520001173,76.78525680000894,77.2858520001173,76.78525680000894,None,,,,,,,,,,,,,,,,,,,,,,,,,,,,,,,,,,,,,,,,,,11030,001,2024_Jan_11_0835,nback,2021.2.3,60.0295585560789,
1-back,instructions\back-1.png,conditions\1back-p.xlsx,instructions\1-BACK.png,"(25, 15)",practice,1,2,stim\gray.png,stim\yellow.png,stim\gray.png,stim\gray.png,up,0,0,0,0,0,1,1,1,0,11,11,11,,,,,,,,,,,,,,,,,,,,,,,,,,,78.28721139999107,79.28896100004204,78.28721139999107,79.28896100004204,78.28721139999107,79.28896100004204,78.28721139999107,79.28896100004204,up,1,0.1738886998500675,78.28721139999107,None,78.28721139999107,None,78.28721139999107,78.78862000000663,78.28721139999107,78.78862000000663,78.28721139999107,78.78862000000663,78.28721139999107,78.78862000000663,78.28721139999107,None,,,,,,,,,,,,,,,,,,,,,,,,,,,,,,,,,,,,,,,,,,11030,001,2024_Jan_11_0835,nback,2021.2.3,60.0295585560789,
1-back,instructions\back-1.png,conditions\1back-p.xlsx,instructions\1-BACK.png,"(25, 15)",practice,1,4,stim\gray.png,stim\gray.png,stim\gray.png,stim\yellow.png,left,0,0,0,0,0,1,1,1,0,12,12,12,,,,,,,,,,,,,,,,,,,,,,,,,,,79.78976750001311,80.79199569998309,79.78976750001311,80.79199569998309,79.78976750001311,80.79199569998309,79.78976750001311,80.79199569998309,down,0,1.375284800073132,79.78976750001311,None,79.78976750001311,None,79.78976750001311,80.29027200001292,79.78976750001311,80.29027200001292,79.78976750001311,80.29027200001292,79.78976750001311,80.29027200001292,79.78976750001311,None,,,,,,,,,,,,,,,,,,,,,,,,,,,,,,,,,,,,,,,,,,11030,001,2024_Jan_11_0835,nback,2021.2.3,60.0295585560789,
1-back,instructions\back-1.png,conditions\1back-p.xlsx,instructions\1-BACK.png,"(25, 15)",practice,1,3,stim\gray.png,stim\gray.png,stim\yellow.png,stim\gray.png,down,0,0,0,0,0,1,1,1,0,13,13,13,,,,,,,,,,,,,,,,,,,,,,,,,,,81.29227900016122,82.29356160014868,81.29227900016122,82.29356160014868,81.29227900016122,82.29356160014868,81.29227900016122,82.29356160014868,None,0,,81.29227900016122,None,81.29227900016122,None,81.29227900016122,81.79287140001543,81.29227900016122,81.79287140001543,81.29227900016122,81.79287140001543,81.29227900016122,81.79287140001543,81.29227900016122,None,,,,,,,,,,,,,,,,,,,,,,,,,,,,,,,,,,,,,,,,,,11030,001,2024_Jan_11_0835,nback,2021.2.3,60.0295585560789,
1-back,instructions\back-1.png,conditions\1back-p.xlsx,instructions\1-BACK.png,"(25, 15)",practice,1,1,stim\yellow.png,stim\gray.png,stim\gray.png,stim\gray.png,right,0,0,0,0,0,1,1,1,0,14,14,14,,,,,,,,,,,,,,,,,,,,,,,,,,,82.77785390010104,83.7792043001391,82.77785390010104,83.7792043001391,82.77785390010104,83.7792043001391,82.77785390010104,83.7792043001391,right,1,0.17900749994441867,82.77785390010104,None,82.77785390010104,None,82.77785390010104,83.28052360005677,82.77785390010104,83.28052360005677,82.77785390010104,83.28052360005677,82.77785390010104,83.28052360005677,82.77785390010104,None,,,,,,,,,,,,,,,,,,,,,,,,,,,,,,,,,,,,,,,,,,11030,001,2024_Jan_11_0835,nback,2021.2.3,60.0295585560789,
1-back,instructions\back-1.png,conditions\1back-p.xlsx,instructions\1-BACK.png,"(25, 15)",practice,1,2,stim\gray.png,stim\yellow.png,stim\gray.png,stim\gray.png,up,0,0,0,0,0,1,1,1,0,15,15,15,,,,,,,,,,,,,,,,,,,,,,,,,,,84.27964750002138,85.28180110012181,84.27964750002138,85.28180110012181,84.27964750002138,85.28180110012181,84.27964750002138,85.28180110012181,up,1,0.2136562999803573,84.27964750002138,None,84.27964750002138,None,84.27964750002138,84.7809934001416,84.27964750002138,84.7809934001416,84.27964750002138,84.7809934001416,84.27964750002138,84.7809934001416,84.27964750002138,None,,,,,,,,,,,,,,,,,,,,,,,,,,,,,,,,,,,,,,,,,,11030,001,2024_Jan_11_0835,nback,2021.2.3,60.0295585560789,
1-back,instructions\back-1.png,conditions\1back-p.xlsx,instructions\1-BACK.png,"(25, 15)",practice,1,3,stim\gray.png,stim\gray.png,stim\yellow.png,stim\gray.png,left,0,0,0,0,0,1,1,1,0,16,16,16,,,,,,,,,,,,,,,,,,,,,,,,,,,85.78183800005354,86.78334269998595,85.78183800005354,86.78334269998595,85.78183800005354,86.78334269998595,85.78183800005354,86.78334269998595,left,1,0.17482959991320968,85.78183800005354,None,85.78183800005354,None,85.78183800005354,86.28273550001904,85.78183800005354,86.28273550001904,85.78183800005354,86.28273550001904,85.78183800005354,86.28273550001904,85.78183800005354,None,,,,,,,,,,,,,,,,,,,,,,,,,,,,,,,,,,,,,,,,,,11030,001,2024_Jan_11_0835,nback,2021.2.3,60.0295585560789,
1-back,instructions\back-1.png,conditions\1back-p.xlsx,instructions\1-BACK.png,"(25, 15)",practice,1,1,stim\yellow.png,stim\gray.png,stim\gray.png,stim\gray.png,right,0,0,0,0,0,1,1,1,0,17,17,17,,,,,,,,,,,,,,,,,,,,,,,,,,,87.28389630001038,88.28555070003495,87.28389630001038,88.28555070003495,87.28389630001038,88.28555070003495,87.28389630001038,88.28555070003495,right,1,0.22535780002363026,87.28389630001038,None,87.28389630001038,None,87.28389630001038,87.78535050014034,87.28389630001038,87.78535050014034,87.28389630001038,87.78535050014034,87.28389630001038,87.78535050014034,87.28389630001038,None,,,,,,,,,,,,,,,,,,,,,,,,,,,,,,,,,,,,,,,,,,11030,001,2024_Jan_11_0835,nback,2021.2.3,60.0295585560789,
1-back,instructions\back-1.png,conditions\1back-p.xlsx,instructions\1-BACK.png,"(25, 15)",practice,1,4,stim\gray.png,stim\gray.png,stim\gray.png,stim\yellow.png,up,0,0,0,0,0,1,1,1,0,18,18,18,,,,,,,,,,,,,,,,,,,,,,,,,,,88.78694240003824,89.78782100020908,88.78694240003824,89.78782100020908,88.78694240003824,89.78782100020908,88.78694240003824,89.78782100020908,up,1,0.22585460008122027,88.78694240003824,None,88.78694240003824,None,88.78694240003824,89.28732240013778,88.78694240003824,89.28732240013778,88.78694240003824,89.28732240013778,88.78694240003824,89.28732240013778,88.78694240003824,None,,,,,,,,,,,,,,,,,,,,,,,,,,,,,,,,,,,,,,,,,,11030,001,2024_Jan_11_0835,nback,2021.2.3,60.0295585560789,
1-back,instructions\back-1.png,conditions\1back-p.xlsx,instructions\1-BACK.png,"(25, 15)",practice,1,2,stim\gray.png,stim\yellow.png,stim\gray.png,stim\gray.png,down,0,0,0,0,0,1,1,1,0,19,19,19,,,,,,,,,,,,,,,,,,,,,,,,,,,90.28847620007582,91.29080340010114,90.28847620007582,91.29080340010114,90.28847620007582,91.29080340010114,90.28847620007582,91.29080340010114,down,1,0.15705729997716844,90.28847620007582,None,90.28847620007582,None,90.28847620007582,90.79027500003576,90.28847620007582,90.79027500003576,90.28847620007582,90.79027500003576,90.28847620007582,90.79027500003576,90.28847620007582,None,,,,,,,,,,,,,,,,,,,,,,,,,,,,,,,,,,,,,,,,,,11030,001,2024_Jan_11_0835,nback,2021.2.3,60.0295585560789,
1-back,instructions\back-1.png,conditions\1back-p.xlsx,instructions\1-BACK.png,"(25, 15)",,,,,,,,,0,0,0,0,0,1,1,1,,,,,,,,,,,,,,,,,,,,,,,,,,,,,,,,,,,,,,,,,,,,,,,,,,,,,,,,,,,,,,,,,,,,,,,,,,,,,,,,,,,,,,,,,,,,,,,,,11030,001,2024_Jan_11_0835,nback,2021.2.3,60.0295585560789,
2-back,instructions\back-2.png,conditions\2back-p.xlsx,instructions\2-BACK.png,"(25, 15)",practice,2,1,stim\yellow.png,stim\gray.png,stim\gray.png,stim\gray.png,None,0,0,0,0,0,2,2,2,0,0,0,0,,,,,,,,,,,,,,,,,91.9411178000737,None,space,2.344263199949637,91.9411178000737,None,94.44463360006921,98.9518077999819,98.90131880016997,None,99.33622440020554,100.336775300093,99.33622440020554,100.336775300093,99.33622440020554,100.336775300093,99.33622440020554,100.336775300093,None,1,,99.33622440020554,None,99.33622440020554,None,99.33622440020554,99.83596810000017,99.33622440020554,99.83596810000017,99.33622440020554,99.83596810000017,99.33622440020554,99.83596810000017,99.33622440020554,None,,,,,,,,,,,,,,,,,,,,,,,,,,,,,,,,,,,,,,,,,,11030,001,2024_Jan_11_0835,nback,2021.2.3,60.0295585560789,
2-back,instructions\back-2.png,conditions\2back-p.xlsx,instructions\2-BACK.png,"(25, 15)",practice,2,2,stim\gray.png,stim\yellow.png,stim\gray.png,stim\gray.png,None,0,0,0,0,0,2,2,2,0,1,1,1,,,,,,,,,,,,,,,,,,,,,,,,,,,100.82080830004998,101.82231350010261,100.82080830004998,101.82231350010261,100.82080830004998,101.82231350010261,100.82080830004998,101.82231350010261,None,1,,100.82080830004998,None,100.82080830004998,None,100.82080830004998,101.3221456001047,100.82080830004998,101.3221456001047,100.82080830004998,101.3221456001047,100.82080830004998,101.3221456001047,100.82080830004998,None,,,,,,,,,,,,,,,,,,,,,,,,,,,,,,,,,,,,,,,,,,11030,001,2024_Jan_11_0835,nback,2021.2.3,60.0295585560789,
2-back,instructions\back-2.png,conditions\2back-p.xlsx,instructions\2-BACK.png,"(25, 15)",practice,2,3,stim\gray.png,stim\gray.png,stim\yellow.png,stim\gray.png,up,0,0,0,0,0,2,2,2,0,2,2,2,,,,,,,,,,,,,,,,,,,,,,,,,,,102.32296790019609,103.32467410014942,102.32296790019609,103.32467410014942,102.32296790019609,103.32467410014942,102.32296790019609,103.32467410014942,up,1,0.4180107999127358,102.32296790019609,None,102.32296790019609,None,102.32296790019609,102.82414990011603,102.32296790019609,102.82414990011603,102.32296790019609,102.82414990011603,102.32296790019609,102.82414990011603,102.32296790019609,None,,,,,,,,,,,,,,,,,,,,,,,,,,,,,,,,,,,,,,,,,,11030,001,2024_Jan_11_0835,nback,2021.2.3,60.0295585560789,
2-back,instructions\back-2.png,conditions\2back-p.xlsx,instructions\2-BACK.png,"(25, 15)",practice,2,4,stim\gray.png,stim\gray.png,stim\gray.png,stim\yellow.png,left,0,0,0,0,0,2,2,2,0,3,3,3,,,,,,,,,,,,,,,,,,,,,,,,,,,103.8253119001165,104.82684430014342,103.8253119001165,104.82684430014342,103.8253119001165,104.82684430014342,103.8253119001165,104.82684430014342,left,1,0.23607350001111627,103.8253119001165,None,103.8253119001165,None,103.8253119001165,104.32668100018054,103.8253119001165,104.32668100018054,103.8253119001165,104.32668100018054,103.8253119001165,104.32668100018054,103.8253119001165,None,,,,,,,,,,,,,,,,,,,,,,,,,,,,,,,,,,,,,,,,,,11030,001,2024_Jan_11_0835,nback,2021.2.3,60.0295585560789,
2-back,instructions\back-2.png,conditions\2back-p.xlsx,instructions\2-BACK.png,"(25, 15)",practice,2,2,stim\gray.png,stim\yellow.png,stim\gray.png,stim\gray.png,right,0,0,0,0,0,2,2,2,0,4,4,4,,,,,,,,,,,,,,,,,,,,,,,,,,,105.32782850018702,106.33030090015382,105.32782850018702,106.33030090015382,105.32782850018702,106.33030090015382,105.32782850018702,106.33030090015382,down,0,1.309061300009489,105.32782850018702,None,105.32782850018702,None,105.32782850018702,105.82807510020211,105.32782850018702,105.82807510020211,105.32782850018702,105.82807510020211,105.32782850018702,105.82807510020211,105.32782850018702,None,,,,,,,,,,,,,,,,,,,,,,,,,,,,,,,,,,,,,,,,,,11030,001,2024_Jan_11_0835,nback,2021.2.3,60.0295585560789,
2-back,instructions\back-2.png,conditions\2back-p.xlsx,instructions\2-BACK.png,"(25, 15)",practice,2,1,stim\yellow.png,stim\gray.png,stim\gray.png,stim\gray.png,down,0,0,0,0,0,2,2,2,0,5,5,5,,,,,,,,,,,,,,,,,,,,,,,,,,,106.82956840004772,107.83212810009718,106.82956840004772,107.83212810009718,106.82956840004772,107.83212810009718,106.82956840004772,107.83212810009718,left,0,1.3913378999568522,106.82956840004772,None,106.82956840004772,None,106.82956840004772,107.3303837000858,106.82956840004772,107.3303837000858,106.82956840004772,107.3303837000858,106.82956840004772,107.3303837000858,106.82956840004772,None,,,,,,,,,,,,,,,,,,,,,,,,,,,,,,,,,,,,,,,,,,11030,001,2024_Jan_11_0835,nback,2021.2.3,60.0295585560789,
2-back,instructions\back-2.png,conditions\2back-p.xlsx,instructions\2-BACK.png,"(25, 15)",practice,2,4,stim\gray.png,stim\gray.png,stim\gray.png,stim\yellow.png,left,0,0,0,0,0,2,2,2,0,6,6,6,,,,,,,,,,,,,,,,,,,,,,,,,,,108.31528590014204,109.31735370005481,108.31528590014204,109.31735370005481,108.31528590014204,109.31735370005481,108.31528590014204,109.31735370005481,up,0,1.2977628000080585,108.31528590014204,None,108.31528590014204,None,108.31528590014204,108.8160381000489,108.31528590014204,108.8160381000489,108.31528590014204,108.8160381000489,108.31528590014204,108.8160381000489,108.31528590014204,None,,,,,,,,,,,,,,,,,,,,,,,,,,,,,,,,,,,,,,,,,,11030,001,2024_Jan_11_0835,nback,2021.2.3,60.0295585560789,
2-back,instructions\back-2.png,conditions\2back-p.xlsx,instructions\2-BACK.png,"(25, 15)",practice,2,3,stim\gray.png,stim\gray.png,stim\yellow.png,stim\gray.png,up,0,0,0,0,0,2,2,2,0,7,7,7,,,,,,,,,,,,,,,,,,,,,,,,,,,109.81741940020584,110.81947660003789,109.81741940020584,110.81947660003789,109.81741940020584,110.81947660003789,109.81741940020584,110.81947660003789,None,0,,109.81741940020584,None,109.81741940020584,None,109.81741940020584,110.3182999000419,109.81741940020584,110.3182999000419,109.81741940020584,110.3182999000419,109.81741940020584,110.3182999000419,109.81741940020584,None,,,,,,,,,,,,,,,,,,,,,,,,,,,,,,,,,,,,,,,,,,11030,001,2024_Jan_11_0835,nback,2021.2.3,60.0295585560789,
2-back,instructions\back-2.png,conditions\2back-p.xlsx,instructions\2-BACK.png,"(25, 15)",practice,2,3,stim\gray.png,stim\gray.png,stim\yellow.png,stim\gray.png,down,0,0,0,0,0,2,2,2,0,8,8,8,,,,,,,,,,,,,,,,,,,,,,,,,,,111.31953360000625,112.32162700011395,111.31953360000625,112.32162700011395,111.31953360000625,112.32162700011395,111.31953360000625,112.32162700011395,right,0,0.3179762000218034,111.31953360000625,None,111.31953360000625,None,111.31953360000625,111.82073150016367,111.31953360000625,111.82073150016367,111.31953360000625,111.82073150016367,111.31953360000625,111.82073150016367,111.31953360000625,None,,,,,,,,,,,,,,,,,,,,,,,,,,,,,,,,,,,,,,,,,,11030,001,2024_Jan_11_0835,nback,2021.2.3,60.0295585560789,
2-back,instructions\back-2.png,conditions\2back-p.xlsx,instructions\2-BACK.png,"(25, 15)",practice,2,4,stim\gray.png,stim\gray.png,stim\gray.png,stim\yellow.png,right,0,0,0,0,0,2,2,2,0,9,9,9,,,,,,,,,,,,,,,,,,,,,,,,,,,112.82206959999166,113.82343910005875,112.82206959999166,113.82343910005875,112.82206959999166,113.82343910005875,112.82206959999166,113.82343910005875,right,1,0.7746514999307692,112.82206959999166,None,112.82206959999166,None,112.82206959999166,113.3224897000473,112.82206959999166,113.3224897000473,112.82206959999166,113.3224897000473,112.82206959999166,113.3224897000473,112.82206959999166,None,,,,,,,,,,,,,,,,,,,,,,,,,,,,,,,,,,,,,,,,,,11030,001,2024_Jan_11_0835,nback,2021.2.3,60.0295585560789,
2-back,instructions\back-2.png,conditions\2back-p.xlsx,instructions\2-BACK.png,"(25, 15)",practice,2,1,stim\yellow.png,stim\gray.png,stim\gray.png,stim\gray.png,right,0,0,0,0,0,2,2,2,0,10,10,10,,,,,,,,,,,,,,,,,,,,,,,,,,,114.32408250006847,115.32623940007761,114.32408250006847,115.32623940007761,114.32408250006847,115.32623940007761,114.32408250006847,115.32623940007761,up,0,0.8887740999925882,114.32408250006847,None,114.32408250006847,None,114.32408250006847,114.824884200003,114.32408250006847,114.824884200003,114.32408250006847,114.824884200003,114.32408250006847,114.824884200003,114.32408250006847,None,,,,,,,,,,,,,,,,,,,,,,,,,,,,,,,,,,,,,,,,,,11030,001,2024_Jan_11_0835,nback,2021.2.3,60.0295585560789,
2-back,instructions\back-2.png,conditions\2back-p.xlsx,instructions\2-BACK.png,"(25, 15)",practice,2,2,stim\gray.png,stim\yellow.png,stim\gray.png,stim\gray.png,down,0,0,0,0,0,2,2,2,0,11,11,11,,,,,,,,,,,,,,,,,,,,,,,,,,,115.82632160000503,116.82768370001577,115.82632160000503,116.82768370001577,115.82632160000503,116.82768370001577,115.82632160000503,116.82768370001577,down,1,1.0105064001400024,115.82632160000503,None,115.82632160000503,None,115.82632160000503,116.32713270001113,115.82632160000503,116.32713270001113,115.82632160000503,116.32713270001113,115.82632160000503,116.32713270001113,115.82632160000503,None,,,,,,,,,,,,,,,,,,,,,,,,,,,,,,,,,,,,,,,,,,11030,001,2024_Jan_11_0835,nback,2021.2.3,60.0295585560789,
2-back,instructions\back-2.png,conditions\2back-p.xlsx,instructions\2-BACK.png,"(25, 15)",practice,2,4,stim\gray.png,stim\gray.png,stim\gray.png,stim\yellow.png,up,0,0,0,0,0,2,2,2,0,12,12,12,,,,,,,,,,,,,,,,,,,,,,,,,,,117.32906100014225,118.33084180019796,117.32906100014225,118.33084180019796,117.32906100014225,118.33084180019796,117.32906100014225,118.33084180019796,up,1,0.6517035001888871,117.32906100014225,None,117.32906100014225,None,117.32906100014225,117.83007480017841,117.32906100014225,117.83007480017841,117.32906100014225,117.83007480017841,117.32906100014225,117.83007480017841,117.32906100014225,None,,,,,,,,,,,,,,,,,,,,,,,,,,,,,,,,,,,,,,,,,,11030,001,2024_Jan_11_0835,nback,2021.2.3,60.0295585560789,
2-back,instructions\back-2.png,conditions\2back-p.xlsx,instructions\2-BACK.png,"(25, 15)",practice,2,3,stim\gray.png,stim\gray.png,stim\yellow.png,stim\gray.png,left,0,0,0,0,0,2,2,2,0,13,13,13,,,,,,,,,,,,,,,,,,,,,,,,,,,118.81388040003367,119.81578840012662,118.81388040003367,119.81578840012662,118.81388040003367,119.81578840012662,118.81388040003367,119.81578840012662,left,1,0.5269598001614213,118.81388040003367,None,118.81388040003367,None,118.81388040003367,119.31496460014023,118.81388040003367,119.31496460014023,118.81388040003367,119.31496460014023,118.81388040003367,119.31496460014023,118.81388040003367,None,,,,,,,,,,,,,,,,,,,,,,,,,,,,,,,,,,,,,,,,,,11030,001,2024_Jan_11_0835,nback,2021.2.3,60.0295585560789,
2-back,instructions\back-2.png,conditions\2back-p.xlsx,instructions\2-BACK.png,"(25, 15)",practice,2,1,stim\yellow.png,stim\gray.png,stim\gray.png,stim\gray.png,down,0,0,0,0,0,2,2,2,0,14,14,14,,,,,,,,,,,,,,,,,,,,,,,,,,,120.31658390001394,121.31790880020708,120.31658390001394,121.31790880020708,120.31658390001394,121.31790880020708,120.31658390001394,121.31790880020708,down,1,0.5606862001586705,120.31658390001394,None,120.31658390001394,None,120.31658390001394,120.81779110012576,120.31658390001394,120.81779110012576,120.31658390001394,120.81779110012576,120.31658390001394,120.81779110012576,120.31658390001394,None,,,,,,,,,,,,,,,,,,,,,,,,,,,,,,,,,,,,,,,,,,11030,001,2024_Jan_11_0835,nback,2021.2.3,60.0295585560789,
2-back,instructions\back-2.png,conditions\2back-p.xlsx,instructions\2-BACK.png,"(25, 15)",practice,2,2,stim\gray.png,stim\yellow.png,stim\gray.png,stim\gray.png,right,0,0,0,0,0,2,2,2,0,15,15,15,,,,,,,,,,,,,,,,,,,,,,,,,,,121.81844970001839,122.82040430000052,121.81844970001839,122.82040430000052,121.81844970001839,122.82040430000052,121.81844970001839,122.82040430000052,right,1,0.41039140010252595,121.81844970001839,None,121.81844970001839,None,121.81844970001839,122.31935070012696,121.81844970001839,122.31935070012696,121.81844970001839,122.31935070012696,121.81844970001839,122.31935070012696,121.81844970001839,None,,,,,,,,,,,,,,,,,,,,,,,,,,,,,,,,,,,,,,,,,,11030,001,2024_Jan_11_0835,nback,2021.2.3,60.0295585560789,
2-back,instructions\back-2.png,conditions\2back-p.xlsx,instructions\2-BACK.png,"(25, 15)",practice,2,3,stim\gray.png,stim\gray.png,stim\yellow.png,stim\gray.png,up,0,0,0,0,0,2,2,2,0,16,16,16,,,,,,,,,,,,,,,,,,,,,,,,,,,123.32073120004497,124.32385420007631,123.32073120004497,124.32385420007631,123.32073120004497,124.32385420007631,123.32073120004497,124.32385420007631,up,1,0.3083216999657452,123.32073120004497,None,123.32073120004497,None,123.32073120004497,123.82212880020961,123.32073120004497,123.82212880020961,123.32073120004497,123.82212880020961,123.32073120004497,123.82212880020961,123.32073120004497,None,,,,,,,,,,,,,,,,,,,,,,,,,,,,,,,,,,,,,,,,,,11030,001,2024_Jan_11_0835,nback,2021.2.3,60.0295585560789,
2-back,instructions\back-2.png,conditions\2back-p.xlsx,instructions\2-BACK.png,"(25, 15)",practice,2,1,stim\yellow.png,stim\gray.png,stim\gray.png,stim\gray.png,left,0,0,0,0,0,2,2,2,0,17,17,17,,,,,,,,,,,,,,,,,,,,,,,,,,,124.82306630001403,125.82447910006158,124.82306630001403,125.82447910006158,124.82306630001403,125.82447910006158,124.82306630001403,125.82447910006158,None,0,,124.82306630001403,None,124.82306630001403,None,124.82306630001403,125.32427219999954,124.82306630001403,125.32427219999954,124.82306630001403,125.32427219999954,124.82306630001403,125.32427219999954,124.82306630001403,None,,,,,,,,,,,,,,,,,,,,,,,,,,,,,,,,,,,,,,,,,,11030,001,2024_Jan_11_0835,nback,2021.2.3,60.0295585560789,
2-back,instructions\back-2.png,conditions\2back-p.xlsx,instructions\2-BACK.png,"(25, 15)",practice,2,4,stim\gray.png,stim\gray.png,stim\gray.png,stim\yellow.png,right,0,0,0,0,0,2,2,2,0,18,18,18,,,,,,,,,,,,,,,,,,,,,,,,,,,126.32520110020414,127.32688529998995,126.32520110020414,127.32688529998995,126.32520110020414,127.32688529998995,126.32520110020414,127.32688529998995,right,1,0.37555429991334677,126.32520110020414,None,126.32520110020414,None,126.32520110020414,126.82602640008554,126.32520110020414,126.82602640008554,126.32520110020414,126.82602640008554,126.32520110020414,126.82602640008554,126.32520110020414,None,,,,,,,,,,,,,,,,,,,,,,,,,,,,,,,,,,,,,,,,,,11030,001,2024_Jan_11_0835,nback,2021.2.3,60.0295585560789,
2-back,instructions\back-2.png,conditions\2back-p.xlsx,instructions\2-BACK.png,"(25, 15)",practice,2,2,stim\gray.png,stim\yellow.png,stim\gray.png,stim\gray.png,up,0,0,0,0,0,2,2,2,0,19,19,19,,,,,,,,,,,,,,,,,,,,,,,,,,,127.82734620012343,128.8294758000411,127.82734620012343,128.8294758000411,127.82734620012343,128.8294758000411,127.82734620012343,128.8294758000411,up,1,0.2897107000462711,127.82734620012343,None,127.82734620012343,None,127.82734620012343,128.32823980017565,127.82734620012343,128.32823980017565,127.82734620012343,128.32823980017565,127.82734620012343,128.32823980017565,127.82734620012343,None,,,,,,,,,,,,,,,,,,,,,,,,,,,,,,,,,,,,,,,,,,11030,001,2024_Jan_11_0835,nback,2021.2.3,60.0295585560789,
2-back,instructions\back-2.png,conditions\2back-p.xlsx,instructions\2-BACK.png,"(25, 15)",,,,,,,,,0,0,0,0,0,2,2,2,,,,,,,,,,,,,,,,,,,,,,,,,,,,,,,,,,,,,,,,,,,,,,,,,,,,,,,,,,,,,,,,,,,,,,,,,,,,,,,,,,,,,,,,,,,,,,,,,11030,001,2024_Jan_11_0835,nback,2021.2.3,60.0295585560789,
,,,,,,,,,,,,,0,0,0,0,,,,,,,,,,,,,,,,,,,,,,,,,,,,,,,,,,,,,,,,,,,,,,,,,,,,,,,,,,,,129.32965239998884,None,space,5.251124300062656,129.32965239998884,None,,,,,,,,,,,,,,,,,,,,,,,,,,,,,,,,,,,,11030,001,2024_Jan_11_0835,nback,2021.2.3,60.0295585560789,
,,,,,,,,,,,,,,,,,,,,,,,,,,,,,,,,,,,,,,,,,,,,,,,,,,,,,,,,,,,,,,,,,,,,,,,,,,,,,,,,,,134.60395440016873,None,space,14.424908000044525,134.60395440016873,None,,,,,,,,,,,,,,,,,,,,,,,,,,,,,,11030,001,2024_Jan_11_0835,nback,2021.2.3,60.0295585560789,
2-back,instructions\back-2.png,conditions\24back-e.xlsx,,,experiment,2,1,stim\yellow.png,stim\gray.png,stim\gray.png,stim\gray.png,None,,,,,,,,,,,,,0,0,0,12,0,0,0,0,,,,,,,,,,,,,,,149.210019600112,153.7178443002049,153.68363730004057,None,,,,,,,,,,,,,,,,,,,,,,,,,,,,,,,,,,,,,,None,1,154.08292419998907,None,154.08292419998907,None,154.08292419998907,155.08507820009254,154.08292419998907,155.08507820009254,154.08292419998907,155.08507820009254,154.08292419998907,155.08507820009254,154.08292419998907,154.5845629000105,154.08292419998907,154.5845629000105,154.08292419998907,154.5845629000105,154.08292419998907,154.5845629000105,154.08292419998907,None,,,,,,11030,001,2024_Jan_11_0835,nback,2021.2.3,60.0295585560789,
2-back,instructions\back-2.png,conditions\24back-e.xlsx,,,experiment,2,2,stim\gray.png,stim\yellow.png,stim\gray.png,stim\gray.png,None,,,,,,,,,,,,,0,0,0,12,0,1,1,1,,,,,,,,,,,,,,,,,,,,,,,,,,,,,,,,,,,,,,,,,,,,,,,,,,,,,,,,None,1,155.56995150004514,None,155.56995150004514,None,155.56995150004514,156.57013330003247,155.56995150004514,156.57013330003247,155.56995150004514,156.57013330003247,155.56995150004514,156.57013330003247,155.56995150004514,156.0700592000503,155.56995150004514,156.0700592000503,155.56995150004514,156.0700592000503,155.56995150004514,156.0700592000503,155.56995150004514,None,,,,,,11030,001,2024_Jan_11_0835,nback,2021.2.3,60.0295585560789,
2-back,instructions\back-2.png,conditions\24back-e.xlsx,,,experiment,2,1,stim\yellow.png,stim\gray.png,stim\gray.png,stim\gray.png,up,,,,,,,,,,,,,0,0,0,12,0,2,2,2,,,,,,,,,,,,,,,,,,,,,,,,,,,,,,,,,,,,,,,,,,,,,,,,,,,,,,,,up,1,157.07108150003478,None,157.07108150003478,None,157.07108150003478,158.07303840015084,157.07108150003478,158.07303840015084,157.07108150003478,158.07303840015084,157.07108150003478,158.07303840015084,157.07108150003478,157.57257030019537,157.07108150003478,157.57257030019537,157.07108150003478,157.57257030019537,157.07108150003478,157.57257030019537,157.07108150003478,None,0.36647820007056,,,,,11030,001,2024_Jan_11_0835,nback,2021.2.3,60.0295585560789,
2-back,instructions\back-2.png,conditions\24back-e.xlsx,,,experiment,2,4,stim\gray.png,stim\gray.png,stim\gray.png,stim\yellow.png,left,,,,,,,,,,,,,0,0,0,12,0,3,3,3,,,,,,,,,,,,,,,,,,,,,,,,,,,,,,,,,,,,,,,,,,,,,,,,,,,,,,,,left,1,158.57307190005668,None,158.57307190005668,None,158.57307190005668,159.57518580020405,158.57307190005668,159.57518580020405,158.57307190005668,159.57518580020405,158.57307190005668,159.57518580020405,158.57307190005668,159.07379609998316,158.57307190005668,159.07379609998316,158.57307190005668,159.07379609998316,158.57307190005668,159.07379609998316,158.57307190005668,None,0.25619490002281964,,,,,11030,001,2024_Jan_11_0835,nback,2021.2.3,60.0295585560789,
2-back,instructions\back-2.png,conditions\24back-e.xlsx,,,experiment,2,3,stim\gray.png,stim\gray.png,stim\yellow.png,stim\gray.png,up,,,,,,,,,,,,,0,0,0,12,0,4,4,4,,,,,,,,,,,,,,,,,,,,,,,,,,,,,,,,,,,,,,,,,,,,,,,,,,,,,,,,up,1,160.07503860001452,None,160.07503860001452,None,160.07503860001452,161.0770198001992,160.07503860001452,161.0770198001992,160.07503860001452,161.0770198001992,160.07503860001452,161.0770198001992,160.07503860001452,160.57703470019624,160.07503860001452,160.57703470019624,160.07503860001452,160.57703470019624,160.07503860001452,160.57703470019624,160.07503860001452,None,0.21782470005564392,,,,,11030,001,2024_Jan_11_0835,nback,2021.2.3,60.0295585560789,
2-back,instructions\back-2.png,conditions\24back-e.xlsx,,,experiment,2,4,stim\gray.png,stim\gray.png,stim\gray.png,stim\yellow.png,down,,,,,,,,,,,,,0,0,0,12,0,5,5,5,,,,,,,,,,,,,,,,,,,,,,,,,,,,,,,,,,,,,,,,,,,,,,,,,,,,,,,,down,1,161.57805650006048,None,161.57805650006048,None,161.57805650006048,162.5793046001345,161.57805650006048,162.5793046001345,161.57805650006048,162.5793046001345,161.57805650006048,162.5793046001345,161.57805650006048,162.07824679999612,161.57805650006048,162.07824679999612,161.57805650006048,162.07824679999612,161.57805650006048,162.07824679999612,161.57805650006048,None,0.2588778000790626,,,,,11030,001,2024_Jan_11_0835,nback,2021.2.3,60.0295585560789,
2-back,instructions\back-2.png,conditions\24back-e.xlsx,,,experiment,2,3,stim\gray.png,stim\gray.png,stim\yellow.png,stim\gray.png,right,,,,,,,,,,,,,0,0,0,12,0,6,6,6,,,,,,,,,,,,,,,,,,,,,,,,,,,,,,,,,,,,,,,,,,,,,,,,,,,,,,,,right,1,163.062855000142,None,163.062855000142,None,163.062855000142,164.0644956000615,163.062855000142,164.0644956000615,163.062855000142,164.0644956000615,163.062855000142,164.0644956000615,163.062855000142,163.5634954001289,163.062855000142,163.5634954001289,163.062855000142,163.5634954001289,163.062855000142,163.5634954001289,163.062855000142,None,0.2627132998313755,,,,,11030,001,2024_Jan_11_0835,nback,2021.2.3,60.0295585560789,
2-back,instructions\back-2.png,conditions\24back-e.xlsx,,,experiment,2,2,stim\gray.png,stim\yellow.png,stim\gray.png,stim\gray.png,down,,,,,,,,,,,,,0,0,0,12,0,7,7,7,,,,,,,,,,,,,,,,,,,,,,,,,,,,,,,,,,,,,,,,,,,,,,,,,,,,,,,,down,1,164.56515210005455,None,164.56515210005455,None,164.56515210005455,165.56697100005113,164.56515210005455,165.56697100005113,164.56515210005455,165.56697100005113,164.56515210005455,165.56697100005113,164.56515210005455,165.06658020010218,164.56515210005455,165.06658020010218,164.56515210005455,165.06658020010218,164.56515210005455,165.06658020010218,164.56515210005455,None,0.21612980007193983,,,,,11030,001,2024_Jan_11_0835,nback,2021.2.3,60.0295585560789,
2-back,instructions\back-2.png,conditions\24back-e.xlsx,,,experiment,2,4,stim\gray.png,stim\gray.png,stim\gray.png,stim\yellow.png,right,,,,,,,,,,,,,0,0,0,12,0,8,8,8,,,,,,,,,,,,,,,,,,,,,,,,,,,,,,,,,,,,,,,,,,,,,,,,,,,,,,,,right,1,166.06751760002226,None,166.06751760002226,None,166.06751760002226,167.06895030010492,166.06751760002226,167.06895030010492,166.06751760002226,167.06895030010492,166.06751760002226,167.06895030010492,166.06751760002226,166.56867419998161,166.06751760002226,166.56867419998161,166.06751760002226,166.56867419998161,166.06751760002226,166.56867419998161,166.06751760002226,None,0.2181047999765724,,,,,11030,001,2024_Jan_11_0835,nback,2021.2.3,60.0295585560789,
2-back,instructions\back-2.png,conditions\24back-e.xlsx,,,experiment,2,1,stim\yellow.png,stim\gray.png,stim\gray.png,stim\gray.png,left,,,,,,,,,,,,,0,0,0,12,0,9,9,9,,,,,,,,,,,,,,,,,,,,,,,,,,,,,,,,,,,,,,,,,,,,,,,,,,,,,,,,left,1,167.5697038001381,None,167.5697038001381,None,167.5697038001381,168.57142670010217,167.5697038001381,168.57142670010217,167.5697038001381,168.57142670010217,167.5697038001381,168.57142670010217,167.5697038001381,168.07115920004435,167.5697038001381,168.07115920004435,167.5697038001381,168.07115920004435,167.5697038001381,168.07115920004435,167.5697038001381,None,0.24317180016078055,,,,,11030,001,2024_Jan_11_0835,nback,2021.2.3,60.0295585560789,
2-back,instructions\back-2.png,conditions\24back-e.xlsx,,,experiment,2,3,stim\gray.png,stim\gray.png,stim\yellow.png,stim\gray.png,down,,,,,,,,,,,,,0,0,0,12,0,10,10,10,,,,,,,,,,,,,,,,,,,,,,,,,,,,,,,,,,,,,,,,,,,,,,,,,,,,,,,,down,1,169.07170980004594,None,169.07170980004594,None,169.07170980004594,170.07386600016616,169.07170980004594,170.07386600016616,169.07170980004594,170.07386600016616,169.07170980004594,170.07386600016616,169.07170980004594,169.57345810020342,169.07170980004594,169.57345810020342,169.07170980004594,169.57345810020342,169.07170980004594,169.57345810020342,169.07170980004594,None,0.2530733000021428,,,,,11030,001,2024_Jan_11_0835,nback,2021.2.3,60.0295585560789,
2-back,instructions\back-2.png,conditions\24back-e.xlsx,,,experiment,2,1,stim\yellow.png,stim\gray.png,stim\gray.png,stim\gray.png,up,,,,,,,,,,,,,0,0,0,12,0,11,11,11,,,,,,,,,,,,,,,,,,,,,,,,,,,,,,,,,,,,,,,,,,,,,,,,,,,,,,,,up,1,170.57436299999245,None,170.57436299999245,None,170.57436299999245,171.57584580010734,170.57436299999245,171.57584580010734,170.57436299999245,171.57584580010734,170.57436299999245,171.57584580010734,170.57436299999245,171.0747546001803,170.57436299999245,171.0747546001803,170.57436299999245,171.0747546001803,170.57436299999245,171.0747546001803,170.57436299999245,None,0.19930620002560318,,,,,11030,001,2024_Jan_11_0835,nback,2021.2.3,60.0295585560789,
2-back,instructions\back-2.png,conditions\24back-e.xlsx,,,experiment,2,2,stim\gray.png,stim\yellow.png,stim\gray.png,stim\gray.png,right,,,,,,,,,,,,,0,0,0,12,0,12,12,12,,,,,,,,,,,,,,,,,,,,,,,,,,,,,,,,,,,,,,,,,,,,,,,,,,,,,,,,right,1,172.07645060005598,None,172.07645060005598,None,172.07645060005598,173.0778946999926,172.07645060005598,173.0778946999926,172.07645060005598,173.0778946999926,172.07645060005598,173.0778946999926,172.07645060005598,172.57697930000722,172.07645060005598,172.57697930000722,172.07645060005598,172.57697930000722,172.07645060005598,172.57697930000722,172.07645060005598,None,0.1363182000350207,,,,,11030,001,2024_Jan_11_0835,nback,2021.2.3,60.0295585560789,
2-back,instructions\back-2.png,conditions\24back-e.xlsx,,,experiment,2,4,stim\gray.png,stim\gray.png,stim\gray.png,stim\yellow.png,up,,,,,,,,,,,,,0,0,0,12,0,13,13,13,,,,,,,,,,,,,,,,,,,,,,,,,,,,,,,,,,,,,,,,,,,,,,,,,,,,,,,,up,1,173.56230740016326,None,173.56230740016326,None,173.56230740016326,174.56401189998724,173.56230740016326,174.56401189998724,173.56230740016326,174.56401189998724,173.56230740016326,174.56401189998724,173.56230740016326,174.06252060015686,173.56230740016326,174.06252060015686,173.56230740016326,174.06252060015686,173.56230740016326,174.06252060015686,173.56230740016326,None,0.026631100103259087,,,,,11030,001,2024_Jan_11_0835,nback,2021.2.3,60.0295585560789,
2-back,instructions\back-2.png,conditions\24back-e.xlsx,,,experiment,2,3,stim\gray.png,stim\gray.png,stim\yellow.png,stim\gray.png,left,,,,,,,,,,,,,0,0,0,12,0,14,14,14,,,,,,,,,,,,,,,,,,,,,,,,,,,,,,,,,,,,,,,,,,,,,,,,,,,,,,,,left,1,175.0641846000217,None,175.0641846000217,None,175.0641846000217,176.06596869998612,175.0641846000217,176.06596869998612,175.0641846000217,176.06596869998612,175.0641846000217,176.06596869998612,175.0641846000217,175.56490270001814,175.0641846000217,175.56490270001814,175.0641846000217,175.56490270001814,175.0641846000217,175.56490270001814,175.0641846000217,None,0.22865480021573603,,,,,11030,001,2024_Jan_11_0835,nback,2021.2.3,60.0295585560789,
2-back,instructions\back-2.png,conditions\24back-e.xlsx,,,experiment,2,2,stim\gray.png,stim\yellow.png,stim\gray.png,stim\gray.png,down,,,,,,,,,,,,,0,0,0,12,0,15,15,15,,,,,,,,,,,,,,,,,,,,,,,,,,,,,,,,,,,,,,,,,,,,,,,,,,,,,,,,down,1,176.5668707001023,None,176.5668707001023,None,176.5668707001023,177.56817770004272,176.5668707001023,177.56817770004272,176.5668707001023,177.56817770004272,176.5668707001023,177.56817770004272,176.5668707001023,177.06787670007907,176.5668707001023,177.06787670007907,176.5668707001023,177.06787670007907,176.5668707001023,177.06787670007907,176.5668707001023,None,0.24600060004740953,,,,,11030,001,2024_Jan_11_0835,nback,2021.2.3,60.0295585560789,
2-back,instructions\back-2.png,conditions\24back-e.xlsx,,,experiment,2,4,stim\gray.png,stim\gray.png,stim\gray.png,stim\yellow.png,right,,,,,,,,,,,,,0,0,0,12,0,16,16,16,,,,,,,,,,,,,,,,,,,,,,,,,,,,,,,,,,,,,,,,,,,,,,,,,,,,,,,,right,1,178.06832820014097,None,178.06832820014097,None,178.06832820014097,179.07013730006292,178.06832820014097,179.07013730006292,178.06832820014097,179.07013730006292,178.06832820014097,179.07013730006292,178.06832820014097,178.57046460011043,178.06832820014097,178.57046460011043,178.06832820014097,178.57046460011043,178.06832820014097,178.57046460011043,178.06832820014097,None,0.2407847000285983,,,,,11030,001,2024_Jan_11_0835,nback,2021.2.3,60.0295585560789,
2-back,instructions\back-2.png,conditions\24back-e.xlsx,,,experiment,2,3,stim\gray.png,stim\gray.png,stim\yellow.png,stim\gray.png,left,,,,,,,,,,,,,0,0,0,12,0,17,17,17,,,,,,,,,,,,,,,,,,,,,,,,,,,,,,,,,,,,,,,,,,,,,,,,,,,,,,,,left,1,179.57073949999176,None,179.57073949999176,None,179.57073949999176,180.57231720001437,179.57073949999176,180.57231720001437,179.57073949999176,180.57231720001437,179.57073949999176,180.57231720001437,179.57073949999176,180.07173900003545,179.57073949999176,180.07173900003545,179.57073949999176,180.07173900003545,179.57073949999176,180.07173900003545,179.57073949999176,None,0.25824819994159043,,,,,11030,001,2024_Jan_11_0835,nback,2021.2.3,60.0295585560789,
2-back,instructions\back-2.png,conditions\24back-e.xlsx,,,experiment,2,1,stim\yellow.png,stim\gray.png,stim\gray.png,stim\gray.png,down,,,,,,,,,,,,,0,0,0,12,0,18,18,18,,,,,,,,,,,,,,,,,,,,,,,,,,,,,,,,,,,,,,,,,,,,,,,,,,,,,,,,down,1,181.07288810005412,None,181.07288810005412,None,181.07288810005412,182.07529000006616,181.07288810005412,182.07529000006616,181.07288810005412,182.07529000006616,181.07288810005412,182.07529000006616,181.07288810005412,181.57389230001718,181.07288810005412,181.57389230001718,181.07288810005412,181.57389230001718,181.07288810005412,181.57389230001718,181.07288810005412,None,0.2520254000555724,,,,,11030,001,2024_Jan_11_0835,nback,2021.2.3,60.0295585560789,
2-back,instructions\back-2.png,conditions\24back-e.xlsx,,,experiment,2,2,stim\gray.png,stim\yellow.png,stim\gray.png,stim\gray.png,right,,,,,,,,,,,,,0,0,0,12,0,19,19,19,,,,,,,,,,,,,,,,,,,,,,,,,,,,,,,,,,,,,,,,,,,,,,,,,,,,,,,,right,1,182.5752524000127,None,182.5752524000127,None,182.5752524000127,183.57726200018078,182.5752524000127,183.57726200018078,182.5752524000127,183.57726200018078,182.5752524000127,183.57726200018078,182.5752524000127,183.07689060014673,182.5752524000127,183.07689060014673,182.5752524000127,183.07689060014673,182.5752524000127,183.07689060014673,182.5752524000127,None,0.21388159994967282,,,,,11030,001,2024_Jan_11_0835,nback,2021.2.3,60.0295585560789,
2-back,instructions\back-2.png,conditions\24back-e.xlsx,,,,,,,,,,,,,,,,,,,,,,,0,0,0,12,,,,,,,,,,,,,,,,,,,,,,,,,,,,,,,,,,,,,,,,,,,,,,,,,,,,,,,,,,,,,,,,,,,,,,,,,,,,,,,,,,,,,184.07767350017093,None,,,11030,001,2024_Jan_11_0835,nback,2021.2.3,60.0295585560789,
1-back,instructions\back-1.png,conditions\14back-e.xlsx,,,experiment,1,3,stim\gray.png,stim\gray.png,stim\yellow.png,stim\gray.png,None,,,,,,,,,,,,,0,1,1,14,0,0,0,0,,,,,,,,,,,,,,,185.19645390007645,189.7040262001101,189.65348910004832,None,,,,,,,,,,,,,,,,,,,,,,,,,,,,,,,,,,,,,,None,1,190.08689100015908,None,190.08689100015908,None,190.08689100015908,191.08859720011242,190.08689100015908,191.08859720011242,190.08689100015908,191.08859720011242,190.08689100015908,191.08859720011242,190.08689100015908,190.58737490000203,190.08689100015908,190.58737490000203,190.08689100015908,190.58737490000203,190.08689100015908,190.58737490000203,190.08689100015908,None,,,,,,11030,001,2024_Jan_11_0835,nback,2021.2.3,60.0295585560789,
1-back,instructions\back-1.png,conditions\14back-e.xlsx,,,experiment,1,2,stim\gray.png,stim\yellow.png,stim\gray.png,stim\gray.png,right,,,,,,,,,,,,,0,1,1,14,0,1,1,1,,,,,,,,,,,,,,,,,,,,,,,,,,,,,,,,,,,,,,,,,,,,,,,,,,,,,,,,right,1,191.5723262000829,None,191.5723262000829,None,191.5723262000829,192.5739510001149,191.5723262000829,192.5739510001149,191.5723262000829,192.5739510001149,191.5723262000829,192.5739510001149,191.5723262000829,192.07275580009446,191.5723262000829,192.07275580009446,191.5723262000829,192.07275580009446,191.5723262000829,192.07275580009446,191.5723262000829,None,0.4645700000692159,,,,,11030,001,2024_Jan_11_0835,nback,2021.2.3,60.0295585560789,
1-back,instructions\back-1.png,conditions\14back-e.xlsx,,,experiment,1,3,stim\gray.png,stim\gray.png,stim\yellow.png,stim\gray.png,left,,,,,,,,,,,,,0,1,1,14,0,2,2,2,,,,,,,,,,,,,,,,,,,,,,,,,,,,,,,,,,,,,,,,,,,,,,,,,,,,,,,,left,1,193.07421430014074,None,193.07421430014074,None,193.07421430014074,194.0761880001519,193.07421430014074,194.0761880001519,193.07421430014074,194.0761880001519,193.07421430014074,194.0761880001519,193.07421430014074,193.5748589001596,193.07421430014074,193.5748589001596,193.07421430014074,193.5748589001596,193.07421430014074,193.5748589001596,193.07421430014074,None,0.25876749982126057,,,,,11030,001,2024_Jan_11_0835,nback,2021.2.3,60.0295585560789,
1-back,instructions\back-1.png,conditions\14back-e.xlsx,,,experiment,1,1,stim\yellow.png,stim\gray.png,stim\gray.png,stim\gray.png,right,,,,,,,,,,,,,0,1,1,14,0,3,3,3,,,,,,,,,,,,,,,,,,,,,,,,,,,,,,,,,,,,,,,,,,,,,,,,,,,,,,,,right,1,194.57622020016424,None,194.57622020016424,None,194.57622020016424,195.5778899001889,194.57622020016424,195.5778899001889,194.57622020016424,195.5778899001889,194.57622020016424,195.5778899001889,194.57622020016424,195.0776459001936,194.57622020016424,195.0776459001936,194.57622020016424,195.0776459001936,194.57622020016424,195.0776459001936,194.57622020016424,None,0.21276480006054044,,,,,11030,001,2024_Jan_11_0835,nback,2021.2.3,60.0295585560789,
1-back,instructions\back-1.png,conditions\14back-e.xlsx,,,experiment,1,2,stim\gray.png,stim\yellow.png,stim\gray.png,stim\gray.png,up,,,,,,,,,,,,,0,1,1,14,0,4,4,4,,,,,,,,,,,,,,,,,,,,,,,,,,,,,,,,,,,,,,,,,,,,,,,,,,,,,,,,up,1,196.06179930013604,None,196.06179930013604,None,196.06179930013604,197.06342870020308,196.06179930013604,197.06342870020308,196.06179930013604,197.06342870020308,196.06179930013604,197.06342870020308,196.06179930013604,196.56362200016156,196.06179930013604,196.56362200016156,196.06179930013604,196.56362200016156,196.06179930013604,196.56362200016156,196.06179930013604,None,0.22314350004307926,,,,,11030,001,2024_Jan_11_0835,nback,2021.2.3,60.0295585560789,
1-back,instructions\back-1.png,conditions\14back-e.xlsx,,,experiment,1,4,stim\gray.png,stim\gray.png,stim\gray.png,stim\yellow.png,left,,,,,,,,,,,,,0,1,1,14,0,5,5,5,,,,,,,,,,,,,,,,,,,,,,,,,,,,,,,,,,,,,,,,,,,,,,,,,,,,,,,,left,1,197.564191600075,None,197.564191600075,None,197.564191600075,198.56601240020245,197.564191600075,198.56601240020245,197.564191600075,198.56601240020245,197.564191600075,198.56601240020245,197.564191600075,198.06486100004986,197.564191600075,198.06486100004986,197.564191600075,198.06486100004986,197.564191600075,198.06486100004986,197.564191600075,None,0.20876719988882542,,,,,11030,001,2024_Jan_11_0835,nback,2021.2.3,60.0295585560789,
1-back,instructions\back-1.png,conditions\14back-e.xlsx,,,experiment,1,3,stim\gray.png,stim\gray.png,stim\yellow.png,stim\gray.png,down,,,,,,,,,,,,,0,1,1,14,0,6,6,6,,,,,,,,,,,,,,,,,,,,,,,,,,,,,,,,,,,,,,,,,,,,,,,,,,,,,,,,down,1,199.06644040020183,None,199.06644040020183,None,199.06644040020183,200.0687855000142,199.06644040020183,200.0687855000142,199.06644040020183,200.0687855000142,199.06644040020183,200.0687855000142,199.06644040020183,199.5671594000887,199.06644040020183,199.5671594000887,199.06644040020183,199.5671594000887,199.06644040020183,199.5671594000887,199.06644040020183,None,0.27447449997998774,,,,,11030,001,2024_Jan_11_0835,nback,2021.2.3,60.0295585560789,
1-back,instructions\back-1.png,conditions\14back-e.xlsx,,,experiment,1,1,stim\yellow.png,stim\gray.png,stim\gray.png,stim\gray.png,right,,,,,,,,,,,,,0,1,1,14,0,7,7,7,,,,,,,,,,,,,,,,,,,,,,,,,,,,,,,,,,,,,,,,,,,,,,,,,,,,,,,,right,1,200.56863540015183,None,200.56863540015183,None,200.56863540015183,201.57051970018074,200.56863540015183,201.57051970018074,200.56863540015183,201.57051970018074,200.56863540015183,201.57051970018074,200.56863540015183,201.06953980005346,200.56863540015183,201.06953980005346,200.56863540015183,201.06953980005346,200.56863540015183,201.06953980005346,200.56863540015183,None,0.2286288000177592,,,,,11030,001,2024_Jan_11_0835,nback,2021.2.3,60.0295585560789,
1-back,instructions\back-1.png,conditions\14back-e.xlsx,,,experiment,1,3,stim\gray.png,stim\gray.png,stim\yellow.png,stim\gray.png,up,,,,,,,,,,,,,0,1,1,14,0,8,8,8,,,,,,,,,,,,,,,,,,,,,,,,,,,,,,,,,,,,,,,,,,,,,,,,,,,,,,,,up,1,202.07084659999236,None,202.07084659999236,None,202.07084659999236,203.0729823000729,202.07084659999236,203.0729823000729,202.07084659999236,203.0729823000729,202.07084659999236,203.0729823000729,202.07084659999236,202.57240980002098,202.07084659999236,202.57240980002098,202.07084659999236,202.57240980002098,202.07084659999236,202.57240980002098,202.07084659999236,None,0.21393480012193322,,,,,11030,001,2024_Jan_11_0835,nback,2021.2.3,60.0295585560789,
1-back,instructions\back-1.png,conditions\14back-e.xlsx,,,experiment,1,2,stim\gray.png,stim\yellow.png,stim\gray.png,stim\gray.png,right,,,,,,,,,,,,,0,1,1,14,0,9,9,9,,,,,,,,,,,,,,,,,,,,,,,,,,,,,,,,,,,,,,,,,,,,,,,,,,,,,,,,right,1,203.57292679999955,None,203.57292679999955,None,203.57292679999955,204.57531960005872,203.57292679999955,204.57531960005872,203.57292679999955,204.57531960005872,203.57292679999955,204.57531960005872,203.57292679999955,204.07365570007823,203.57292679999955,204.07365570007823,203.57292679999955,204.07365570007823,203.57292679999955,204.07365570007823,203.57292679999955,None,0.20823720004409552,,,,,11030,001,2024_Jan_11_0835,nback,2021.2.3,60.0295585560789,
1-back,instructions\back-1.png,conditions\14back-e.xlsx,,,experiment,1,4,stim\gray.png,stim\gray.png,stim\gray.png,stim\yellow.png,left,,,,,,,,,,,,,0,1,1,14,0,10,10,10,,,,,,,,,,,,,,,,,,,,,,,,,,,,,,,,,,,,,,,,,,,,,,,,,,,,,,,,left,1,205.07535010017455,None,205.07535010017455,None,205.07535010017455,206.07749980012886,205.07535010017455,206.07749980012886,205.07535010017455,206.07749980012886,205.07535010017455,206.07749980012886,205.07535010017455,205.5768385999836,205.07535010017455,205.5768385999836,205.07535010017455,205.5768385999836,205.07535010017455,205.5768385999836,205.07535010017455,None,0.21810330008156598,,,,,11030,001,2024_Jan_11_0835,nback,2021.2.3,60.0295585560789,
1-back,instructions\back-1.png,conditions\14back-e.xlsx,,,experiment,1,2,stim\gray.png,stim\yellow.png,stim\gray.png,stim\gray.png,down,,,,,,,,,,,,,0,1,1,14,0,11,11,11,,,,,,,,,,,,,,,,,,,,,,,,,,,,,,,,,,,,,,,,,,,,,,,,,,,,,,,,down,1,206.57744820020162,None,206.57744820020162,None,206.57744820020162,207.57952899998054,206.57744820020162,207.57952899998054,206.57744820020162,207.57952899998054,206.57744820020162,207.57952899998054,206.57744820020162,207.07900710008107,206.57744820020162,207.07900710008107,206.57744820020162,207.07900710008107,206.57744820020162,207.07900710008107,206.57744820020162,None,0.21141229989007115,,,,,11030,001,2024_Jan_11_0835,nback,2021.2.3,60.0295585560789,
1-back,instructions\back-1.png,conditions\14back-e.xlsx,,,experiment,1,4,stim\gray.png,stim\gray.png,stim\gray.png,stim\yellow.png,left,,,,,,,,,,,,,0,1,1,14,0,12,12,12,,,,,,,,,,,,,,,,,,,,,,,,,,,,,,,,,,,,,,,,,,,,,,,,,,,,,,,,left,1,208.0637111000251,None,208.0637111000251,None,208.0637111000251,209.06570120016113,208.0637111000251,209.06570120016113,208.0637111000251,209.06570120016113,208.0637111000251,209.06570120016113,208.0637111000251,208.56356260017492,208.0637111000251,208.56356260017492,208.0637111000251,208.56356260017492,208.0637111000251,208.56356260017492,208.0637111000251,None,0.13363119983114302,,,,,11030,001,2024_Jan_11_0835,nback,2021.2.3,60.0295585560789,
1-back,instructions\back-1.png,conditions\14back-e.xlsx,,,experiment,1,1,stim\yellow.png,stim\gray.png,stim\gray.png,stim\gray.png,down,,,,,,,,,,,,,0,1,1,14,0,13,13,13,,,,,,,,,,,,,,,,,,,,,,,,,,,,,,,,,,,,,,,,,,,,,,,,,,,,,,,,down,1,209.56546630011871,None,209.56546630011871,None,209.56546630011871,210.56886720005423,209.56546630011871,210.56886720005423,209.56546630011871,210.56886720005423,209.56546630011871,210.56886720005423,209.56546630011871,210.0659432001412,209.56546630011871,210.0659432001412,209.56546630011871,210.0659432001412,209.56546630011871,210.0659432001412,209.56546630011871,None,0.08013990009203553,,,,,11030,001,2024_Jan_11_0835,nback,2021.2.3,60.0295585560789,
1-back,instructions\back-1.png,conditions\14back-e.xlsx,,,experiment,1,1,stim\yellow.png,stim\gray.png,stim\gray.png,stim\gray.png,up,,,,,,,,,,,,,0,1,1,14,0,14,14,14,,,,,,,,,,,,,,,,,,,,,,,,,,,,,,,,,,,,,,,,,,,,,,,,,,,,,,,,up,1,211.0690668001771,None,211.0690668001771,None,211.0690668001771,212.06936650001444,211.0690668001771,212.06936650001444,211.0690668001771,212.06936650001444,211.0690668001771,212.06936650001444,211.0690668001771,211.56892530014738,211.0690668001771,211.56892530014738,211.0690668001771,211.56892530014738,211.0690668001771,211.56892530014738,211.0690668001771,None,1.3199783000163734,,,,,11030,001,2024_Jan_11_0835,nback,2021.2.3,60.0295585560789,
1-back,instructions\back-1.png,conditions\14back-e.xlsx,,,experiment,1,4,stim\gray.png,stim\gray.png,stim\gray.png,stim\yellow.png,up,,,,,,,,,,,,,0,1,1,14,0,15,15,15,,,,,,,,,,,,,,,,,,,,,,,,,,,,,,,,,,,,,,,,,,,,,,,,,,,,,,,,down,0,212.56963990000077,None,212.56963990000077,None,212.56963990000077,213.57154400018044,212.56963990000077,213.57154400018044,212.56963990000077,213.57154400018044,212.56963990000077,213.57154400018044,212.56963990000077,213.07041150005534,212.56963990000077,213.07041150005534,212.56963990000077,213.07041150005534,212.56963990000077,213.07041150005534,212.56963990000077,None,0.971457599895075,,,,,11030,001,2024_Jan_11_0835,nback,2021.2.3,60.0295585560789,
1-back,instructions\back-1.png,conditions\14back-e.xlsx,,,experiment,1,1,stim\yellow.png,stim\gray.png,stim\gray.png,stim\gray.png,down,,,,,,,,,,,,,0,1,1,14,0,16,16,16,,,,,,,,,,,,,,,,,,,,,,,,,,,,,,,,,,,,,,,,,,,,,,,,,,,,,,,,None,0,214.07193260011263,None,214.07193260011263,None,214.07193260011263,215.0739510001149,214.07193260011263,215.0739510001149,214.07193260011263,215.0739510001149,214.07193260011263,215.0739510001149,214.07193260011263,214.57269790000282,214.07193260011263,214.57269790000282,214.07193260011263,214.57269790000282,214.07193260011263,214.57269790000282,214.07193260011263,None,,,,,,11030,001,2024_Jan_11_0835,nback,2021.2.3,60.0295585560789,
1-back,instructions\back-1.png,conditions\14back-e.xlsx,,,experiment,1,3,stim\gray.png,stim\gray.png,stim\yellow.png,stim\gray.png,up,,,,,,,,,,,,,0,1,1,14,0,17,17,17,,,,,,,,,,,,,,,,,,,,,,,,,,,,,,,,,,,,,,,,,,,,,,,,,,,,,,,,up,1,215.5741417000536,None,215.5741417000536,None,215.5741417000536,216.57558870012872,215.5741417000536,216.57558870012872,215.5741417000536,216.57558870012872,215.5741417000536,216.57558870012872,215.5741417000536,216.074785400182,215.5741417000536,216.074785400182,215.5741417000536,216.074785400182,215.5741417000536,216.074785400182,215.5741417000536,None,0.4551470000296831,,,,,11030,001,2024_Jan_11_0835,nback,2021.2.3,60.0295585560789,
1-back,instructions\back-1.png,conditions\14back-e.xlsx,,,experiment,1,2,stim\gray.png,stim\yellow.png,stim\gray.png,stim\gray.png,right,,,,,,,,,,,,,0,1,1,14,0,18,18,18,,,,,,,,,,,,,,,,,,,,,,,,,,,,,,,,,,,,,,,,,,,,,,,,,,,,,,,,right,1,217.07614620006643,None,217.07614620006643,None,217.07614620006643,218.07806980004534,217.07614620006643,218.07806980004534,217.07614620006643,218.07806980004534,217.07614620006643,218.07806980004534,217.07614620006643,217.5770425000228,217.07614620006643,217.5770425000228,217.07614620006643,217.5770425000228,217.07614620006643,217.5770425000228,217.07614620006643,None,0.281294799875468,,,,,11030,001,2024_Jan_11_0835,nback,2021.2.3,60.0295585560789,
1-back,instructions\back-1.png,conditions\14back-e.xlsx,,,experiment,1,4,stim\gray.png,stim\gray.png,stim\gray.png,stim\yellow.png,left,,,,,,,,,,,,,0,1,1,14,0,19,19,19,,,,,,,,,,,,,,,,,,,,,,,,,,,,,,,,,,,,,,,,,,,,,,,,,,,,,,,,left,1,218.56172820017673,None,218.56172820017673,None,218.56172820017673,219.5633704001084,218.56172820017673,219.5633704001084,218.56172820017673,219.5633704001084,218.56172820017673,219.5633704001084,218.56172820017673,219.0634534000419,218.56172820017673,219.0634534000419,218.56172820017673,219.0634534000419,218.56172820017673,219.0634534000419,218.56172820017673,None,0.33135000010952353,,,,,11030,001,2024_Jan_11_0835,nback,2021.2.3,60.0295585560789,
1-back,instructions\back-1.png,conditions\14back-e.xlsx,,,,,,,,,,,,,,,,,,,,,,,0,1,1,14,,,,,,,,,,,,,,,,,,,,,,,,,,,,,,,,,,,,,,,,,,,,,,,,,,,,,,,,,,,,,,,,,,,,,,,,,,,,,,,,,,,,,220.06481290003285,None,,,11030,001,2024_Jan_11_0835,nback,2021.2.3,60.0295585560789,
0-back,instructions\back-0.png,conditions\03back-e.xlsx,,,experiment,0,1,stim\yellow.png,stim\gray.png,stim\gray.png,stim\gray.png,up,,,,,,,,,,,,,0,2,2,11,0,0,0,0,,,,,,,,,,,,,,,221.1822598001454,225.68921620002948,225.65576660004444,None,,,,,,,,,,,,,,,,,,,,,,,,,,,,,,,,,,,,,,up,1,226.09179059998132,None,226.09179059998132,None,226.09179059998132,227.09172770008445,226.09179059998132,227.09172770008445,226.09179059998132,227.09172770008445,226.09179059998132,227.09172770008445,226.09179059998132,226.60727770021185,226.09179059998132,226.60727770021185,226.09179059998132,226.60727770021185,226.09179059998132,226.60727770021185,226.09179059998132,None,0.3451623001601547,,,,,11030,001,2024_Jan_11_0835,nback,2021.2.3,60.0295585560789,
0-back,instructions\back-0.png,conditions\03back-e.xlsx,,,experiment,0,2,stim\gray.png,stim\yellow.png,stim\gray.png,stim\gray.png,left,,,,,,,,,,,,,0,2,2,11,0,1,1,1,,,,,,,,,,,,,,,,,,,,,,,,,,,,,,,,,,,,,,,,,,,,,,,,,,,,,,,,left,1,227.5751807000488,None,227.5751807000488,None,227.5751807000488,228.57841469999403,227.5751807000488,228.57841469999403,227.5751807000488,228.57841469999403,227.5751807000488,228.57841469999403,227.5751807000488,228.07665900001302,227.5751807000488,228.07665900001302,227.5751807000488,228.07665900001302,227.5751807000488,228.07665900001302,227.5751807000488,None,0.3505266001448035,,,,,11030,001,2024_Jan_11_0835,nback,2021.2.3,60.0295585560789,
0-back,instructions\back-0.png,conditions\03back-e.xlsx,,,experiment,0,4,stim\gray.png,stim\gray.png,stim\gray.png,stim\yellow.png,down,,,,,,,,,,,,,0,2,2,11,0,2,2,2,,,,,,,,,,,,,,,,,,,,,,,,,,,,,,,,,,,,,,,,,,,,,,,,,,,,,,,,down,1,229.07729030004703,None,229.07729030004703,None,229.07729030004703,230.07905790000223,229.07729030004703,230.07905790000223,229.07729030004703,230.07905790000223,229.07729030004703,230.07905790000223,229.07729030004703,229.5789990001358,229.07729030004703,229.5789990001358,229.07729030004703,229.5789990001358,229.07729030004703,229.5789990001358,229.07729030004703,None,0.4160277999471873,,,,,11030,001,2024_Jan_11_0835,nback,2021.2.3,60.0295585560789,
0-back,instructions\back-0.png,conditions\03back-e.xlsx,,,experiment,0,3,stim\gray.png,stim\gray.png,stim\yellow.png,stim\gray.png,right,,,,,,,,,,,,,0,2,2,11,0,3,3,3,,,,,,,,,,,,,,,,,,,,,,,,,,,,,,,,,,,,,,,,,,,,,,,,,,,,,,,,right,1,230.56299790018238,None,230.56299790018238,None,230.56299790018238,231.56525250012055,230.56299790018238,231.56525250012055,230.56299790018238,231.56525250012055,230.56299790018238,231.56525250012055,230.56299790018238,231.0642156000249,230.56299790018238,231.0642156000249,230.56299790018238,231.0642156000249,230.56299790018238,231.0642156000249,230.56299790018238,None,0.3144159000366926,,,,,11030,001,2024_Jan_11_0835,nback,2021.2.3,60.0295585560789,
0-back,instructions\back-0.png,conditions\03back-e.xlsx,,,experiment,0,3,stim\gray.png,stim\gray.png,stim\yellow.png,stim\gray.png,right,,,,,,,,,,,,,0,2,2,11,0,4,4,4,,,,,,,,,,,,,,,,,,,,,,,,,,,,,,,,,,,,,,,,,,,,,,,,,,,,,,,,right,1,232.06560020009056,None,232.06560020009056,None,232.06560020009056,233.0666782001499,232.06560020009056,233.0666782001499,232.06560020009056,233.0666782001499,232.06560020009056,233.0666782001499,232.06560020009056,232.56590470019728,232.06560020009056,232.56590470019728,232.06560020009056,232.56590470019728,232.06560020009056,232.56590470019728,232.06560020009056,None,0.33181130001321435,,,,,11030,001,2024_Jan_11_0835,nback,2021.2.3,60.0295585560789,
0-back,instructions\back-0.png,conditions\03back-e.xlsx,,,experiment,0,1,stim\yellow.png,stim\gray.png,stim\gray.png,stim\gray.png,up,,,,,,,,,,,,,0,2,2,11,0,5,5,5,,,,,,,,,,,,,,,,,,,,,,,,,,,,,,,,,,,,,,,,,,,,,,,,,,,,,,,,up,1,233.5674754001666,None,233.5674754001666,None,233.5674754001666,234.56891290005296,233.5674754001666,234.56891290005296,233.5674754001666,234.56891290005296,233.5674754001666,234.56891290005296,233.5674754001666,234.06822500005364,233.5674754001666,234.06822500005364,233.5674754001666,234.06822500005364,233.5674754001666,234.06822500005364,233.5674754001666,None,0.413659900194034,,,,,11030,001,2024_Jan_11_0835,nback,2021.2.3,60.0295585560789,
0-back,instructions\back-0.png,conditions\03back-e.xlsx,,,experiment,0,2,stim\gray.png,stim\yellow.png,stim\gray.png,stim\gray.png,left,,,,,,,,,,,,,0,2,2,11,0,6,6,6,,,,,,,,,,,,,,,,,,,,,,,,,,,,,,,,,,,,,,,,,,,,,,,,,,,,,,,,left,1,235.06974400021136,None,235.06974400021136,None,235.06974400021136,236.07323059998453,235.06974400021136,236.07323059998453,235.06974400021136,236.07323059998453,235.06974400021136,236.07323059998453,235.06974400021136,235.57082600006834,235.06974400021136,235.57082600006834,235.06974400021136,235.57082600006834,235.06974400021136,235.57082600006834,235.06974400021136,None,0.2634266000241041,,,,,11030,001,2024_Jan_11_0835,nback,2021.2.3,60.0295585560789,
0-back,instructions\back-0.png,conditions\03back-e.xlsx,,,experiment,0,3,stim\gray.png,stim\gray.png,stim\yellow.png,stim\gray.png,right,,,,,,,,,,,,,0,2,2,11,0,7,7,7,,,,,,,,,,,,,,,,,,,,,,,,,,,,,,,,,,,,,,,,,,,,,,,,,,,,,,,,right,1,236.5718082000967,None,236.5718082000967,None,236.5718082000967,237.57401510002092,236.5718082000967,237.57401510002092,236.5718082000967,237.57401510002092,236.5718082000967,237.57401510002092,236.5718082000967,237.07278140005656,236.5718082000967,237.07278140005656,236.5718082000967,237.07278140005656,236.5718082000967,237.07278140005656,236.5718082000967,None,0.305277599953115,,,,,11030,001,2024_Jan_11_0835,nback,2021.2.3,60.0295585560789,
0-back,instructions\back-0.png,conditions\03back-e.xlsx,,,experiment,0,4,stim\gray.png,stim\gray.png,stim\gray.png,stim\yellow.png,down,,,,,,,,,,,,,0,2,2,11,0,8,8,8,,,,,,,,,,,,,,,,,,,,,,,,,,,,,,,,,,,,,,,,,,,,,,,,,,,,,,,,down,1,238.07411620020866,None,238.07411620020866,None,238.07411620020866,239.0756326999981,238.07411620020866,239.0756326999981,238.07411620020866,239.0756326999981,238.07411620020866,239.0756326999981,238.07411620020866,238.57481950009242,238.07411620020866,238.57481950009242,238.07411620020866,238.57481950009242,238.07411620020866,238.57481950009242,238.07411620020866,None,0.2750425999984145,,,,,11030,001,2024_Jan_11_0835,nback,2021.2.3,60.0295585560789,
0-back,instructions\back-0.png,conditions\03back-e.xlsx,,,experiment,0,4,stim\gray.png,stim\gray.png,stim\gray.png,stim\yellow.png,down,,,,,,,,,,,,,0,2,2,11,0,9,9,9,,,,,,,,,,,,,,,,,,,,,,,,,,,,,,,,,,,,,,,,,,,,,,,,,,,,,,,,down,1,239.57639320008457,None,239.57639320008457,None,239.57639320008457,240.57866009999998,239.57639320008457,240.57866009999998,239.57639320008457,240.57866009999998,239.57639320008457,240.57866009999998,239.57639320008457,240.07716450002044,239.57639320008457,240.07716450002044,239.57639320008457,240.07716450002044,239.57639320008457,240.07716450002044,239.57639320008457,None,0.4212110999505967,,,,,11030,001,2024_Jan_11_0835,nback,2021.2.3,60.0295585560789,
0-back,instructions\back-0.png,conditions\03back-e.xlsx,,,experiment,0,1,stim\yellow.png,stim\gray.png,stim\gray.png,stim\gray.png,up,,,,,,,,,,,,,0,2,2,11,0,10,10,10,,,,,,,,,,,,,,,,,,,,,,,,,,,,,,,,,,,,,,,,,,,,,,,,,,,,,,,,up,1,241.0786940001417,None,241.0786940001417,None,241.0786940001417,242.0803343001753,241.0786940001417,242.0803343001753,241.0786940001417,242.0803343001753,241.0786940001417,242.0803343001753,241.0786940001417,241.5793126001954,241.0786940001417,241.5793126001954,241.0786940001417,241.5793126001954,241.0786940001417,241.5793126001954,241.0786940001417,None,0.3101810000371188,,,,,11030,001,2024_Jan_11_0835,nback,2021.2.3,60.0295585560789,
0-back,instructions\back-0.png,conditions\03back-e.xlsx,,,experiment,0,4,stim\gray.png,stim\gray.png,stim\gray.png,stim\yellow.png,down,,,,,,,,,,,,,0,2,2,11,0,11,11,11,,,,,,,,,,,,,,,,,,,,,,,,,,,,,,,,,,,,,,,,,,,,,,,,,,,,,,,,down,1,242.5641978001222,None,242.5641978001222,None,242.5641978001222,243.56547440006398,242.5641978001222,243.56547440006398,242.5641978001222,243.56547440006398,242.5641978001222,243.56547440006398,242.5641978001222,243.06729590008035,242.5641978001222,243.06729590008035,242.5641978001222,243.06729590008035,242.5641978001222,243.06729590008035,242.5641978001222,None,0.448966900119558,,,,,11030,001,2024_Jan_11_0835,nback,2021.2.3,60.0295585560789,
0-back,instructions\back-0.png,conditions\03back-e.xlsx,,,experiment,0,3,stim\gray.png,stim\gray.png,stim\yellow.png,stim\gray.png,right,,,,,,,,,,,,,0,2,2,11,0,12,12,12,,,,,,,,,,,,,,,,,,,,,,,,,,,,,,,,,,,,,,,,,,,,,,,,,,,,,,,,right,1,244.06643650005572,None,244.06643650005572,None,244.06643650005572,245.06782920006663,244.06643650005572,245.06782920006663,244.06643650005572,245.06782920006663,244.06643650005572,245.06782920006663,244.06643650005572,244.56740890000947,244.06643650005572,244.56740890000947,244.06643650005572,244.56740890000947,244.06643650005572,244.56740890000947,244.06643650005572,None,0.34676550002768636,,,,,11030,001,2024_Jan_11_0835,nback,2021.2.3,60.0295585560789,
0-back,instructions\back-0.png,conditions\03back-e.xlsx,,,experiment,0,1,stim\yellow.png,stim\gray.png,stim\gray.png,stim\gray.png,up,,,,,,,,,,,,,0,2,2,11,0,13,13,13,,,,,,,,,,,,,,,,,,,,,,,,,,,,,,,,,,,,,,,,,,,,,,,,,,,,,,,,up,1,245.56850540009327,None,245.56850540009327,None,245.56850540009327,246.57017399999313,245.56850540009327,246.57017399999313,245.56850540009327,246.57017399999313,245.56850540009327,246.57017399999313,245.56850540009327,246.0694842999801,245.56850540009327,246.0694842999801,245.56850540009327,246.0694842999801,245.56850540009327,246.0694842999801,245.56850540009327,None,0.3007840998470783,,,,,11030,001,2024_Jan_11_0835,nback,2021.2.3,60.0295585560789,
0-back,instructions\back-0.png,conditions\03back-e.xlsx,,,experiment,0,2,stim\gray.png,stim\yellow.png,stim\gray.png,stim\gray.png,left,,,,,,,,,,,,,0,2,2,11,0,14,14,14,,,,,,,,,,,,,,,,,,,,,,,,,,,,,,,,,,,,,,,,,,,,,,,,,,,,,,,,left,1,247.07190830004402,None,247.07190830004402,None,247.07190830004402,248.07243519998156,247.07190830004402,248.07243519998156,247.07190830004402,248.07243519998156,247.07190830004402,248.07243519998156,247.07190830004402,247.57198160002008,247.07190830004402,247.57198160002008,247.07190830004402,247.57198160002008,247.07190830004402,247.57198160002008,247.07190830004402,None,0.31691340007819235,,,,,11030,001,2024_Jan_11_0835,nback,2021.2.3,60.0295585560789,
0-back,instructions\back-0.png,conditions\03back-e.xlsx,,,experiment,0,1,stim\yellow.png,stim\gray.png,stim\gray.png,stim\gray.png,up,,,,,,,,,,,,,0,2,2,11,0,15,15,15,,,,,,,,,,,,,,,,,,,,,,,,,,,,,,,,,,,,,,,,,,,,,,,,,,,,,,,,up,1,248.5730038001202,None,248.5730038001202,None,248.5730038001202,249.57487990008667,248.5730038001202,249.57487990008667,248.5730038001202,249.57487990008667,248.5730038001202,249.57487990008667,248.5730038001202,249.07379460008815,248.5730038001202,249.07379460008815,248.5730038001202,249.07379460008815,248.5730038001202,249.07379460008815,248.5730038001202,None,0.3761688000522554,,,,,11030,001,2024_Jan_11_0835,nback,2021.2.3,60.0295585560789,
0-back,instructions\back-0.png,conditions\03back-e.xlsx,,,experiment,0,3,stim\gray.png,stim\gray.png,stim\yellow.png,stim\gray.png,right,,,,,,,,,,,,,0,2,2,11,0,16,16,16,,,,,,,,,,,,,,,,,,,,,,,,,,,,,,,,,,,,,,,,,,,,,,,,,,,,,,,,right,1,250.0758503000252,None,250.0758503000252,None,250.0758503000252,251.07701680017635,250.0758503000252,251.07701680017635,250.0758503000252,251.07701680017635,250.0758503000252,251.07701680017635,250.0758503000252,250.57662020018324,250.0758503000252,250.57662020018324,250.0758503000252,250.57662020018324,250.0758503000252,250.57662020018324,250.0758503000252,None,0.3134830000344664,,,,,11030,001,2024_Jan_11_0835,nback,2021.2.3,60.0295585560789,
0-back,instructions\back-0.png,conditions\03back-e.xlsx,,,experiment,0,4,stim\gray.png,stim\gray.png,stim\gray.png,stim\yellow.png,down,,,,,,,,,,,,,0,2,2,11,0,17,17,17,,,,,,,,,,,,,,,,,,,,,,,,,,,,,,,,,,,,,,,,,,,,,,,,,,,,,,,,down,1,251.57755090016872,None,251.57755090016872,None,251.57755090016872,252.5794614001643,251.57755090016872,252.5794614001643,251.57755090016872,252.5794614001643,251.57755090016872,252.5794614001643,251.57755090016872,252.07913210010156,251.57755090016872,252.07913210010156,251.57755090016872,252.07913210010156,251.57755090016872,252.07913210010156,251.57755090016872,None,0.32370930002070963,,,,,11030,001,2024_Jan_11_0835,nback,2021.2.3,60.0295585560789,
0-back,instructions\back-0.png,conditions\03back-e.xlsx,,,experiment,0,2,stim\gray.png,stim\yellow.png,stim\gray.png,stim\gray.png,left,,,,,,,,,,,,,0,2,2,11,0,18,18,18,,,,,,,,,,,,,,,,,,,,,,,,,,,,,,,,,,,,,,,,,,,,,,,,,,,,,,,,left,1,253.06309140007943,None,253.06309140007943,None,253.06309140007943,254.06478420016356,253.06309140007943,254.06478420016356,253.06309140007943,254.06478420016356,253.06309140007943,254.06478420016356,253.06309140007943,253.56404070020653,253.06309140007943,253.56404070020653,253.06309140007943,253.56404070020653,253.06309140007943,253.56404070020653,253.06309140007943,None,0.3260633999016136,,,,,11030,001,2024_Jan_11_0835,nback,2021.2.3,60.0295585560789,
0-back,instructions\back-0.png,conditions\03back-e.xlsx,,,experiment,0,2,stim\gray.png,stim\yellow.png,stim\gray.png,stim\gray.png,left,,,,,,,,,,,,,0,2,2,11,0,19,19,19,,,,,,,,,,,,,,,,,,,,,,,,,,,,,,,,,,,,,,,,,,,,,,,,,,,,,,,,left,1,254.56539620016702,None,254.56539620016702,None,254.56539620016702,255.56680480018258,254.56539620016702,255.56680480018258,254.56539620016702,255.56680480018258,254.56539620016702,255.56680480018258,254.56539620016702,255.0658495000098,254.56539620016702,255.0658495000098,254.56539620016702,255.0658495000098,254.56539620016702,255.0658495000098,254.56539620016702,None,0.3837221001740545,,,,,11030,001,2024_Jan_11_0835,nback,2021.2.3,60.0295585560789,
0-back,instructions\back-0.png,conditions\03back-e.xlsx,,,,,,,,,,,,,,,,,,,,,,,0,2,2,11,,,,,,,,,,,,,,,,,,,,,,,,,,,,,,,,,,,,,,,,,,,,,,,,,,,,,,,,,,,,,,,,,,,,,,,,,,,,,,,,,,,,,256.0674352000933,None,,,11030,001,2024_Jan_11_0835,nback,2021.2.3,60.0295585560789,
0-back,instructions\back-0.png,conditions\02back-e.xlsx,,,experiment,0,4,stim\gray.png,stim\gray.png,stim\gray.png,stim\yellow.png,down,,,,,,,,,,,,,0,3,3,7,0,0,0,0,,,,,,,,,,,,,,,257.16893650009297,261.6769575001672,261.64364740019664,None,,,,,,,,,,,,,,,,,,,,,,,,,,,,,,,,,,,,,,down,1,262.09398100012913,None,262.09398100012913,None,262.09398100012913,263.09604150010273,262.09398100012913,263.09604150010273,262.09398100012913,263.09604150010273,262.09398100012913,263.09604150010273,262.09398100012913,262.5938781001605,262.09398100012913,262.5938781001605,262.09398100012913,262.5938781001605,262.09398100012913,262.5938781001605,262.09398100012913,None,0.48703530011698604,,,,,11030,001,2024_Jan_11_0835,nback,2021.2.3,60.0295585560789,
0-back,instructions\back-0.png,conditions\02back-e.xlsx,,,experiment,0,2,stim\gray.png,stim\yellow.png,stim\gray.png,stim\gray.png,left,,,,,,,,,,,,,0,3,3,7,0,1,1,1,,,,,,,,,,,,,,,,,,,,,,,,,,,,,,,,,,,,,,,,,,,,,,,,,,,,,,,,left,1,263.56183970021084,None,263.56183970021084,None,263.56183970021084,264.5642224000767,263.56183970021084,264.5642224000767,263.56183970021084,264.5642224000767,263.56183970021084,264.5642224000767,263.56183970021084,264.06304660020396,263.56183970021084,264.06304660020396,263.56183970021084,264.06304660020396,263.56183970021084,264.06304660020396,263.56183970021084,None,0.33210100000724196,,,,,11030,001,2024_Jan_11_0835,nback,2021.2.3,60.0295585560789,
0-back,instructions\back-0.png,conditions\02back-e.xlsx,,,experiment,0,1,stim\yellow.png,stim\gray.png,stim\gray.png,stim\gray.png,up,,,,,,,,,,,,,0,3,3,7,0,2,2,2,,,,,,,,,,,,,,,,,,,,,,,,,,,,,,,,,,,,,,,,,,,,,,,,,,,,,,,,up,1,265.0642980001867,None,265.0642980001867,None,265.0642980001867,266.0657732000109,265.0642980001867,266.0657732000109,265.0642980001867,266.0657732000109,265.0642980001867,266.0657732000109,265.0642980001867,265.5656446001958,265.0642980001867,265.5656446001958,265.0642980001867,265.5656446001958,265.0642980001867,265.5656446001958,265.0642980001867,None,0.25277239992283285,,,,,11030,001,2024_Jan_11_0835,nback,2021.2.3,60.0295585560789,
0-back,instructions\back-0.png,conditions\02back-e.xlsx,,,experiment,0,2,stim\gray.png,stim\yellow.png,stim\gray.png,stim\gray.png,left,,,,,,,,,,,,,0,3,3,7,0,3,3,3,,,,,,,,,,,,,,,,,,,,,,,,,,,,,,,,,,,,,,,,,,,,,,,,,,,,,,,,left,1,266.5663856000174,None,266.5663856000174,None,266.5663856000174,267.5683718000073,266.5663856000174,267.5683718000073,266.5663856000174,267.5683718000073,266.5663856000174,267.5683718000073,266.5663856000174,267.06713470001705,266.5663856000174,267.06713470001705,266.5663856000174,267.06713470001705,266.5663856000174,267.06713470001705,266.5663856000174,None,0.36704530008137226,,,,,11030,001,2024_Jan_11_0835,nback,2021.2.3,60.0295585560789,
0-back,instructions\back-0.png,conditions\02back-e.xlsx,,,experiment,0,3,stim\gray.png,stim\gray.png,stim\yellow.png,stim\gray.png,right,,,,,,,,,,,,,0,3,3,7,0,4,4,4,,,,,,,,,,,,,,,,,,,,,,,,,,,,,,,,,,,,,,,,,,,,,,,,,,,,,,,,right,1,268.0685921001714,None,268.0685921001714,None,268.0685921001714,269.07021390018053,268.0685921001714,269.07021390018053,268.0685921001714,269.07021390018053,268.0685921001714,269.07021390018053,268.0685921001714,268.5694597000256,268.0685921001714,268.5694597000256,268.0685921001714,268.5694597000256,268.0685921001714,268.5694597000256,268.0685921001714,None,0.28846399998292327,,,,,11030,001,2024_Jan_11_0835,nback,2021.2.3,60.0295585560789,
0-back,instructions\back-0.png,conditions\02back-e.xlsx,,,experiment,0,1,stim\yellow.png,stim\gray.png,stim\gray.png,stim\gray.png,up,,,,,,,,,,,,,0,3,3,7,0,5,5,5,,,,,,,,,,,,,,,,,,,,,,,,,,,,,,,,,,,,,,,,,,,,,,,,,,,,,,,,up,1,269.5708388001658,None,269.5708388001658,None,269.5708388001658,270.5723322001286,269.5708388001658,270.5723322001286,269.5708388001658,270.5723322001286,269.5708388001658,270.5723322001286,269.5708388001658,270.072306800168,269.5708388001658,270.072306800168,269.5708388001658,270.072306800168,269.5708388001658,270.072306800168,269.5708388001658,None,0.2985529999714345,,,,,11030,001,2024_Jan_11_0835,nback,2021.2.3,60.0295585560789,
0-back,instructions\back-0.png,conditions\02back-e.xlsx,,,experiment,0,2,stim\gray.png,stim\yellow.png,stim\gray.png,stim\gray.png,left,,,,,,,,,,,,,0,3,3,7,0,6,6,6,,,,,,,,,,,,,,,,,,,,,,,,,,,,,,,,,,,,,,,,,,,,,,,,,,,,,,,,left,1,271.07307200017385,None,271.07307200017385,None,271.07307200017385,272.07535930001177,271.07307200017385,272.07535930001177,271.07307200017385,272.07535930001177,271.07307200017385,272.07535930001177,271.07307200017385,271.5750263000373,271.07307200017385,271.5750263000373,271.07307200017385,271.5750263000373,271.07307200017385,271.5750263000373,271.07307200017385,None,0.3322587001603097,,,,,11030,001,2024_Jan_11_0835,nback,2021.2.3,60.0295585560789,
0-back,instructions\back-0.png,conditions\02back-e.xlsx,,,experiment,0,3,stim\gray.png,stim\gray.png,stim\yellow.png,stim\gray.png,right,,,,,,,,,,,,,0,3,3,7,0,7,7,7,,,,,,,,,,,,,,,,,,,,,,,,,,,,,,,,,,,,,,,,,,,,,,,,,,,,,,,,right,1,272.5756142002065,None,272.5756142002065,None,272.5756142002065,273.57708660000935,272.5756142002065,273.57708660000935,272.5756142002065,273.57708660000935,272.5756142002065,273.57708660000935,272.5756142002065,273.0758311999962,272.5756142002065,273.0758311999962,272.5756142002065,273.0758311999962,272.5756142002065,273.0758311999962,272.5756142002065,None,0.3503834998700768,,,,,11030,001,2024_Jan_11_0835,nback,2021.2.3,60.0295585560789,
0-back,instructions\back-0.png,conditions\02back-e.xlsx,,,experiment,0,4,stim\gray.png,stim\gray.png,stim\gray.png,stim\yellow.png,down,,,,,,,,,,,,,0,3,3,7,0,8,8,8,,,,,,,,,,,,,,,,,,,,,,,,,,,,,,,,,,,,,,,,,,,,,,,,,,,,,,,,down,1,274.07768460013904,None,274.07768460013904,None,274.07768460013904,275.0798424000386,274.07768460013904,275.0798424000386,274.07768460013904,275.0798424000386,274.07768460013904,275.0798424000386,274.07768460013904,274.5782629000023,274.07768460013904,274.5782629000023,274.07768460013904,274.5782629000023,274.07768460013904,274.5782629000023,274.07768460013904,None,0.271407000022009,,,,,11030,001,2024_Jan_11_0835,nback,2021.2.3,60.0295585560789,
0-back,instructions\back-0.png,conditions\02back-e.xlsx,,,experiment,0,3,stim\gray.png,stim\gray.png,stim\yellow.png,stim\gray.png,right,,,,,,,,,,,,,0,3,3,7,0,9,9,9,,,,,,,,,,,,,,,,,,,,,,,,,,,,,,,,,,,,,,,,,,,,,,,,,,,,,,,,right,1,275.56369030009955,None,275.56369030009955,None,275.56369030009955,276.56444480014034,275.56369030009955,276.56444480014034,275.56369030009955,276.56444480014034,275.56369030009955,276.56444480014034,275.56369030009955,276.06414330005646,275.56369030009955,276.06414330005646,275.56369030009955,276.06414330005646,275.56369030009955,276.06414330005646,275.56369030009955,None,0.36144260014407337,,,,,11030,001,2024_Jan_11_0835,nback,2021.2.3,60.0295585560789,
0-back,instructions\back-0.png,conditions\02back-e.xlsx,,,experiment,0,1,stim\yellow.png,stim\gray.png,stim\gray.png,stim\gray.png,up,,,,,,,,,,,,,0,3,3,7,0,10,10,10,,,,,,,,,,,,,,,,,,,,,,,,,,,,,,,,,,,,,,,,,,,,,,,,,,,,,,,,up,1,277.0654347001109,None,277.0654347001109,None,277.0654347001109,278.067605700111,277.0654347001109,278.067605700111,277.0654347001109,278.067605700111,277.0654347001109,278.067605700111,277.0654347001109,277.56663720007055,277.0654347001109,277.56663720007055,277.0654347001109,277.56663720007055,277.0654347001109,277.56663720007055,277.0654347001109,None,0.2839822000823915,,,,,11030,001,2024_Jan_11_0835,nback,2021.2.3,60.0295585560789,
0-back,instructions\back-0.png,conditions\02back-e.xlsx,,,experiment,0,4,stim\gray.png,stim\gray.png,stim\gray.png,stim\yellow.png,down,,,,,,,,,,,,,0,3,3,7,0,11,11,11,,,,,,,,,,,,,,,,,,,,,,,,,,,,,,,,,,,,,,,,,,,,,,,,,,,,,,,,down,1,278.5670541001018,None,278.5670541001018,None,278.5670541001018,279.5690689000767,278.5670541001018,279.5690689000767,278.5670541001018,279.5690689000767,278.5670541001018,279.5690689000767,278.5670541001018,279.068376700161,278.5670541001018,279.068376700161,278.5670541001018,279.068376700161,278.5670541001018,279.068376700161,278.5670541001018,None,0.40610319981351495,,,,,11030,001,2024_Jan_11_0835,nback,2021.2.3,60.0295585560789,
0-back,instructions\back-0.png,conditions\02back-e.xlsx,,,experiment,0,3,stim\gray.png,stim\gray.png,stim\yellow.png,stim\gray.png,right,,,,,,,,,,,,,0,3,3,7,0,12,12,12,,,,,,,,,,,,,,,,,,,,,,,,,,,,,,,,,,,,,,,,,,,,,,,,,,,,,,,,right,1,280.06953460001387,None,280.06953460001387,None,280.06953460001387,281.071269400185,280.06953460001387,281.071269400185,280.06953460001387,281.071269400185,280.06953460001387,281.071269400185,280.06953460001387,280.57057090010494,280.06953460001387,280.57057090010494,280.06953460001387,280.57057090010494,280.06953460001387,280.57057090010494,280.06953460001387,None,0.3680696999654174,,,,,11030,001,2024_Jan_11_0835,nback,2021.2.3,60.0295585560789,
0-back,instructions\back-0.png,conditions\02back-e.xlsx,,,experiment,0,1,stim\yellow.png,stim\gray.png,stim\gray.png,stim\gray.png,up,,,,,,,,,,,,,0,3,3,7,0,13,13,13,,,,,,,,,,,,,,,,,,,,,,,,,,,,,,,,,,,,,,,,,,,,,,,,,,,,,,,,up,1,281.571940000169,None,281.571940000169,None,281.571940000169,282.57350870012306,281.571940000169,282.57350870012306,281.571940000169,282.57350870012306,281.571940000169,282.57350870012306,281.571940000169,282.07266680011526,281.571940000169,282.07266680011526,281.571940000169,282.07266680011526,281.571940000169,282.07266680011526,281.571940000169,None,0.3693438000045717,,,,,11030,001,2024_Jan_11_0835,nback,2021.2.3,60.0295585560789,
0-back,instructions\back-0.png,conditions\02back-e.xlsx,,,experiment,0,2,stim\gray.png,stim\yellow.png,stim\gray.png,stim\gray.png,left,,,,,,,,,,,,,0,3,3,7,0,14,14,14,,,,,,,,,,,,,,,,,,,,,,,,,,,,,,,,,,,,,,,,,,,,,,,,,,,,,,,,left,1,283.07446909998544,None,283.07446909998544,None,283.07446909998544,284.07587190018967,283.07446909998544,284.07587190018967,283.07446909998544,284.07587190018967,283.07446909998544,284.07587190018967,283.07446909998544,283.57701160013676,283.07446909998544,283.57701160013676,283.07446909998544,283.57701160013676,283.07446909998544,283.57701160013676,283.07446909998544,None,0.3705704999156296,,,,,11030,001,2024_Jan_11_0835,nback,2021.2.3,60.0295585560789,
0-back,instructions\back-0.png,conditions\02back-e.xlsx,,,experiment,0,1,stim\yellow.png,stim\gray.png,stim\gray.png,stim\gray.png,up,,,,,,,,,,,,,0,3,3,7,0,15,15,15,,,,,,,,,,,,,,,,,,,,,,,,,,,,,,,,,,,,,,,,,,,,,,,,,,,,,,,,up,1,284.5764374001883,None,284.5764374001883,None,284.5764374001883,285.5778032001108,284.5764374001883,285.5778032001108,284.5764374001883,285.5778032001108,284.5764374001883,285.5778032001108,284.5764374001883,285.07799140014686,284.5764374001883,285.07799140014686,284.5764374001883,285.07799140014686,284.5764374001883,285.07799140014686,284.5764374001883,None,0.39806030015461147,,,,,11030,001,2024_Jan_11_0835,nback,2021.2.3,60.0295585560789,
0-back,instructions\back-0.png,conditions\02back-e.xlsx,,,experiment,0,3,stim\gray.png,stim\gray.png,stim\yellow.png,stim\gray.png,right,,,,,,,,,,,,,0,3,3,7,0,16,16,16,,,,,,,,,,,,,,,,,,,,,,,,,,,,,,,,,,,,,,,,,,,,,,,,,,,,,,,,right,1,286.06246380019,None,286.06246380019,None,286.06246380019,287.0634626999963,286.06246380019,287.0634626999963,286.06246380019,287.0634626999963,286.06246380019,287.0634626999963,286.06246380019,286.5627113999799,286.06246380019,286.5627113999799,286.06246380019,286.5627113999799,286.06246380019,286.5627113999799,286.06246380019,None,0.3106547000352293,,,,,11030,001,2024_Jan_11_0835,nback,2021.2.3,60.0295585560789,
0-back,instructions\back-0.png,conditions\02back-e.xlsx,,,experiment,0,4,stim\gray.png,stim\gray.png,stim\gray.png,stim\yellow.png,down,,,,,,,,,,,,,0,3,3,7,0,17,17,17,,,,,,,,,,,,,,,,,,,,,,,,,,,,,,,,,,,,,,,,,,,,,,,,,,,,,,,,down,1,287.5644398999866,None,287.5644398999866,None,287.5644398999866,288.56592880003154,287.5644398999866,288.56592880003154,287.5644398999866,288.56592880003154,287.5644398999866,288.56592880003154,287.5644398999866,288.06493270001374,287.5644398999866,288.06493270001374,287.5644398999866,288.06493270001374,287.5644398999866,288.06493270001374,287.5644398999866,None,0.43263860000297427,,,,,11030,001,2024_Jan_11_0835,nback,2021.2.3,60.0295585560789,
