backseq,backinstr,backfile,instruction,size_in,Trialtype,back,number,P1,P2,P3,P4,corrAns,trials_practice.thisRepN,trials_practice.thisTrialN,trials_practice.thisN,trials_practice.thisIndex,trials.thisRepN,trials.thisTrialN,trials.thisN,trials.thisIndex,trials_3.thisRepN,trials_3.thisTrialN,trials_3.thisN,trials_3.thisIndex,trials_2.thisRepN,trials_2.thisTrialN,trials_2.thisN,trials_2.thisIndex,trials_4.thisRepN,trials_4.thisTrialN,trials_4.thisN,trials_4.thisIndex,image.started,image.stopped,image_2.started,image_2.stopped,key_resp.keys,key_resp.rt,key_resp.started,key_resp.stopped,image_3.started,image_3.stopped,key_resp_2.keys,key_resp_2.rt,key_resp_2.started,key_resp_2.stopped,image_4.started,image_4.stopped,text.started,text.stopped,H1.started,H1.stopped,H2.started,H2.stopped,H3.started,H3.stopped,H4.started,H4.stopped,key_resp_3.keys,key_resp_3.corr,key_resp_3.rt,key_resp_3.started,key_resp_3.stopped,text_4.started,text_4.stopped,F1.started,F1.stopped,F2.started,F2.stopped,F3.started,F3.stopped,F4.started,F4.stopped,image_7.started,image_7.stopped,text_5.started,text_5.stopped,key_resp_6.keys,key_resp_6.rt,key_resp_6.started,key_resp_6.stopped,image_5.started,image_5.stopped,key_resp_4.keys,key_resp_4.rt,key_resp_4.started,key_resp_4.stopped,key_resp_5.keys,key_resp_5.corr,key_resp_5.started,key_resp_5.stopped,text_3.started,text_3.stopped,H1_2.started,H1_2.stopped,H2_2.started,H2_2.stopped,H3_2.started,H3_2.stopped,H4_2.started,H4_2.stopped,F1_2.started,F1_2.stopped,F2_2.started,F2_2.stopped,F3_2.started,F3_2.stopped,F4_2.started,F4_2.stopped,image_8.started,image_8.stopped,key_resp_5.rt,text_2.started,text_2.stopped,image_6.started,image_6.stopped,participant,session,date,expName,psychopyVersion,frameRate,
,,,,,,,,,,,,,,,,,,,,,,,,,,,,,,,,,10.009518200007733,None,10.811465899998439,None,space,3.7960877000004984,10.811465899998439,None,,,,,,,,,,,,,,,,,,,,,,,,,,,,,,,,,,,,,,,,,,,,,,,,,,,,,,,,,,,,,,,,,,,,,,,,,,,,,11039,001,2024_Mar_13_1406,nback,2021.2.3,59.92961865539653,
0-back,instructions\back-0.png,conditions\0back-p.xlsx,instructions\0-BACK.png,"(15, 8)",practice,0,1,stim\yellow.png,stim\gray.png,stim\gray.png,stim\gray.png,up,0,0,0,0,0,0,0,0,0,0,0,0,,,,,,,,,,,,,,,,,14.68471810000483,None,space,3.5946426000009524,14.68471810000483,None,18.505492299998878,23.013349800006836,22.94581069999549,None,23.329478300001938,24.33195560000604,23.329478300001938,24.33195560000604,23.329478300001938,24.33195560000604,23.329478300001938,24.33195560000604,up,1,0.4144762000069022,23.329478300001938,None,23.329478300001938,None,23.329478300001938,23.831197699997574,23.329478300001938,23.831197699997574,23.329478300001938,23.831197699997574,23.329478300001938,23.831197699997574,23.329478300001938,None,,,,,,,,,,,,,,,,,,,,,,,,,,,,,,,,,,,,,,,,,,11039,001,2024_Mar_13_1406,nback,2021.2.3,59.92961865539653,
0-back,instructions\back-0.png,conditions\0back-p.xlsx,instructions\0-BACK.png,"(15, 8)",practice,0,2,stim\gray.png,stim\yellow.png,stim\gray.png,stim\gray.png,left,0,0,0,0,0,0,0,0,0,1,1,1,,,,,,,,,,,,,,,,,,,,,,,,,,,24.815289699996356,25.816903200000525,24.815289699996356,25.816903200000525,24.815289699996356,25.816903200000525,24.815289699996356,25.816903200000525,left,1,0.392535000006319,24.815289699996356,None,24.815289699996356,None,24.815289699996356,25.316200700006448,24.815289699996356,25.316200700006448,24.815289699996356,25.316200700006448,24.815289699996356,25.316200700006448,24.815289699996356,None,,,,,,,,,,,,,,,,,,,,,,,,,,,,,,,,,,,,,,,,,,11039,001,2024_Mar_13_1406,nback,2021.2.3,59.92961865539653,
0-back,instructions\back-0.png,conditions\0back-p.xlsx,instructions\0-BACK.png,"(15, 8)",practice,0,3,stim\gray.png,stim\gray.png,stim\yellow.png,stim\gray.png,right,0,0,0,0,0,0,0,0,0,2,2,2,,,,,,,,,,,,,,,,,,,,,,,,,,,26.318470300000627,27.318949599997723,26.318470300000627,27.318949599997723,26.318470300000627,27.318949599997723,26.318470300000627,27.318949599997723,right,1,0.39332139999896754,26.318470300000627,None,26.318470300000627,None,26.318470300000627,26.818444899996393,26.318470300000627,26.818444899996393,26.318470300000627,26.818444899996393,26.318470300000627,26.818444899996393,26.318470300000627,None,,,,,,,,,,,,,,,,,,,,,,,,,,,,,,,,,,,,,,,,,,11039,001,2024_Mar_13_1406,nback,2021.2.3,59.92961865539653,
0-back,instructions\back-0.png,conditions\0back-p.xlsx,instructions\0-BACK.png,"(15, 8)",practice,0,4,stim\gray.png,stim\gray.png,stim\gray.png,stim\yellow.png,down,0,0,0,0,0,0,0,0,0,3,3,3,,,,,,,,,,,,,,,,,,,,,,,,,,,27.820640399993863,28.821151900003315,27.820640399993863,28.821151900003315,27.820640399993863,28.821151900003315,27.820640399993863,28.821151900003315,down,1,0.37167930000578053,27.820640399993863,None,27.820640399993863,None,27.820640399993863,28.32050299999537,27.820640399993863,28.32050299999537,27.820640399993863,28.32050299999537,27.820640399993863,28.32050299999537,27.820640399993863,None,,,,,,,,,,,,,,,,,,,,,,,,,,,,,,,,,,,,,,,,,,11039,001,2024_Mar_13_1406,nback,2021.2.3,59.92961865539653,
0-back,instructions\back-0.png,conditions\0back-p.xlsx,instructions\0-BACK.png,"(15, 8)",practice,0,2,stim\gray.png,stim\yellow.png,stim\gray.png,stim\gray.png,left,0,0,0,0,0,0,0,0,0,4,4,4,,,,,,,,,,,,,,,,,,,,,,,,,,,29.322188999998616,30.32346509999479,29.322188999998616,30.32346509999479,29.322188999998616,30.32346509999479,29.322188999998616,30.32346509999479,left,1,0.2696799999976065,29.322188999998616,None,29.322188999998616,None,29.322188999998616,29.822893100004876,29.322188999998616,29.822893100004876,29.322188999998616,29.822893100004876,29.322188999998616,29.822893100004876,29.322188999998616,None,,,,,,,,,,,,,,,,,,,,,,,,,,,,,,,,,,,,,,,,,,11039,001,2024_Mar_13_1406,nback,2021.2.3,59.92961865539653,
0-back,instructions\back-0.png,conditions\0back-p.xlsx,instructions\0-BACK.png,"(15, 8)",practice,0,1,stim\yellow.png,stim\gray.png,stim\gray.png,stim\gray.png,up,0,0,0,0,0,0,0,0,0,5,5,5,,,,,,,,,,,,,,,,,,,,,,,,,,,30.824126499996055,31.826620100007858,30.824126499996055,31.826620100007858,30.824126499996055,31.826620100007858,30.824126499996055,31.826620100007858,up,1,0.22387079999316484,30.824126499996055,None,30.824126499996055,None,30.824126499996055,31.325620200004778,30.824126499996055,31.325620200004778,30.824126499996055,31.325620200004778,30.824126499996055,31.325620200004778,30.824126499996055,None,,,,,,,,,,,,,,,,,,,,,,,,,,,,,,,,,,,,,,,,,,11039,001,2024_Mar_13_1406,nback,2021.2.3,59.92961865539653,
0-back,instructions\back-0.png,conditions\0back-p.xlsx,instructions\0-BACK.png,"(15, 8)",practice,0,4,stim\gray.png,stim\gray.png,stim\gray.png,stim\yellow.png,down,0,0,0,0,0,0,0,0,0,6,6,6,,,,,,,,,,,,,,,,,,,,,,,,,,,32.326509599995916,33.32844120000664,32.326509599995916,33.32844120000664,32.326509599995916,33.32844120000664,32.326509599995916,33.32844120000664,down,1,0.6089804999937769,32.326509599995916,None,32.326509599995916,None,32.326509599995916,32.82735950000642,32.326509599995916,32.82735950000642,32.326509599995916,32.82735950000642,32.326509599995916,32.82735950000642,32.326509599995916,None,,,,,,,,,,,,,,,,,,,,,,,,,,,,,,,,,,,,,,,,,,11039,001,2024_Mar_13_1406,nback,2021.2.3,59.92961865539653,
0-back,instructions\back-0.png,conditions\0back-p.xlsx,instructions\0-BACK.png,"(15, 8)",practice,0,3,stim\gray.png,stim\gray.png,stim\yellow.png,stim\gray.png,right,0,0,0,0,0,0,0,0,0,7,7,7,,,,,,,,,,,,,,,,,,,,,,,,,,,33.812270499998704,34.81381039999542,33.812270499998704,34.81381039999542,33.812270499998704,34.81381039999542,33.812270499998704,34.81381039999542,right,1,0.2917167999985395,33.812270499998704,None,33.812270499998704,None,33.812270499998704,34.313806300007855,33.812270499998704,34.313806300007855,33.812270499998704,34.313806300007855,33.812270499998704,34.313806300007855,33.812270499998704,None,,,,,,,,,,,,,,,,,,,,,,,,,,,,,,,,,,,,,,,,,,11039,001,2024_Mar_13_1406,nback,2021.2.3,59.92961865539653,
0-back,instructions\back-0.png,conditions\0back-p.xlsx,instructions\0-BACK.png,"(15, 8)",practice,0,3,stim\gray.png,stim\gray.png,stim\yellow.png,stim\gray.png,right,0,0,0,0,0,0,0,0,0,8,8,8,,,,,,,,,,,,,,,,,,,,,,,,,,,35.3151971000043,36.315891499994905,35.3151971000043,36.315891499994905,35.3151971000043,36.315891499994905,35.3151971000043,36.315891499994905,right,1,0.3568501000117976,35.3151971000043,None,35.3151971000043,None,35.3151971000043,35.81679230000009,35.3151971000043,35.81679230000009,35.3151971000043,35.81679230000009,35.3151971000043,35.81679230000009,35.3151971000043,None,,,,,,,,,,,,,,,,,,,,,,,,,,,,,,,,,,,,,,,,,,11039,001,2024_Mar_13_1406,nback,2021.2.3,59.92961865539653,
0-back,instructions\back-0.png,conditions\0back-p.xlsx,instructions\0-BACK.png,"(15, 8)",practice,0,4,stim\gray.png,stim\gray.png,stim\gray.png,stim\yellow.png,down,0,0,0,0,0,0,0,0,0,9,9,9,,,,,,,,,,,,,,,,,,,,,,,,,,,36.816764600007446,37.819366299998364,36.816764600007446,37.819366299998364,36.816764600007446,37.819366299998364,36.816764600007446,37.819366299998364,down,1,0.4081308999884641,36.816764600007446,None,36.816764600007446,None,36.816764600007446,37.31748860000516,36.816764600007446,37.31748860000516,36.816764600007446,37.31748860000516,36.816764600007446,37.31748860000516,36.816764600007446,None,,,,,,,,,,,,,,,,,,,,,,,,,,,,,,,,,,,,,,,,,,11039,001,2024_Mar_13_1406,nback,2021.2.3,59.92961865539653,
0-back,instructions\back-0.png,conditions\0back-p.xlsx,instructions\0-BACK.png,"(15, 8)",practice,0,1,stim\yellow.png,stim\gray.png,stim\gray.png,stim\gray.png,up,0,0,0,0,0,0,0,0,0,10,10,10,,,,,,,,,,,,,,,,,,,,,,,,,,,38.31885579999653,39.32040090000373,38.31885579999653,39.32040090000373,38.31885579999653,39.32040090000373,38.31885579999653,39.32040090000373,up,1,0.3295730999961961,38.31885579999653,None,38.31885579999653,None,38.31885579999653,38.81969430000754,38.31885579999653,38.81969430000754,38.31885579999653,38.81969430000754,38.31885579999653,38.81969430000754,38.31885579999653,None,,,,,,,,,,,,,,,,,,,,,,,,,,,,,,,,,,,,,,,,,,11039,001,2024_Mar_13_1406,nback,2021.2.3,59.92961865539653,
0-back,instructions\back-0.png,conditions\0back-p.xlsx,instructions\0-BACK.png,"(15, 8)",practice,0,2,stim\gray.png,stim\yellow.png,stim\gray.png,stim\gray.png,left,0,0,0,0,0,0,0,0,0,11,11,11,,,,,,,,,,,,,,,,,,,,,,,,,,,39.82125510000333,40.8235136000003,39.82125510000333,40.8235136000003,39.82125510000333,40.8235136000003,39.82125510000333,40.8235136000003,left,1,0.3151739000022644,39.82125510000333,None,39.82125510000333,None,39.82125510000333,40.32217010000022,39.82125510000333,40.32217010000022,39.82125510000333,40.32217010000022,39.82125510000333,40.32217010000022,39.82125510000333,None,,,,,,,,,,,,,,,,,,,,,,,,,,,,,,,,,,,,,,,,,,11039,001,2024_Mar_13_1406,nback,2021.2.3,59.92961865539653,
0-back,instructions\back-0.png,conditions\0back-p.xlsx,instructions\0-BACK.png,"(15, 8)",practice,0,4,stim\gray.png,stim\gray.png,stim\gray.png,stim\yellow.png,down,0,0,0,0,0,0,0,0,0,12,12,12,,,,,,,,,,,,,,,,,,,,,,,,,,,41.3234145000024,42.325791900002514,41.3234145000024,42.325791900002514,41.3234145000024,42.325791900002514,41.3234145000024,42.325791900002514,down,1,0.45273020000604447,41.3234145000024,None,41.3234145000024,None,41.3234145000024,41.824198400005116,41.3234145000024,41.824198400005116,41.3234145000024,41.824198400005116,41.3234145000024,41.824198400005116,41.3234145000024,None,,,,,,,,,,,,,,,,,,,,,,,,,,,,,,,,,,,,,,,,,,11039,001,2024_Mar_13_1406,nback,2021.2.3,59.92961865539653,
0-back,instructions\back-0.png,conditions\0back-p.xlsx,instructions\0-BACK.png,"(15, 8)",practice,0,3,stim\gray.png,stim\gray.png,stim\yellow.png,stim\gray.png,right,0,0,0,0,0,0,0,0,0,13,13,13,,,,,,,,,,,,,,,,,,,,,,,,,,,42.82570240000496,43.828275799998664,42.82570240000496,43.828275799998664,42.82570240000496,43.828275799998664,42.82570240000496,43.828275799998664,right,1,0.32002270000521094,42.82570240000496,None,42.82570240000496,None,42.82570240000496,43.32703620000393,42.82570240000496,43.32703620000393,42.82570240000496,43.32703620000393,42.82570240000496,43.32703620000393,42.82570240000496,None,,,,,,,,,,,,,,,,,,,,,,,,,,,,,,,,,,,,,,,,,,11039,001,2024_Mar_13_1406,nback,2021.2.3,59.92961865539653,
0-back,instructions\back-0.png,conditions\0back-p.xlsx,instructions\0-BACK.png,"(15, 8)",practice,0,1,stim\yellow.png,stim\gray.png,stim\gray.png,stim\gray.png,up,0,0,0,0,0,0,0,0,0,14,14,14,,,,,,,,,,,,,,,,,,,,,,,,,,,44.31137480000325,45.313582500006305,44.31137480000325,45.313582500006305,44.31137480000325,45.313582500006305,44.31137480000325,45.313582500006305,up,1,0.2965434999932768,44.31137480000325,None,44.31137480000325,None,44.31137480000325,44.81196039999486,44.31137480000325,44.81196039999486,44.31137480000325,44.81196039999486,44.31137480000325,44.81196039999486,44.31137480000325,None,,,,,,,,,,,,,,,,,,,,,,,,,,,,,,,,,,,,,,,,,,11039,001,2024_Mar_13_1406,nback,2021.2.3,59.92961865539653,
0-back,instructions\back-0.png,conditions\0back-p.xlsx,instructions\0-BACK.png,"(15, 8)",practice,0,2,stim\gray.png,stim\yellow.png,stim\gray.png,stim\gray.png,left,0,0,0,0,0,0,0,0,0,15,15,15,,,,,,,,,,,,,,,,,,,,,,,,,,,45.81373769999482,46.81530089999433,45.81373769999482,46.81530089999433,45.81373769999482,46.81530089999433,45.81373769999482,46.81530089999433,left,1,0.2903631000081077,45.81373769999482,None,45.81373769999482,None,45.81373769999482,46.31441479999921,45.81373769999482,46.31441479999921,45.81373769999482,46.31441479999921,45.81373769999482,46.31441479999921,45.81373769999482,None,,,,,,,,,,,,,,,,,,,,,,,,,,,,,,,,,,,,,,,,,,11039,001,2024_Mar_13_1406,nback,2021.2.3,59.92961865539653,
0-back,instructions\back-0.png,conditions\0back-p.xlsx,instructions\0-BACK.png,"(15, 8)",practice,0,3,stim\gray.png,stim\gray.png,stim\yellow.png,stim\gray.png,right,0,0,0,0,0,0,0,0,0,16,16,16,,,,,,,,,,,,,,,,,,,,,,,,,,,47.31576009999844,48.31741129999864,47.31576009999844,48.31741129999864,47.31576009999844,48.31741129999864,47.31576009999844,48.31741129999864,right,1,0.3414355999993859,47.31576009999844,None,47.31576009999844,None,47.31576009999844,47.81769510000595,47.31576009999844,47.81769510000595,47.31576009999844,47.81769510000595,47.31576009999844,47.81769510000595,47.31576009999844,None,,,,,,,,,,,,,,,,,,,,,,,,,,,,,,,,,,,,,,,,,,11039,001,2024_Mar_13_1406,nback,2021.2.3,59.92961865539653,
0-back,instructions\back-0.png,conditions\0back-p.xlsx,instructions\0-BACK.png,"(15, 8)",practice,0,1,stim\yellow.png,stim\gray.png,stim\gray.png,stim\gray.png,up,0,0,0,0,0,0,0,0,0,17,17,17,,,,,,,,,,,,,,,,,,,,,,,,,,,48.81794799999625,49.819676200000686,48.81794799999625,49.819676200000686,48.81794799999625,49.819676200000686,48.81794799999625,49.819676200000686,up,1,0.31081140000605956,48.81794799999625,None,48.81794799999625,None,48.81794799999625,49.318964399994,48.81794799999625,49.318964399994,48.81794799999625,49.318964399994,48.81794799999625,49.318964399994,48.81794799999625,None,,,,,,,,,,,,,,,,,,,,,,,,,,,,,,,,,,,,,,,,,,11039,001,2024_Mar_13_1406,nback,2021.2.3,59.92961865539653,
0-back,instructions\back-0.png,conditions\0back-p.xlsx,instructions\0-BACK.png,"(15, 8)",practice,0,4,stim\gray.png,stim\gray.png,stim\gray.png,stim\yellow.png,down,0,0,0,0,0,0,0,0,0,18,18,18,,,,,,,,,,,,,,,,,,,,,,,,,,,50.320384699996794,51.32262890000129,50.320384699996794,51.32262890000129,50.320384699996794,51.32262890000129,50.320384699996794,51.32262890000129,down,1,0.37619850000191946,50.320384699996794,None,50.320384699996794,None,50.320384699996794,50.821097199994256,50.320384699996794,50.821097199994256,50.320384699996794,50.821097199994256,50.320384699996794,50.821097199994256,50.320384699996794,None,,,,,,,,,,,,,,,,,,,,,,,,,,,,,,,,,,,,,,,,,,11039,001,2024_Mar_13_1406,nback,2021.2.3,59.92961865539653,
0-back,instructions\back-0.png,conditions\0back-p.xlsx,instructions\0-BACK.png,"(15, 8)",practice,0,2,stim\gray.png,stim\yellow.png,stim\gray.png,stim\gray.png,left,0,0,0,0,0,0,0,0,0,19,19,19,,,,,,,,,,,,,,,,,,,,,,,,,,,51.822585400004755,52.82421219999378,51.822585400004755,52.82421219999378,51.822585400004755,52.82421219999378,51.822585400004755,52.82421219999378,left,1,0.2661293000128353,51.822585400004755,None,51.822585400004755,None,51.822585400004755,52.32330950000323,51.822585400004755,52.32330950000323,51.822585400004755,52.32330950000323,51.822585400004755,52.32330950000323,51.822585400004755,None,,,,,,,,,,,,,,,,,,,,,,,,,,,,,,,,,,,,,,,,,,11039,001,2024_Mar_13_1406,nback,2021.2.3,59.92961865539653,
0-back,instructions\back-0.png,conditions\0back-p.xlsx,instructions\0-BACK.png,"(15, 8)",,,,,,,,,0,0,0,0,0,0,0,0,,,,,,,,,,,,,,,,,,,,,,,,,,,,,,,,,,,,,,,,,,,,,,,,,,,,,,,,,,,,,,,,,,,,,,,,,,,,,,,,,,,,,,,,,,,,,,,,,11039,001,2024_Mar_13_1406,nback,2021.2.3,59.92961865539653,
1-back,instructions\back-1.png,conditions\1back-p.xlsx,instructions\1-BACK.png,"(25, 15)",practice,1,1,stim\yellow.png,stim\gray.png,stim\gray.png,stim\gray.png,None,0,0,0,0,0,1,1,1,0,0,0,0,,,,,,,,,,,,,,,,,53.524356900001294,None,space,4.156585199991241,53.524356900001294,None,57.81485110000358,62.32310769999458,62.288422500001616,None,62.72402280000097,63.72462100000121,62.72402280000097,63.72462100000121,62.72402280000097,63.72462100000121,62.72402280000097,63.72462100000121,None,1,,62.72402280000097,None,62.72402280000097,None,62.72402280000097,63.22396329999901,62.72402280000097,63.22396329999901,62.72402280000097,63.22396329999901,62.72402280000097,63.22396329999901,62.72402280000097,None,,,,,,,,,,,,,,,,,,,,,,,,,,,,,,,,,,,,,,,,,,11039,001,2024_Mar_13_1406,nback,2021.2.3,59.92961865539653,
1-back,instructions\back-1.png,conditions\1back-p.xlsx,instructions\1-BACK.png,"(25, 15)",practice,1,2,stim\gray.png,stim\yellow.png,stim\gray.png,stim\gray.png,up,0,0,0,0,0,1,1,1,0,1,1,1,,,,,,,,,,,,,,,,,,,,,,,,,,,64.20773340000596,65.20945029999712,64.20773340000596,65.20945029999712,64.20773340000596,65.20945029999712,64.20773340000596,65.20945029999712,up,1,0.4172913000074914,64.20773340000596,None,64.20773340000596,None,64.20773340000596,64.70902999999817,64.20773340000596,64.70902999999817,64.20773340000596,64.70902999999817,64.20773340000596,64.70902999999817,64.20773340000596,None,,,,,,,,,,,,,,,,,,,,,,,,,,,,,,,,,,,,,,,,,,11039,001,2024_Mar_13_1406,nback,2021.2.3,59.92961865539653,
1-back,instructions\back-1.png,conditions\1back-p.xlsx,instructions\1-BACK.png,"(25, 15)",practice,1,3,stim\gray.png,stim\gray.png,stim\yellow.png,stim\gray.png,left,0,0,0,0,0,1,1,1,0,2,2,2,,,,,,,,,,,,,,,,,,,,,,,,,,,65.71017819999543,66.71256860000722,65.71017819999543,66.71256860000722,65.71017819999543,66.71256860000722,65.71017819999543,66.71256860000722,left,1,0.4026592000009259,65.71017819999543,None,65.71017819999543,None,65.71017819999543,66.21180380000442,65.71017819999543,66.21180380000442,65.71017819999543,66.21180380000442,65.71017819999543,66.21180380000442,65.71017819999543,None,,,,,,,,,,,,,,,,,,,,,,,,,,,,,,,,,,,,,,,,,,11039,001,2024_Mar_13_1406,nback,2021.2.3,59.92961865539653,
1-back,instructions\back-1.png,conditions\1back-p.xlsx,instructions\1-BACK.png,"(25, 15)",practice,1,4,stim\gray.png,stim\gray.png,stim\gray.png,stim\yellow.png,right,0,0,0,0,0,1,1,1,0,3,3,3,,,,,,,,,,,,,,,,,,,,,,,,,,,67.21267000000807,68.21402480000688,67.21267000000807,68.21402480000688,67.21267000000807,68.21402480000688,67.21267000000807,68.21402480000688,right,1,0.19666739999956917,67.21267000000807,None,67.21267000000807,None,67.21267000000807,67.71315490000416,67.21267000000807,67.71315490000416,67.21267000000807,67.71315490000416,67.21267000000807,67.71315490000416,67.21267000000807,None,,,,,,,,,,,,,,,,,,,,,,,,,,,,,,,,,,,,,,,,,,11039,001,2024_Mar_13_1406,nback,2021.2.3,59.92961865539653,
1-back,instructions\back-1.png,conditions\1back-p.xlsx,instructions\1-BACK.png,"(25, 15)",practice,1,2,stim\gray.png,stim\yellow.png,stim\gray.png,stim\gray.png,down,0,0,0,0,0,1,1,1,0,4,4,4,,,,,,,,,,,,,,,,,,,,,,,,,,,68.71482389999437,69.71711349999532,68.71482389999437,69.71711349999532,68.71482389999437,69.71711349999532,68.71482389999437,69.71711349999532,down,1,0.1261404999968363,68.71482389999437,None,68.71482389999437,None,68.71482389999437,69.21655680000549,68.71482389999437,69.21655680000549,68.71482389999437,69.21655680000549,68.71482389999437,69.21655680000549,68.71482389999437,None,,,,,,,,,,,,,,,,,,,,,,,,,,,,,,,,,,,,,,,,,,11039,001,2024_Mar_13_1406,nback,2021.2.3,59.92961865539653,
1-back,instructions\back-1.png,conditions\1back-p.xlsx,instructions\1-BACK.png,"(25, 15)",practice,1,1,stim\yellow.png,stim\gray.png,stim\gray.png,stim\gray.png,left,0,0,0,0,0,1,1,1,0,5,5,5,,,,,,,,,,,,,,,,,,,,,,,,,,,70.21709649999684,71.21864330000244,70.21709649999684,71.21864330000244,70.21709649999684,71.21864330000244,70.21709649999684,71.21864330000244,left,1,0.2401218000013614,70.21709649999684,None,70.21709649999684,None,70.21709649999684,70.71812649999629,70.21709649999684,70.71812649999629,70.21709649999684,70.71812649999629,70.21709649999684,70.71812649999629,70.21709649999684,None,,,,,,,,,,,,,,,,,,,,,,,,,,,,,,,,,,,,,,,,,,11039,001,2024_Mar_13_1406,nback,2021.2.3,59.92961865539653,
1-back,instructions\back-1.png,conditions\1back-p.xlsx,instructions\1-BACK.png,"(25, 15)",practice,1,4,stim\gray.png,stim\gray.png,stim\gray.png,stim\yellow.png,up,0,0,0,0,0,1,1,1,0,6,6,6,,,,,,,,,,,,,,,,,,,,,,,,,,,71.70386720000533,72.70509630000743,71.70386720000533,72.70509630000743,71.70386720000533,72.70509630000743,71.70386720000533,72.70509630000743,up,1,0.2170343000034336,71.70386720000533,None,71.70386720000533,None,71.70386720000533,72.20434670000395,71.70386720000533,72.20434670000395,71.70386720000533,72.20434670000395,71.70386720000533,72.20434670000395,71.70386720000533,None,,,,,,,,,,,,,,,,,,,,,,,,,,,,,,,,,,,,,,,,,,11039,001,2024_Mar_13_1406,nback,2021.2.3,59.92961865539653,
1-back,instructions\back-1.png,conditions\1back-p.xlsx,instructions\1-BACK.png,"(25, 15)",practice,1,3,stim\gray.png,stim\gray.png,stim\yellow.png,stim\gray.png,down,0,0,0,0,0,1,1,1,0,7,7,7,,,,,,,,,,,,,,,,,,,,,,,,,,,73.20662060000177,74.2068650000001,73.20662060000177,74.2068650000001,73.20662060000177,74.2068650000001,73.20662060000177,74.2068650000001,down,1,0.22634480000124313,73.20662060000177,None,73.20662060000177,None,73.20662060000177,73.70570400000724,73.20662060000177,73.70570400000724,73.20662060000177,73.70570400000724,73.20662060000177,73.70570400000724,73.20662060000177,None,,,,,,,,,,,,,,,,,,,,,,,,,,,,,,,,,,,,,,,,,,11039,001,2024_Mar_13_1406,nback,2021.2.3,59.92961865539653,
1-back,instructions\back-1.png,conditions\1back-p.xlsx,instructions\1-BACK.png,"(25, 15)",practice,1,3,stim\gray.png,stim\gray.png,stim\yellow.png,stim\gray.png,right,0,0,0,0,0,1,1,1,0,8,8,8,,,,,,,,,,,,,,,,,,,,,,,,,,,74.70721350000531,75.70945789999678,74.70721350000531,75.70945789999678,74.70721350000531,75.70945789999678,74.70721350000531,75.70945789999678,right,1,0.30188089999137446,74.70721350000531,None,74.70721350000531,None,74.70721350000531,75.20869559999846,74.70721350000531,75.20869559999846,74.70721350000531,75.20869559999846,74.70721350000531,75.20869559999846,74.70721350000531,None,,,,,,,,,,,,,,,,,,,,,,,,,,,,,,,,,,,,,,,,,,11039,001,2024_Mar_13_1406,nback,2021.2.3,59.92961865539653,
1-back,instructions\back-1.png,conditions\1back-p.xlsx,instructions\1-BACK.png,"(25, 15)",practice,1,4,stim\gray.png,stim\gray.png,stim\gray.png,stim\yellow.png,right,0,0,0,0,0,1,1,1,0,9,9,9,,,,,,,,,,,,,,,,,,,,,,,,,,,76.2093590000004,77.2122348999983,76.2093590000004,77.2122348999983,76.2093590000004,77.2122348999983,76.2093590000004,77.2122348999983,right,1,0.2797675000037998,76.2093590000004,None,76.2093590000004,None,76.2093590000004,76.71011509999516,76.2093590000004,76.71011509999516,76.2093590000004,76.71011509999516,76.2093590000004,76.71011509999516,76.2093590000004,None,,,,,,,,,,,,,,,,,,,,,,,,,,,,,,,,,,,,,,,,,,11039,001,2024_Mar_13_1406,nback,2021.2.3,59.92961865539653,
1-back,instructions\back-1.png,conditions\1back-p.xlsx,instructions\1-BACK.png,"(25, 15)",practice,1,1,stim\yellow.png,stim\gray.png,stim\gray.png,stim\gray.png,down,0,0,0,0,0,1,1,1,0,10,10,10,,,,,,,,,,,,,,,,,,,,,,,,,,,77.71175859999494,78.71323370000755,77.71175859999494,78.71323370000755,77.71175859999494,78.71323370000755,77.71175859999494,78.71323370000755,down,1,0.22557019999658223,77.71175859999494,None,77.71175859999494,None,77.71175859999494,78.21293999999762,77.71175859999494,78.21293999999762,77.71175859999494,78.21293999999762,77.71175859999494,78.21293999999762,77.71175859999494,None,,,,,,,,,,,,,,,,,,,,,,,,,,,,,,,,,,,,,,,,,,11039,001,2024_Mar_13_1406,nback,2021.2.3,59.92961865539653,
1-back,instructions\back-1.png,conditions\1back-p.xlsx,instructions\1-BACK.png,"(25, 15)",practice,1,2,stim\gray.png,stim\yellow.png,stim\gray.png,stim\gray.png,up,0,0,0,0,0,1,1,1,0,11,11,11,,,,,,,,,,,,,,,,,,,,,,,,,,,79.21474769999622,80.21641170000657,79.21474769999622,80.21641170000657,79.21474769999622,80.21641170000657,79.21474769999622,80.21641170000657,up,1,0.16245430000708438,79.21474769999622,None,79.21474769999622,None,79.21474769999622,79.71471299999394,79.21474769999622,79.71471299999394,79.21474769999622,79.71471299999394,79.21474769999622,79.71471299999394,79.21474769999622,None,,,,,,,,,,,,,,,,,,,,,,,,,,,,,,,,,,,,,,,,,,11039,001,2024_Mar_13_1406,nback,2021.2.3,59.92961865539653,
1-back,instructions\back-1.png,conditions\1back-p.xlsx,instructions\1-BACK.png,"(25, 15)",practice,1,4,stim\gray.png,stim\gray.png,stim\gray.png,stim\yellow.png,left,0,0,0,0,0,1,1,1,0,12,12,12,,,,,,,,,,,,,,,,,,,,,,,,,,,80.71603579999646,81.7184469000058,80.71603579999646,81.7184469000058,80.71603579999646,81.7184469000058,80.71603579999646,81.7184469000058,None,0,,80.71603579999646,None,80.71603579999646,None,80.71603579999646,81.21781270000793,80.71603579999646,81.21781270000793,80.71603579999646,81.21781270000793,80.71603579999646,81.21781270000793,80.71603579999646,None,,,,,,,,,,,,,,,,,,,,,,,,,,,,,,,,,,,,,,,,,,11039,001,2024_Mar_13_1406,nback,2021.2.3,59.92961865539653,
1-back,instructions\back-1.png,conditions\1back-p.xlsx,instructions\1-BACK.png,"(25, 15)",practice,1,3,stim\gray.png,stim\gray.png,stim\yellow.png,stim\gray.png,down,0,0,0,0,0,1,1,1,0,13,13,13,,,,,,,,,,,,,,,,,,,,,,,,,,,82.20205320000241,83.20330930000637,82.20205320000241,83.20330930000637,82.20205320000241,83.20330930000637,82.20205320000241,83.20330930000637,down,1,0.015778300003148615,82.20205320000241,None,82.20205320000241,None,82.20205320000241,82.70237929999712,82.20205320000241,82.70237929999712,82.20205320000241,82.70237929999712,82.20205320000241,82.70237929999712,82.20205320000241,None,,,,,,,,,,,,,,,,,,,,,,,,,,,,,,,,,,,,,,,,,,11039,001,2024_Mar_13_1406,nback,2021.2.3,59.92961865539653,
1-back,instructions\back-1.png,conditions\1back-p.xlsx,instructions\1-BACK.png,"(25, 15)",practice,1,1,stim\yellow.png,stim\gray.png,stim\gray.png,stim\gray.png,right,0,0,0,0,0,1,1,1,0,14,14,14,,,,,,,,,,,,,,,,,,,,,,,,,,,83.70399090000137,84.7065195000032,83.70399090000137,84.7065195000032,83.70399090000137,84.7065195000032,83.70399090000137,84.7065195000032,right,1,0.16950340000039432,83.70399090000137,None,83.70399090000137,None,83.70399090000137,84.20482159999665,83.70399090000137,84.20482159999665,83.70399090000137,84.20482159999665,83.70399090000137,84.20482159999665,83.70399090000137,None,,,,,,,,,,,,,,,,,,,,,,,,,,,,,,,,,,,,,,,,,,11039,001,2024_Mar_13_1406,nback,2021.2.3,59.92961865539653,
1-back,instructions\back-1.png,conditions\1back-p.xlsx,instructions\1-BACK.png,"(25, 15)",practice,1,2,stim\gray.png,stim\yellow.png,stim\gray.png,stim\gray.png,up,0,0,0,0,0,1,1,1,0,15,15,15,,,,,,,,,,,,,,,,,,,,,,,,,,,85.2062442000024,86.20774929999607,85.2062442000024,86.20774929999607,85.2062442000024,86.20774929999607,85.2062442000024,86.20774929999607,left,0,1.4671780999924522,85.2062442000024,None,85.2062442000024,None,85.2062442000024,85.70705850000377,85.2062442000024,85.70705850000377,85.2062442000024,85.70705850000377,85.2062442000024,85.70705850000377,85.2062442000024,None,,,,,,,,,,,,,,,,,,,,,,,,,,,,,,,,,,,,,,,,,,11039,001,2024_Mar_13_1406,nback,2021.2.3,59.92961865539653,
1-back,instructions\back-1.png,conditions\1back-p.xlsx,instructions\1-BACK.png,"(25, 15)",practice,1,3,stim\gray.png,stim\gray.png,stim\yellow.png,stim\gray.png,left,0,0,0,0,0,1,1,1,0,16,16,16,,,,,,,,,,,,,,,,,,,,,,,,,,,86.70853800000623,87.71111469999596,86.70853800000623,87.71111469999596,86.70853800000623,87.71111469999596,86.70853800000623,87.71111469999596,right,0,1.3491695999982767,86.70853800000623,None,86.70853800000623,None,86.70853800000623,87.20935330000066,86.70853800000623,87.20935330000066,86.70853800000623,87.20935330000066,86.70853800000623,87.20935330000066,86.70853800000623,None,,,,,,,,,,,,,,,,,,,,,,,,,,,,,,,,,,,,,,,,,,11039,001,2024_Mar_13_1406,nback,2021.2.3,59.92961865539653,
1-back,instructions\back-1.png,conditions\1back-p.xlsx,instructions\1-BACK.png,"(25, 15)",practice,1,1,stim\yellow.png,stim\gray.png,stim\gray.png,stim\gray.png,right,0,0,0,0,0,1,1,1,0,17,17,17,,,,,,,,,,,,,,,,,,,,,,,,,,,88.2107873000059,89.21251310000662,88.2107873000059,89.21251310000662,88.2107873000059,89.21251310000662,88.2107873000059,89.21251310000662,up,0,1.3265278000035323,88.2107873000059,None,88.2107873000059,None,88.2107873000059,88.7127371999959,88.2107873000059,88.7127371999959,88.2107873000059,88.7127371999959,88.2107873000059,88.7127371999959,88.2107873000059,None,,,,,,,,,,,,,,,,,,,,,,,,,,,,,,,,,,,,,,,,,,11039,001,2024_Mar_13_1406,nback,2021.2.3,59.92961865539653,
1-back,instructions\back-1.png,conditions\1back-p.xlsx,instructions\1-BACK.png,"(25, 15)",practice,1,4,stim\gray.png,stim\gray.png,stim\gray.png,stim\yellow.png,up,0,0,0,0,0,1,1,1,0,18,18,18,,,,,,,,,,,,,,,,,,,,,,,,,,,89.71319779999612,90.71459780000441,89.71319779999612,90.71459780000441,89.71319779999612,90.71459780000441,89.71319779999612,90.71459780000441,down,0,1.048620600005961,89.71319779999612,None,89.71319779999612,None,89.71319779999612,90.21383649999916,89.71319779999612,90.21383649999916,89.71319779999612,90.21383649999916,89.71319779999612,90.21383649999916,89.71319779999612,None,,,,,,,,,,,,,,,,,,,,,,,,,,,,,,,,,,,,,,,,,,11039,001,2024_Mar_13_1406,nback,2021.2.3,59.92961865539653,
1-back,instructions\back-1.png,conditions\1back-p.xlsx,instructions\1-BACK.png,"(25, 15)",practice,1,2,stim\gray.png,stim\yellow.png,stim\gray.png,stim\gray.png,down,0,0,0,0,0,1,1,1,0,19,19,19,,,,,,,,,,,,,,,,,,,,,,,,,,,91.21541069999512,92.21683079999639,91.21541069999512,92.21683079999639,91.21541069999512,92.21683079999639,91.21541069999512,92.21683079999639,left,0,0.43447129998821765,91.21541069999512,None,91.21541069999512,None,91.21541069999512,91.71613580000121,91.21541069999512,91.71613580000121,91.21541069999512,91.71613580000121,91.21541069999512,91.71613580000121,91.21541069999512,None,,,,,,,,,,,,,,,,,,,,,,,,,,,,,,,,,,,,,,,,,,11039,001,2024_Mar_13_1406,nback,2021.2.3,59.92961865539653,
1-back,instructions\back-1.png,conditions\1back-p.xlsx,instructions\1-BACK.png,"(25, 15)",,,,,,,,,0,0,0,0,0,1,1,1,,,,,,,,,,,,,,,,,,,,,,,,,,,,,,,,,,,,,,,,,,,,,,,,,,,,,,,,,,,,,,,,,,,,,,,,,,,,,,,,,,,,,,,,,,,,,,,,,11039,001,2024_Mar_13_1406,nback,2021.2.3,59.92961865539653,
2-back,instructions\back-2.png,conditions\2back-p.xlsx,instructions\2-BACK.png,"(25, 15)",practice,2,1,stim\yellow.png,stim\gray.png,stim\gray.png,stim\gray.png,None,0,0,0,0,0,2,2,2,0,0,0,0,,,,,,,,,,,,,,,,,92.90106829999422,None,space,9.477020899998024,92.90106829999422,None,102.58368720000726,107.09053450000647,107.02258489999804,None,107.42508430000453,108.42585379999946,107.42508430000453,108.42585379999946,107.42508430000453,108.42585379999946,107.42508430000453,108.42585379999946,None,1,,107.42508430000453,None,107.42508430000453,None,107.42508430000453,107.94084710000607,107.42508430000453,107.94084710000607,107.42508430000453,107.94084710000607,107.42508430000453,107.94084710000607,107.42508430000453,None,,,,,,,,,,,,,,,,,,,,,,,,,,,,,,,,,,,,,,,,,,11039,001,2024_Mar_13_1406,nback,2021.2.3,59.92961865539653,
2-back,instructions\back-2.png,conditions\2back-p.xlsx,instructions\2-BACK.png,"(25, 15)",practice,2,2,stim\gray.png,stim\yellow.png,stim\gray.png,stim\gray.png,None,0,0,0,0,0,2,2,2,0,1,1,1,,,,,,,,,,,,,,,,,,,,,,,,,,,108.90874600000097,109.91013590000512,108.90874600000097,109.91013590000512,108.90874600000097,109.91013590000512,108.90874600000097,109.91013590000512,None,1,,108.90874600000097,None,108.90874600000097,None,108.90874600000097,109.40937680000206,108.90874600000097,109.40937680000206,108.90874600000097,109.40937680000206,108.90874600000097,109.40937680000206,108.90874600000097,None,,,,,,,,,,,,,,,,,,,,,,,,,,,,,,,,,,,,,,,,,,11039,001,2024_Mar_13_1406,nback,2021.2.3,59.92961865539653,
2-back,instructions\back-2.png,conditions\2back-p.xlsx,instructions\2-BACK.png,"(25, 15)",practice,2,3,stim\gray.png,stim\gray.png,stim\yellow.png,stim\gray.png,up,0,0,0,0,0,2,2,2,0,2,2,2,,,,,,,,,,,,,,,,,,,,,,,,,,,110.41189079999458,111.41241590000573,110.41189079999458,111.41241590000573,110.41189079999458,111.41241590000573,110.41189079999458,111.41241590000573,up,1,0.33465520000027027,110.41189079999458,None,110.41189079999458,None,110.41189079999458,110.91169110000192,110.41189079999458,110.91169110000192,110.41189079999458,110.91169110000192,110.41189079999458,110.91169110000192,110.41189079999458,None,,,,,,,,,,,,,,,,,,,,,,,,,,,,,,,,,,,,,,,,,,11039,001,2024_Mar_13_1406,nback,2021.2.3,59.92961865539653,
2-back,instructions\back-2.png,conditions\2back-p.xlsx,instructions\2-BACK.png,"(25, 15)",practice,2,4,stim\gray.png,stim\gray.png,stim\gray.png,stim\yellow.png,left,0,0,0,0,0,2,2,2,0,3,3,3,,,,,,,,,,,,,,,,,,,,,,,,,,,111.91315300000133,112.91583539999556,111.91315300000133,112.91583539999556,111.91315300000133,112.91583539999556,111.91315300000133,112.91583539999556,right,0,1.3052836999995634,111.91315300000133,None,111.91315300000133,None,111.91315300000133,112.41388480000023,111.91315300000133,112.41388480000023,111.91315300000133,112.41388480000023,111.91315300000133,112.41388480000023,111.91315300000133,None,,,,,,,,,,,,,,,,,,,,,,,,,,,,,,,,,,,,,,,,,,11039,001,2024_Mar_13_1406,nback,2021.2.3,59.92961865539653,
2-back,instructions\back-2.png,conditions\2back-p.xlsx,instructions\2-BACK.png,"(25, 15)",practice,2,2,stim\gray.png,stim\yellow.png,stim\gray.png,stim\gray.png,right,0,0,0,0,0,2,2,2,0,4,4,4,,,,,,,,,,,,,,,,,,,,,,,,,,,113.4154639000044,114.41735069999413,113.4154639000044,114.41735069999413,113.4154639000044,114.41735069999413,113.4154639000044,114.41735069999413,down,0,0.9070240000000922,113.4154639000044,None,113.4154639000044,None,113.4154639000044,113.91607390000718,113.4154639000044,113.91607390000718,113.4154639000044,113.91607390000718,113.4154639000044,113.91607390000718,113.4154639000044,None,,,,,,,,,,,,,,,,,,,,,,,,,,,,,,,,,,,,,,,,,,11039,001,2024_Mar_13_1406,nback,2021.2.3,59.92961865539653,
2-back,instructions\back-2.png,conditions\2back-p.xlsx,instructions\2-BACK.png,"(25, 15)",practice,2,1,stim\yellow.png,stim\gray.png,stim\gray.png,stim\gray.png,down,0,0,0,0,0,2,2,2,0,5,5,5,,,,,,,,,,,,,,,,,,,,,,,,,,,114.91880850000598,115.91921720000391,114.91880850000598,115.91921720000391,114.91880850000598,115.91921720000391,114.91880850000598,115.91921720000391,None,0,,114.91880850000598,None,114.91880850000598,None,114.91880850000598,115.41847710000002,114.91880850000598,115.41847710000002,114.91880850000598,115.41847710000002,114.91880850000598,115.41847710000002,114.91880850000598,None,,,,,,,,,,,,,,,,,,,,,,,,,,,,,,,,,,,,,,,,,,11039,001,2024_Mar_13_1406,nback,2021.2.3,59.92961865539653,
2-back,instructions\back-2.png,conditions\2back-p.xlsx,instructions\2-BACK.png,"(25, 15)",practice,2,4,stim\gray.png,stim\gray.png,stim\gray.png,stim\yellow.png,left,0,0,0,0,0,2,2,2,0,6,6,6,,,,,,,,,,,,,,,,,,,,,,,,,,,116.40325750000193,117.40471050000633,116.40325750000193,117.40471050000633,116.40325750000193,117.40471050000633,116.40325750000193,117.40471050000633,up,0,0.030824700006633066,116.40325750000193,None,116.40325750000193,None,116.40325750000193,116.90400500000396,116.40325750000193,116.90400500000396,116.40325750000193,116.90400500000396,116.40325750000193,116.90400500000396,116.40325750000193,None,,,,,,,,,,,,,,,,,,,,,,,,,,,,,,,,,,,,,,,,,,11039,001,2024_Mar_13_1406,nback,2021.2.3,59.92961865539653,
2-back,instructions\back-2.png,conditions\2back-p.xlsx,instructions\2-BACK.png,"(25, 15)",practice,2,3,stim\gray.png,stim\gray.png,stim\yellow.png,stim\gray.png,up,0,0,0,0,0,2,2,2,0,7,7,7,,,,,,,,,,,,,,,,,,,,,,,,,,,117.90561390000221,118.90832360000059,117.90561390000221,118.90832360000059,117.90561390000221,118.90832360000059,117.90561390000221,118.90832360000059,down,0,0.5608990000037011,117.90561390000221,None,117.90561390000221,None,117.90561390000221,118.40628450000077,117.90561390000221,118.40628450000077,117.90561390000221,118.40628450000077,117.90561390000221,118.40628450000077,117.90561390000221,None,,,,,,,,,,,,,,,,,,,,,,,,,,,,,,,,,,,,,,,,,,11039,001,2024_Mar_13_1406,nback,2021.2.3,59.92961865539653,
2-back,instructions\back-2.png,conditions\2back-p.xlsx,instructions\2-BACK.png,"(25, 15)",practice,2,3,stim\gray.png,stim\gray.png,stim\yellow.png,stim\gray.png,down,0,0,0,0,0,2,2,2,0,8,8,8,,,,,,,,,,,,,,,,,,,,,,,,,,,119.40769960000762,120.40935260000697,119.40769960000762,120.40935260000697,119.40769960000762,120.40935260000697,119.40769960000762,120.40935260000697,right,0,0.5146129999920959,119.40769960000762,None,119.40769960000762,None,119.40769960000762,119.90871030000562,119.40769960000762,119.90871030000562,119.40769960000762,119.90871030000562,119.40769960000762,119.90871030000562,119.40769960000762,None,,,,,,,,,,,,,,,,,,,,,,,,,,,,,,,,,,,,,,,,,,11039,001,2024_Mar_13_1406,nback,2021.2.3,59.92961865539653,
2-back,instructions\back-2.png,conditions\2back-p.xlsx,instructions\2-BACK.png,"(25, 15)",practice,2,4,stim\gray.png,stim\gray.png,stim\gray.png,stim\yellow.png,right,0,0,0,0,0,2,2,2,0,9,9,9,,,,,,,,,,,,,,,,,,,,,,,,,,,120.91009259999555,121.91196130000753,120.91009259999555,121.91196130000753,120.91009259999555,121.91196130000753,120.91009259999555,121.91196130000753,right,1,0.7963897000008728,120.91009259999555,None,120.91009259999555,None,120.91009259999555,121.41176610000548,120.91009259999555,121.41176610000548,120.91009259999555,121.41176610000548,120.91009259999555,121.41176610000548,120.91009259999555,None,,,,,,,,,,,,,,,,,,,,,,,,,,,,,,,,,,,,,,,,,,11039,001,2024_Mar_13_1406,nback,2021.2.3,59.92961865539653,
2-back,instructions\back-2.png,conditions\2back-p.xlsx,instructions\2-BACK.png,"(25, 15)",practice,2,1,stim\yellow.png,stim\gray.png,stim\gray.png,stim\gray.png,right,0,0,0,0,0,2,2,2,0,10,10,10,,,,,,,,,,,,,,,,,,,,,,,,,,,122.41352390000247,123.41542639999534,122.41352390000247,123.41542639999534,122.41352390000247,123.41542639999534,122.41352390000247,123.41542639999534,down,0,1.29292720000376,122.41352390000247,None,122.41352390000247,None,122.41352390000247,122.91307080000115,122.41352390000247,122.91307080000115,122.41352390000247,122.91307080000115,122.41352390000247,122.91307080000115,122.41352390000247,None,,,,,,,,,,,,,,,,,,,,,,,,,,,,,,,,,,,,,,,,,,11039,001,2024_Mar_13_1406,nback,2021.2.3,59.92961865539653,
2-back,instructions\back-2.png,conditions\2back-p.xlsx,instructions\2-BACK.png,"(25, 15)",practice,2,2,stim\gray.png,stim\yellow.png,stim\gray.png,stim\gray.png,down,0,0,0,0,0,2,2,2,0,11,11,11,,,,,,,,,,,,,,,,,,,,,,,,,,,123.91532230000303,124.91710020000755,123.91532230000303,124.91710020000755,123.91532230000303,124.91710020000755,123.91532230000303,124.91710020000755,None,0,,123.91532230000303,None,123.91532230000303,None,123.91532230000303,124.4151872999937,123.91532230000303,124.4151872999937,123.91532230000303,124.4151872999937,123.91532230000303,124.4151872999937,123.91532230000303,None,,,,,,,,,,,,,,,,,,,,,,,,,,,,,,,,,,,,,,,,,,11039,001,2024_Mar_13_1406,nback,2021.2.3,59.92961865539653,
2-back,instructions\back-2.png,conditions\2back-p.xlsx,instructions\2-BACK.png,"(25, 15)",practice,2,4,stim\gray.png,stim\gray.png,stim\gray.png,stim\yellow.png,up,0,0,0,0,0,2,2,2,0,12,12,12,,,,,,,,,,,,,,,,,,,,,,,,,,,125.4169935999962,126.41845810000086,125.4169935999962,126.41845810000086,125.4169935999962,126.41845810000086,125.4169935999962,126.41845810000086,up,1,0.34519649999856483,125.4169935999962,None,125.4169935999962,None,125.4169935999962,125.91763199999696,125.4169935999962,125.91763199999696,125.4169935999962,125.91763199999696,125.4169935999962,125.91763199999696,125.4169935999962,None,,,,,,,,,,,,,,,,,,,,,,,,,,,,,,,,,,,,,,,,,,11039,001,2024_Mar_13_1406,nback,2021.2.3,59.92961865539653,
2-back,instructions\back-2.png,conditions\2back-p.xlsx,instructions\2-BACK.png,"(25, 15)",practice,2,3,stim\gray.png,stim\gray.png,stim\yellow.png,stim\gray.png,left,0,0,0,0,0,2,2,2,0,13,13,13,,,,,,,,,,,,,,,,,,,,,,,,,,,126.91906450000533,127.92059460000019,126.91906450000533,127.92059460000019,126.91906450000533,127.92059460000019,126.91906450000533,127.92059460000019,left,1,0.25941930001135916,126.91906450000533,None,126.91906450000533,None,126.91906450000533,127.42044790000364,126.91906450000533,127.42044790000364,126.91906450000533,127.42044790000364,126.91906450000533,127.42044790000364,126.91906450000533,None,,,,,,,,,,,,,,,,,,,,,,,,,,,,,,,,,,,,,,,,,,11039,001,2024_Mar_13_1406,nback,2021.2.3,59.92961865539653,
2-back,instructions\back-2.png,conditions\2back-p.xlsx,instructions\2-BACK.png,"(25, 15)",practice,2,1,stim\yellow.png,stim\gray.png,stim\gray.png,stim\gray.png,down,0,0,0,0,0,2,2,2,0,14,14,14,,,,,,,,,,,,,,,,,,,,,,,,,,,128.40466379999998,129.40691869999864,128.40466379999998,129.40691869999864,128.40466379999998,129.40691869999864,128.40466379999998,129.40691869999864,down,1,0.2782374999951571,128.40466379999998,None,128.40466379999998,None,128.40466379999998,128.90563049999764,128.40466379999998,128.90563049999764,128.40466379999998,128.90563049999764,128.40466379999998,128.90563049999764,128.40466379999998,None,,,,,,,,,,,,,,,,,,,,,,,,,,,,,,,,,,,,,,,,,,11039,001,2024_Mar_13_1406,nback,2021.2.3,59.92961865539653,
2-back,instructions\back-2.png,conditions\2back-p.xlsx,instructions\2-BACK.png,"(25, 15)",practice,2,2,stim\gray.png,stim\yellow.png,stim\gray.png,stim\gray.png,right,0,0,0,0,0,2,2,2,0,15,15,15,,,,,,,,,,,,,,,,,,,,,,,,,,,129.90710399999807,130.90867780000553,129.90710399999807,130.90867780000553,129.90710399999807,130.90867780000553,129.90710399999807,130.90867780000553,right,1,0.3354125999903772,129.90710399999807,None,129.90710399999807,None,129.90710399999807,130.4075976000022,129.90710399999807,130.4075976000022,129.90710399999807,130.4075976000022,129.90710399999807,130.4075976000022,129.90710399999807,None,,,,,,,,,,,,,,,,,,,,,,,,,,,,,,,,,,,,,,,,,,11039,001,2024_Mar_13_1406,nback,2021.2.3,59.92961865539653,
2-back,instructions\back-2.png,conditions\2back-p.xlsx,instructions\2-BACK.png,"(25, 15)",practice,2,3,stim\gray.png,stim\gray.png,stim\yellow.png,stim\gray.png,up,0,0,0,0,0,2,2,2,0,16,16,16,,,,,,,,,,,,,,,,,,,,,,,,,,,131.40926010000112,132.41081270000723,131.40926010000112,132.41081270000723,131.40926010000112,132.41081270000723,131.40926010000112,132.41081270000723,up,1,0.3454271000082372,131.40926010000112,None,131.40926010000112,None,131.40926010000112,131.910054699998,131.40926010000112,131.910054699998,131.40926010000112,131.910054699998,131.40926010000112,131.910054699998,131.40926010000112,None,,,,,,,,,,,,,,,,,,,,,,,,,,,,,,,,,,,,,,,,,,11039,001,2024_Mar_13_1406,nback,2021.2.3,59.92961865539653,
2-back,instructions\back-2.png,conditions\2back-p.xlsx,instructions\2-BACK.png,"(25, 15)",practice,2,1,stim\yellow.png,stim\gray.png,stim\gray.png,stim\gray.png,left,0,0,0,0,0,2,2,2,0,17,17,17,,,,,,,,,,,,,,,,,,,,,,,,,,,132.91136610000103,133.91286630000104,132.91136610000103,133.91286630000104,132.91136610000103,133.91286630000104,132.91136610000103,133.91286630000104,left,1,0.25107509999361355,132.91136610000103,None,132.91136610000103,None,132.91136610000103,133.41210270000738,132.91136610000103,133.41210270000738,132.91136610000103,133.41210270000738,132.91136610000103,133.41210270000738,132.91136610000103,None,,,,,,,,,,,,,,,,,,,,,,,,,,,,,,,,,,,,,,,,,,11039,001,2024_Mar_13_1406,nback,2021.2.3,59.92961865539653,
2-back,instructions\back-2.png,conditions\2back-p.xlsx,instructions\2-BACK.png,"(25, 15)",practice,2,4,stim\gray.png,stim\gray.png,stim\gray.png,stim\yellow.png,right,0,0,0,0,0,2,2,2,0,18,18,18,,,,,,,,,,,,,,,,,,,,,,,,,,,134.41387530000065,135.41538960000616,134.41387530000065,135.41538960000616,134.41387530000065,135.41538960000616,134.41387530000065,135.41538960000616,right,1,0.3087955999944825,134.41387530000065,None,134.41387530000065,None,134.41387530000065,134.9145559000026,134.41387530000065,134.9145559000026,134.41387530000065,134.9145559000026,134.41387530000065,134.9145559000026,134.41387530000065,None,,,,,,,,,,,,,,,,,,,,,,,,,,,,,,,,,,,,,,,,,,11039,001,2024_Mar_13_1406,nback,2021.2.3,59.92961865539653,
2-back,instructions\back-2.png,conditions\2back-p.xlsx,instructions\2-BACK.png,"(25, 15)",practice,2,2,stim\gray.png,stim\yellow.png,stim\gray.png,stim\gray.png,up,0,0,0,0,0,2,2,2,0,19,19,19,,,,,,,,,,,,,,,,,,,,,,,,,,,135.91600330000801,136.91767249999975,135.91600330000801,136.91767249999975,135.91600330000801,136.91767249999975,135.91600330000801,136.91767249999975,up,1,0.2948127999989083,135.91600330000801,None,135.91600330000801,None,135.91600330000801,136.41672280000057,135.91600330000801,136.41672280000057,135.91600330000801,136.41672280000057,135.91600330000801,136.41672280000057,135.91600330000801,None,,,,,,,,,,,,,,,,,,,,,,,,,,,,,,,,,,,,,,,,,,11039,001,2024_Mar_13_1406,nback,2021.2.3,59.92961865539653,
2-back,instructions\back-2.png,conditions\2back-p.xlsx,instructions\2-BACK.png,"(25, 15)",,,,,,,,,0,0,0,0,0,2,2,2,,,,,,,,,,,,,,,,,,,,,,,,,,,,,,,,,,,,,,,,,,,,,,,,,,,,,,,,,,,,,,,,,,,,,,,,,,,,,,,,,,,,,,,,,,,,,,,,,11039,001,2024_Mar_13_1406,nback,2021.2.3,59.92961865539653,
,,,,,,,,,,,,,0,0,0,0,,,,,,,,,,,,,,,,,,,,,,,,,,,,,,,,,,,,,,,,,,,,,,,,,,,,,,,,,,,,137.41821319999872,None,s,4.096715100007714,137.41821319999872,None,,,,,,,,,,,,,,,,,,,,,,,,,,,,,,,,,,,,11039,001,2024_Mar_13_1406,nback,2021.2.3,59.92961865539653,
0-back,instructions\back-0.png,conditions\0back-p.xlsx,instructions\0-BACK.png,"(15, 8)",practice,0,1,stim\yellow.png,stim\gray.png,stim\gray.png,stim\gray.png,up,1,0,1,0,0,0,0,0,0,0,0,0,,,,,,,,,,,,,,,,,141.65837069999543,None,space,2.960239400010323,141.65837069999543,None,144.82938959999592,149.336561899996,149.26957050000783,None,149.67154789999768,150.67169380000269,149.67154789999768,150.67169380000269,149.67154789999768,150.67169380000269,149.67154789999768,150.67169380000269,up,1,0.5008244999917224,149.67154789999768,None,149.67154789999768,None,149.67154789999768,150.17215519999445,149.67154789999768,150.17215519999445,149.67154789999768,150.17215519999445,149.67154789999768,150.17215519999445,149.67154789999768,None,,,,,,,,,,,,,,,,,,,,,,,,,,,,,,,,,,,,,,,,,,11039,001,2024_Mar_13_1406,nback,2021.2.3,59.92961865539653,
0-back,instructions\back-0.png,conditions\0back-p.xlsx,instructions\0-BACK.png,"(15, 8)",practice,0,2,stim\gray.png,stim\yellow.png,stim\gray.png,stim\gray.png,left,1,0,1,0,0,0,0,0,0,1,1,1,,,,,,,,,,,,,,,,,,,,,,,,,,,151.1557199999952,152.15724020000198,151.1557199999952,152.15724020000198,151.1557199999952,152.15724020000198,151.1557199999952,152.15724020000198,left,1,0.4150602000008803,151.1557199999952,None,151.1557199999952,None,151.1557199999952,151.65654939999513,151.1557199999952,151.65654939999513,151.1557199999952,151.65654939999513,151.1557199999952,151.65654939999513,151.1557199999952,None,,,,,,,,,,,,,,,,,,,,,,,,,,,,,,,,,,,,,,,,,,11039,001,2024_Mar_13_1406,nback,2021.2.3,59.92961865539653,
0-back,instructions\back-0.png,conditions\0back-p.xlsx,instructions\0-BACK.png,"(15, 8)",practice,0,3,stim\gray.png,stim\gray.png,stim\yellow.png,stim\gray.png,right,1,0,1,0,0,0,0,0,0,2,2,2,,,,,,,,,,,,,,,,,,,,,,,,,,,152.65797349999775,153.65966659999685,152.65797349999775,153.65966659999685,152.65797349999775,153.65966659999685,152.65797349999775,153.65966659999685,right,1,0.35314269999798853,152.65797349999775,None,152.65797349999775,None,152.65797349999775,153.15871449999395,152.65797349999775,153.15871449999395,152.65797349999775,153.15871449999395,152.65797349999775,153.15871449999395,152.65797349999775,None,,,,,,,,,,,,,,,,,,,,,,,,,,,,,,,,,,,,,,,,,,11039,001,2024_Mar_13_1406,nback,2021.2.3,59.92961865539653,
0-back,instructions\back-0.png,conditions\0back-p.xlsx,instructions\0-BACK.png,"(15, 8)",practice,0,4,stim\gray.png,stim\gray.png,stim\gray.png,stim\yellow.png,down,1,0,1,0,0,0,0,0,0,3,3,3,,,,,,,,,,,,,,,,,,,,,,,,,,,154.1606160999945,155.16179169999668,154.1606160999945,155.16179169999668,154.1606160999945,155.16179169999668,154.1606160999945,155.16179169999668,down,1,0.4026067999948282,154.1606160999945,None,154.1606160999945,None,154.1606160999945,154.66195730000618,154.1606160999945,154.66195730000618,154.1606160999945,154.66195730000618,154.1606160999945,154.66195730000618,154.1606160999945,None,,,,,,,,,,,,,,,,,,,,,,,,,,,,,,,,,,,,,,,,,,11039,001,2024_Mar_13_1406,nback,2021.2.3,59.92961865539653,
0-back,instructions\back-0.png,conditions\0back-p.xlsx,instructions\0-BACK.png,"(15, 8)",practice,0,2,stim\gray.png,stim\yellow.png,stim\gray.png,stim\gray.png,left,1,0,1,0,0,0,0,0,0,4,4,4,,,,,,,,,,,,,,,,,,,,,,,,,,,155.66247629999998,156.6648806000012,155.66247629999998,156.6648806000012,155.66247629999998,156.6648806000012,155.66247629999998,156.6648806000012,left,1,0.35656320000998676,155.66247629999998,None,155.66247629999998,None,155.66247629999998,156.16319479999947,155.66247629999998,156.16319479999947,155.66247629999998,156.16319479999947,155.66247629999998,156.16319479999947,155.66247629999998,None,,,,,,,,,,,,,,,,,,,,,,,,,,,,,,,,,,,,,,,,,,11039,001,2024_Mar_13_1406,nback,2021.2.3,59.92961865539653,
0-back,instructions\back-0.png,conditions\0back-p.xlsx,instructions\0-BACK.png,"(15, 8)",practice,0,1,stim\yellow.png,stim\gray.png,stim\gray.png,stim\gray.png,up,1,0,1,0,0,0,0,0,0,5,5,5,,,,,,,,,,,,,,,,,,,,,,,,,,,157.16509850000148,158.16686470000423,157.16509850000148,158.16686470000423,157.16509850000148,158.16686470000423,157.16509850000148,158.16686470000423,up,1,0.3021449000079883,157.16509850000148,None,157.16509850000148,None,157.16509850000148,157.66599759999372,157.16509850000148,157.66599759999372,157.16509850000148,157.66599759999372,157.16509850000148,157.66599759999372,157.16509850000148,None,,,,,,,,,,,,,,,,,,,,,,,,,,,,,,,,,,,,,,,,,,11039,001,2024_Mar_13_1406,nback,2021.2.3,59.92961865539653,
0-back,instructions\back-0.png,conditions\0back-p.xlsx,instructions\0-BACK.png,"(15, 8)",practice,0,4,stim\gray.png,stim\gray.png,stim\gray.png,stim\yellow.png,down,1,0,1,0,0,0,0,0,0,6,6,6,,,,,,,,,,,,,,,,,,,,,,,,,,,158.6499560999946,159.651787099996,158.6499560999946,159.651787099996,158.6499560999946,159.651787099996,158.6499560999946,159.651787099996,down,1,0.4416646000026958,158.6499560999946,None,158.6499560999946,None,158.6499560999946,159.15183760000218,158.6499560999946,159.15183760000218,158.6499560999946,159.15183760000218,158.6499560999946,159.15183760000218,158.6499560999946,None,,,,,,,,,,,,,,,,,,,,,,,,,,,,,,,,,,,,,,,,,,11039,001,2024_Mar_13_1406,nback,2021.2.3,59.92961865539653,
0-back,instructions\back-0.png,conditions\0back-p.xlsx,instructions\0-BACK.png,"(15, 8)",practice,0,3,stim\gray.png,stim\gray.png,stim\yellow.png,stim\gray.png,right,1,0,1,0,0,0,0,0,0,7,7,7,,,,,,,,,,,,,,,,,,,,,,,,,,,160.15292750000663,161.15395510000235,160.15292750000663,161.15395510000235,160.15292750000663,161.15395510000235,160.15292750000663,161.15395510000235,right,1,0.2583634000038728,160.15292750000663,None,160.15292750000663,None,160.15292750000663,160.6538084000058,160.15292750000663,160.6538084000058,160.15292750000663,160.6538084000058,160.15292750000663,160.6538084000058,160.15292750000663,None,,,,,,,,,,,,,,,,,,,,,,,,,,,,,,,,,,,,,,,,,,11039,001,2024_Mar_13_1406,nback,2021.2.3,59.92961865539653,
0-back,instructions\back-0.png,conditions\0back-p.xlsx,instructions\0-BACK.png,"(15, 8)",practice,0,3,stim\gray.png,stim\gray.png,stim\yellow.png,stim\gray.png,right,1,0,1,0,0,0,0,0,0,8,8,8,,,,,,,,,,,,,,,,,,,,,,,,,,,161.6548008999962,162.65669050000724,161.6548008999962,162.65669050000724,161.6548008999962,162.65669050000724,161.6548008999962,162.65669050000724,right,1,0.3487191000021994,161.6548008999962,None,161.6548008999962,None,161.6548008999962,162.15654700000596,161.6548008999962,162.15654700000596,161.6548008999962,162.15654700000596,161.6548008999962,162.15654700000596,161.6548008999962,None,,,,,,,,,,,,,,,,,,,,,,,,,,,,,,,,,,,,,,,,,,11039,001,2024_Mar_13_1406,nback,2021.2.3,59.92961865539653,
0-back,instructions\back-0.png,conditions\0back-p.xlsx,instructions\0-BACK.png,"(15, 8)",practice,0,4,stim\gray.png,stim\gray.png,stim\gray.png,stim\yellow.png,down,1,0,1,0,0,0,0,0,0,9,9,9,,,,,,,,,,,,,,,,,,,,,,,,,,,163.15715009999985,164.15836590000254,163.15715009999985,164.15836590000254,163.15715009999985,164.15836590000254,163.15715009999985,164.15836590000254,down,1,0.47826039999199566,163.15715009999985,None,163.15715009999985,None,163.15715009999985,163.65772590000415,163.15715009999985,163.65772590000415,163.15715009999985,163.65772590000415,163.15715009999985,163.65772590000415,163.15715009999985,None,,,,,,,,,,,,,,,,,,,,,,,,,,,,,,,,,,,,,,,,,,11039,001,2024_Mar_13_1406,nback,2021.2.3,59.92961865539653,
0-back,instructions\back-0.png,conditions\0back-p.xlsx,instructions\0-BACK.png,"(15, 8)",practice,0,1,stim\yellow.png,stim\gray.png,stim\gray.png,stim\gray.png,up,1,0,1,0,0,0,0,0,0,10,10,10,,,,,,,,,,,,,,,,,,,,,,,,,,,164.65944830000808,165.66068479999376,164.65944830000808,165.66068479999376,164.65944830000808,165.66068479999376,164.65944830000808,165.66068479999376,up,1,0.32787309998821,164.65944830000808,None,164.65944830000808,None,164.65944830000808,165.15999159999774,164.65944830000808,165.15999159999774,164.65944830000808,165.15999159999774,164.65944830000808,165.15999159999774,164.65944830000808,None,,,,,,,,,,,,,,,,,,,,,,,,,,,,,,,,,,,,,,,,,,11039,001,2024_Mar_13_1406,nback,2021.2.3,59.92961865539653,
0-back,instructions\back-0.png,conditions\0back-p.xlsx,instructions\0-BACK.png,"(15, 8)",practice,0,2,stim\gray.png,stim\yellow.png,stim\gray.png,stim\gray.png,left,1,0,1,0,0,0,0,0,0,11,11,11,,,,,,,,,,,,,,,,,,,,,,,,,,,166.1616534000059,167.16303540000808,166.1616534000059,167.16303540000808,166.1616534000059,167.16303540000808,166.1616534000059,167.16303540000808,left,1,0.28991309998673387,166.1616534000059,None,166.1616534000059,None,166.1616534000059,166.66247219999786,166.1616534000059,166.66247219999786,166.1616534000059,166.66247219999786,166.1616534000059,166.66247219999786,166.1616534000059,None,,,,,,,,,,,,,,,,,,,,,,,,,,,,,,,,,,,,,,,,,,11039,001,2024_Mar_13_1406,nback,2021.2.3,59.92961865539653,
0-back,instructions\back-0.png,conditions\0back-p.xlsx,instructions\0-BACK.png,"(15, 8)",practice,0,4,stim\gray.png,stim\gray.png,stim\gray.png,stim\yellow.png,down,1,0,1,0,0,0,0,0,0,12,12,12,,,,,,,,,,,,,,,,,,,,,,,,,,,167.66324890000396,168.66547540000465,167.66324890000396,168.66547540000465,167.66324890000396,168.66547540000465,167.66324890000396,168.66547540000465,down,1,0.3725256000034278,167.66324890000396,None,167.66324890000396,None,167.66324890000396,168.16462820000015,167.66324890000396,168.16462820000015,167.66324890000396,168.16462820000015,167.66324890000396,168.16462820000015,167.66324890000396,None,,,,,,,,,,,,,,,,,,,,,,,,,,,,,,,,,,,,,,,,,,11039,001,2024_Mar_13_1406,nback,2021.2.3,59.92961865539653,
0-back,instructions\back-0.png,conditions\0back-p.xlsx,instructions\0-BACK.png,"(15, 8)",practice,0,3,stim\gray.png,stim\gray.png,stim\yellow.png,stim\gray.png,right,1,0,1,0,0,0,0,0,0,13,13,13,,,,,,,,,,,,,,,,,,,,,,,,,,,169.14933080000628,170.15091759999632,169.14933080000628,170.15091759999632,169.14933080000628,170.15091759999632,169.14933080000628,170.15091759999632,right,1,0.40611989999888465,169.14933080000628,None,169.14933080000628,None,169.14933080000628,169.65086429999792,169.14933080000628,169.65086429999792,169.14933080000628,169.65086429999792,169.14933080000628,169.65086429999792,169.14933080000628,None,,,,,,,,,,,,,,,,,,,,,,,,,,,,,,,,,,,,,,,,,,11039,001,2024_Mar_13_1406,nback,2021.2.3,59.92961865539653,
0-back,instructions\back-0.png,conditions\0back-p.xlsx,instructions\0-BACK.png,"(15, 8)",practice,0,1,stim\yellow.png,stim\gray.png,stim\gray.png,stim\gray.png,up,1,0,1,0,0,0,0,0,0,14,14,14,,,,,,,,,,,,,,,,,,,,,,,,,,,170.65165010000055,171.65314989999752,170.65165010000055,171.65314989999752,170.65165010000055,171.65314989999752,170.65165010000055,171.65314989999752,up,1,0.3279488999978639,170.65165010000055,None,170.65165010000055,None,170.65165010000055,171.15246399999887,170.65165010000055,171.15246399999887,170.65165010000055,171.15246399999887,170.65165010000055,171.15246399999887,170.65165010000055,None,,,,,,,,,,,,,,,,,,,,,,,,,,,,,,,,,,,,,,,,,,11039,001,2024_Mar_13_1406,nback,2021.2.3,59.92961865539653,
0-back,instructions\back-0.png,conditions\0back-p.xlsx,instructions\0-BACK.png,"(15, 8)",practice,0,2,stim\gray.png,stim\yellow.png,stim\gray.png,stim\gray.png,left,1,0,1,0,0,0,0,0,0,15,15,15,,,,,,,,,,,,,,,,,,,,,,,,,,,172.15401539999584,173.15547440000228,172.15401539999584,173.15547440000228,172.15401539999584,173.15547440000228,172.15401539999584,173.15547440000228,left,1,0.35359310000785626,172.15401539999584,None,172.15401539999584,None,172.15401539999584,172.65548410000338,172.15401539999584,172.65548410000338,172.15401539999584,172.65548410000338,172.15401539999584,172.65548410000338,172.15401539999584,None,,,,,,,,,,,,,,,,,,,,,,,,,,,,,,,,,,,,,,,,,,11039,001,2024_Mar_13_1406,nback,2021.2.3,59.92961865539653,
0-back,instructions\back-0.png,conditions\0back-p.xlsx,instructions\0-BACK.png,"(15, 8)",practice,0,3,stim\gray.png,stim\gray.png,stim\yellow.png,stim\gray.png,right,1,0,1,0,0,0,0,0,0,16,16,16,,,,,,,,,,,,,,,,,,,,,,,,,,,173.65635889999976,174.65791589999571,173.65635889999976,174.65791589999571,173.65635889999976,174.65791589999571,173.65635889999976,174.65791589999571,right,1,0.4678303999971831,173.65635889999976,None,173.65635889999976,None,173.65635889999976,174.15704099999857,173.65635889999976,174.15704099999857,173.65635889999976,174.15704099999857,173.65635889999976,174.15704099999857,173.65635889999976,None,,,,,,,,,,,,,,,,,,,,,,,,,,,,,,,,,,,,,,,,,,11039,001,2024_Mar_13_1406,nback,2021.2.3,59.92961865539653,
0-back,instructions\back-0.png,conditions\0back-p.xlsx,instructions\0-BACK.png,"(15, 8)",practice,0,1,stim\yellow.png,stim\gray.png,stim\gray.png,stim\gray.png,up,1,0,1,0,0,0,0,0,0,17,17,17,,,,,,,,,,,,,,,,,,,,,,,,,,,175.15834290000203,176.1609868999949,175.15834290000203,176.1609868999949,175.15834290000203,176.1609868999949,175.15834290000203,176.1609868999949,up,1,0.4375568999967072,175.15834290000203,None,175.15834290000203,None,175.15834290000203,175.65928779999376,175.15834290000203,175.65928779999376,175.15834290000203,175.65928779999376,175.15834290000203,175.65928779999376,175.15834290000203,None,,,,,,,,,,,,,,,,,,,,,,,,,,,,,,,,,,,,,,,,,,11039,001,2024_Mar_13_1406,nback,2021.2.3,59.92961865539653,
0-back,instructions\back-0.png,conditions\0back-p.xlsx,instructions\0-BACK.png,"(15, 8)",practice,0,4,stim\gray.png,stim\gray.png,stim\gray.png,stim\yellow.png,down,1,0,1,0,0,0,0,0,0,18,18,18,,,,,,,,,,,,,,,,,,,,,,,,,,,176.66075049999927,177.66230240000004,176.66075049999927,177.66230240000004,176.66075049999927,177.66230240000004,176.66075049999927,177.66230240000004,down,1,0.37513359999866225,176.66075049999927,None,176.66075049999927,None,176.66075049999927,177.16204700000526,176.66075049999927,177.16204700000526,176.66075049999927,177.16204700000526,176.66075049999927,177.16204700000526,176.66075049999927,None,,,,,,,,,,,,,,,,,,,,,,,,,,,,,,,,,,,,,,,,,,11039,001,2024_Mar_13_1406,nback,2021.2.3,59.92961865539653,
0-back,instructions\back-0.png,conditions\0back-p.xlsx,instructions\0-BACK.png,"(15, 8)",practice,0,2,stim\gray.png,stim\yellow.png,stim\gray.png,stim\gray.png,left,1,0,1,0,0,0,0,0,0,19,19,19,,,,,,,,,,,,,,,,,,,,,,,,,,,178.16299700000673,179.16460160000133,178.16299700000673,179.16460160000133,178.16299700000673,179.16460160000133,178.16299700000673,179.16460160000133,left,1,0.3365143999981228,178.16299700000673,None,178.16299700000673,None,178.16299700000673,178.66425299999537,178.16299700000673,178.66425299999537,178.16299700000673,178.66425299999537,178.16299700000673,178.66425299999537,178.16299700000673,None,,,,,,,,,,,,,,,,,,,,,,,,,,,,,,,,,,,,,,,,,,11039,001,2024_Mar_13_1406,nback,2021.2.3,59.92961865539653,
0-back,instructions\back-0.png,conditions\0back-p.xlsx,instructions\0-BACK.png,"(15, 8)",,,,,,,,,1,0,1,0,0,0,0,0,,,,,,,,,,,,,,,,,,,,,,,,,,,,,,,,,,,,,,,,,,,,,,,,,,,,,,,,,,,,,,,,,,,,,,,,,,,,,,,,,,,,,,,,,,,,,,,,,11039,001,2024_Mar_13_1406,nback,2021.2.3,59.92961865539653,
1-back,instructions\back-1.png,conditions\1back-p.xlsx,instructions\1-BACK.png,"(25, 15)",practice,1,1,stim\yellow.png,stim\gray.png,stim\gray.png,stim\gray.png,None,1,0,1,0,0,1,1,1,0,0,0,0,,,,,,,,,,,,,,,,,179.88205840000592,None,space,10.442059699998936,179.88205840000592,None,190.48131139999896,194.9900154000061,194.97143220000726,None,195.3735813999956,196.37495209999906,195.3735813999956,196.37495209999906,195.3735813999956,196.37495209999906,195.3735813999956,196.37495209999906,None,1,,195.3735813999956,None,195.3735813999956,None,195.3735813999956,195.87405529999523,195.3735813999956,195.87405529999523,195.3735813999956,195.87405529999523,195.3735813999956,195.87405529999523,195.3735813999956,None,,,,,,,,,,,,,,,,,,,,,,,,,,,,,,,,,,,,,,,,,,11039,001,2024_Mar_13_1406,nback,2021.2.3,59.92961865539653,
1-back,instructions\back-1.png,conditions\1back-p.xlsx,instructions\1-BACK.png,"(25, 15)",practice,1,2,stim\gray.png,stim\yellow.png,stim\gray.png,stim\gray.png,up,1,0,1,0,0,1,1,1,0,1,1,1,,,,,,,,,,,,,,,,,,,,,,,,,,,196.85829590000503,197.85956799999985,196.85829590000503,197.85956799999985,196.85829590000503,197.85956799999985,196.85829590000503,197.85956799999985,left,0,0.37019319999672007,196.85829590000503,None,196.85829590000503,None,196.85829590000503,197.35873239999637,196.85829590000503,197.35873239999637,196.85829590000503,197.35873239999637,196.85829590000503,197.35873239999637,196.85829590000503,None,,,,,,,,,,,,,,,,,,,,,,,,,,,,,,,,,,,,,,,,,,11039,001,2024_Mar_13_1406,nback,2021.2.3,59.92961865539653,
1-back,instructions\back-1.png,conditions\1back-p.xlsx,instructions\1-BACK.png,"(25, 15)",practice,1,3,stim\gray.png,stim\gray.png,stim\yellow.png,stim\gray.png,left,1,0,1,0,0,1,1,1,0,2,2,2,,,,,,,,,,,,,,,,,,,,,,,,,,,198.36020239999925,199.3624920000002,198.36020239999925,199.3624920000002,198.36020239999925,199.3624920000002,198.36020239999925,199.3624920000002,left,1,0.356573600001866,198.36020239999925,None,198.36020239999925,None,198.36020239999925,198.8609402000002,198.36020239999925,198.8609402000002,198.36020239999925,198.8609402000002,198.36020239999925,198.8609402000002,198.36020239999925,None,,,,,,,,,,,,,,,,,,,,,,,,,,,,,,,,,,,,,,,,,,11039,001,2024_Mar_13_1406,nback,2021.2.3,59.92961865539653,
1-back,instructions\back-1.png,conditions\1back-p.xlsx,instructions\1-BACK.png,"(25, 15)",practice,1,4,stim\gray.png,stim\gray.png,stim\gray.png,stim\yellow.png,right,1,0,1,0,0,1,1,1,0,3,3,3,,,,,,,,,,,,,,,,,,,,,,,,,,,199.86253680000664,200.86377949999587,199.86253680000664,200.86377949999587,199.86253680000664,200.86377949999587,199.86253680000664,200.86377949999587,right,1,0.37465560001146514,199.86253680000664,None,199.86253680000664,None,199.86253680000664,200.3631802000018,199.86253680000664,200.3631802000018,199.86253680000664,200.3631802000018,199.86253680000664,200.3631802000018,199.86253680000664,None,,,,,,,,,,,,,,,,,,,,,,,,,,,,,,,,,,,,,,,,,,11039,001,2024_Mar_13_1406,nback,2021.2.3,59.92961865539653,
1-back,instructions\back-1.png,conditions\1back-p.xlsx,instructions\1-BACK.png,"(25, 15)",practice,1,2,stim\gray.png,stim\yellow.png,stim\gray.png,stim\gray.png,down,1,0,1,0,0,1,1,1,0,4,4,4,,,,,,,,,,,,,,,,,,,,,,,,,,,201.36479469999904,202.36602570000105,201.36479469999904,202.36602570000105,201.36479469999904,202.36602570000105,201.36479469999904,202.36602570000105,down,1,0.31978750000416767,201.36479469999904,None,201.36479469999904,None,201.36479469999904,201.86563869999372,201.36479469999904,201.86563869999372,201.36479469999904,201.86563869999372,201.36479469999904,201.86563869999372,201.36479469999904,None,,,,,,,,,,,,,,,,,,,,,,,,,,,,,,,,,,,,,,,,,,11039,001,2024_Mar_13_1406,nback,2021.2.3,59.92961865539653,
1-back,instructions\back-1.png,conditions\1back-p.xlsx,instructions\1-BACK.png,"(25, 15)",practice,1,1,stim\yellow.png,stim\gray.png,stim\gray.png,stim\gray.png,left,1,0,1,0,0,1,1,1,0,5,5,5,,,,,,,,,,,,,,,,,,,,,,,,,,,202.86752689999412,203.8685395000066,202.86752689999412,203.8685395000066,202.86752689999412,203.8685395000066,202.86752689999412,203.8685395000066,left,1,0.2729876000084914,202.86752689999412,None,202.86752689999412,None,202.86752689999412,203.36846280000464,202.86752689999412,203.36846280000464,202.86752689999412,203.36846280000464,202.86752689999412,203.36846280000464,202.86752689999412,None,,,,,,,,,,,,,,,,,,,,,,,,,,,,,,,,,,,,,,,,,,11039,001,2024_Mar_13_1406,nback,2021.2.3,59.92961865539653,
1-back,instructions\back-1.png,conditions\1back-p.xlsx,instructions\1-BACK.png,"(25, 15)",practice,1,4,stim\gray.png,stim\gray.png,stim\gray.png,stim\yellow.png,up,1,0,1,0,0,1,1,1,0,6,6,6,,,,,,,,,,,,,,,,,,,,,,,,,,,204.36903139999777,205.37150239999755,204.36903139999777,205.37150239999755,204.36903139999777,205.37150239999755,204.36903139999777,205.37150239999755,up,1,0.1472285999916494,204.36903139999777,None,204.36903139999777,None,204.36903139999777,204.869743999996,204.36903139999777,204.869743999996,204.36903139999777,204.869743999996,204.36903139999777,204.869743999996,204.36903139999777,None,,,,,,,,,,,,,,,,,,,,,,,,,,,,,,,,,,,,,,,,,,11039,001,2024_Mar_13_1406,nback,2021.2.3,59.92961865539653,
1-back,instructions\back-1.png,conditions\1back-p.xlsx,instructions\1-BACK.png,"(25, 15)",practice,1,3,stim\gray.png,stim\gray.png,stim\yellow.png,stim\gray.png,down,1,0,1,0,0,1,1,1,0,7,7,7,,,,,,,,,,,,,,,,,,,,,,,,,,,205.85467430000426,206.8564297999983,205.85467430000426,206.8564297999983,205.85467430000426,206.8564297999983,205.85467430000426,206.8564297999983,down,1,0.23827129999699537,205.85467430000426,None,205.85467430000426,None,205.85467430000426,206.3555453000008,205.85467430000426,206.3555453000008,205.85467430000426,206.3555453000008,205.85467430000426,206.3555453000008,205.85467430000426,None,,,,,,,,,,,,,,,,,,,,,,,,,,,,,,,,,,,,,,,,,,11039,001,2024_Mar_13_1406,nback,2021.2.3,59.92961865539653,
1-back,instructions\back-1.png,conditions\1back-p.xlsx,instructions\1-BACK.png,"(25, 15)",practice,1,3,stim\gray.png,stim\gray.png,stim\yellow.png,stim\gray.png,right,1,0,1,0,0,1,1,1,0,8,8,8,,,,,,,,,,,,,,,,,,,,,,,,,,,207.35708400000294,208.35874049999984,207.35708400000294,208.35874049999984,207.35708400000294,208.35874049999984,207.35708400000294,208.35874049999984,down,0,0.4316997999994783,207.35708400000294,None,207.35708400000294,None,207.35708400000294,207.85775720000674,207.35708400000294,207.85775720000674,207.35708400000294,207.85775720000674,207.35708400000294,207.85775720000674,207.35708400000294,None,,,,,,,,,,,,,,,,,,,,,,,,,,,,,,,,,,,,,,,,,,11039,001,2024_Mar_13_1406,nback,2021.2.3,59.92961865539653,
1-back,instructions\back-1.png,conditions\1back-p.xlsx,instructions\1-BACK.png,"(25, 15)",practice,1,4,stim\gray.png,stim\gray.png,stim\gray.png,stim\yellow.png,right,1,0,1,0,0,1,1,1,0,9,9,9,,,,,,,,,,,,,,,,,,,,,,,,,,,208.85943349999434,209.860700300007,208.85943349999434,209.860700300007,208.85943349999434,209.860700300007,208.85943349999434,209.860700300007,right,1,0.32141350000165403,208.85943349999434,None,208.85943349999434,None,208.85943349999434,209.36019649999798,208.85943349999434,209.36019649999798,208.85943349999434,209.36019649999798,208.85943349999434,209.36019649999798,208.85943349999434,None,,,,,,,,,,,,,,,,,,,,,,,,,,,,,,,,,,,,,,,,,,11039,001,2024_Mar_13_1406,nback,2021.2.3,59.92961865539653,
1-back,instructions\back-1.png,conditions\1back-p.xlsx,instructions\1-BACK.png,"(25, 15)",practice,1,1,stim\yellow.png,stim\gray.png,stim\gray.png,stim\gray.png,down,1,0,1,0,0,1,1,1,0,10,10,10,,,,,,,,,,,,,,,,,,,,,,,,,,,210.36165130000154,211.36297770000238,210.36165130000154,211.36297770000238,210.36165130000154,211.36297770000238,210.36165130000154,211.36297770000238,down,1,0.3547308000124758,210.36165130000154,None,210.36165130000154,None,210.36165130000154,210.86285439999483,210.36165130000154,210.86285439999483,210.36165130000154,210.86285439999483,210.36165130000154,210.86285439999483,210.36165130000154,None,,,,,,,,,,,,,,,,,,,,,,,,,,,,,,,,,,,,,,,,,,11039,001,2024_Mar_13_1406,nback,2021.2.3,59.92961865539653,
1-back,instructions\back-1.png,conditions\1back-p.xlsx,instructions\1-BACK.png,"(25, 15)",practice,1,2,stim\gray.png,stim\yellow.png,stim\gray.png,stim\gray.png,up,1,0,1,0,0,1,1,1,0,11,11,11,,,,,,,,,,,,,,,,,,,,,,,,,,,211.86385710000468,212.8654652999976,211.86385710000468,212.8654652999976,211.86385710000468,212.8654652999976,211.86385710000468,212.8654652999976,up,1,0.37287730000389274,211.86385710000468,None,211.86385710000468,None,211.86385710000468,212.36544740000681,211.86385710000468,212.36544740000681,211.86385710000468,212.36544740000681,211.86385710000468,212.36544740000681,211.86385710000468,None,,,,,,,,,,,,,,,,,,,,,,,,,,,,,,,,,,,,,,,,,,11039,001,2024_Mar_13_1406,nback,2021.2.3,59.92961865539653,
1-back,instructions\back-1.png,conditions\1back-p.xlsx,instructions\1-BACK.png,"(25, 15)",practice,1,4,stim\gray.png,stim\gray.png,stim\gray.png,stim\yellow.png,left,1,0,1,0,0,1,1,1,0,12,12,12,,,,,,,,,,,,,,,,,,,,,,,,,,,213.36591389999376,214.3684471000015,213.36591389999376,214.3684471000015,213.36591389999376,214.3684471000015,213.36591389999376,214.3684471000015,left,1,0.23101669999596197,213.36591389999376,None,213.36591389999376,None,213.36591389999376,213.86663540000154,213.36591389999376,213.86663540000154,213.36591389999376,213.86663540000154,213.36591389999376,213.86663540000154,213.36591389999376,None,,,,,,,,,,,,,,,,,,,,,,,,,,,,,,,,,,,,,,,,,,11039,001,2024_Mar_13_1406,nback,2021.2.3,59.92961865539653,
1-back,instructions\back-1.png,conditions\1back-p.xlsx,instructions\1-BACK.png,"(25, 15)",practice,1,3,stim\gray.png,stim\gray.png,stim\yellow.png,stim\gray.png,down,1,0,1,0,0,1,1,1,0,13,13,13,,,,,,,,,,,,,,,,,,,,,,,,,,,214.85200300000724,215.85428929999762,214.85200300000724,215.85428929999762,214.85200300000724,215.85428929999762,214.85200300000724,215.85428929999762,down,1,0.20873980000033043,214.85200300000724,None,214.85200300000724,None,214.85200300000724,215.35247369999706,214.85200300000724,215.35247369999706,214.85200300000724,215.35247369999706,214.85200300000724,215.35247369999706,214.85200300000724,None,,,,,,,,,,,,,,,,,,,,,,,,,,,,,,,,,,,,,,,,,,11039,001,2024_Mar_13_1406,nback,2021.2.3,59.92961865539653,
1-back,instructions\back-1.png,conditions\1back-p.xlsx,instructions\1-BACK.png,"(25, 15)",practice,1,1,stim\yellow.png,stim\gray.png,stim\gray.png,stim\gray.png,right,1,0,1,0,0,1,1,1,0,14,14,14,,,,,,,,,,,,,,,,,,,,,,,,,,,216.3539121000067,217.3552892000007,216.3539121000067,217.3552892000007,216.3539121000067,217.3552892000007,216.3539121000067,217.3552892000007,right,1,0.19511099999363068,216.3539121000067,None,216.3539121000067,None,216.3539121000067,216.85476980000385,216.3539121000067,216.85476980000385,216.3539121000067,216.85476980000385,216.3539121000067,216.85476980000385,216.3539121000067,None,,,,,,,,,,,,,,,,,,,,,,,,,,,,,,,,,,,,,,,,,,11039,001,2024_Mar_13_1406,nback,2021.2.3,59.92961865539653,
1-back,instructions\back-1.png,conditions\1back-p.xlsx,instructions\1-BACK.png,"(25, 15)",practice,1,2,stim\gray.png,stim\yellow.png,stim\gray.png,stim\gray.png,up,1,0,1,0,0,1,1,1,0,15,15,15,,,,,,,,,,,,,,,,,,,,,,,,,,,217.8562649999949,218.8577462999965,217.8562649999949,218.8577462999965,217.8562649999949,218.8577462999965,217.8562649999949,218.8577462999965,up,1,0.30146139999851584,217.8562649999949,None,217.8562649999949,None,217.8562649999949,218.35723979999602,217.8562649999949,218.35723979999602,217.8562649999949,218.35723979999602,217.8562649999949,218.35723979999602,217.8562649999949,None,,,,,,,,,,,,,,,,,,,,,,,,,,,,,,,,,,,,,,,,,,11039,001,2024_Mar_13_1406,nback,2021.2.3,59.92961865539653,
1-back,instructions\back-1.png,conditions\1back-p.xlsx,instructions\1-BACK.png,"(25, 15)",practice,1,3,stim\gray.png,stim\gray.png,stim\yellow.png,stim\gray.png,left,1,0,1,0,0,1,1,1,0,16,16,16,,,,,,,,,,,,,,,,,,,,,,,,,,,219.359191800002,220.36131370000658,219.359191800002,220.36131370000658,219.359191800002,220.36131370000658,219.359191800002,220.36131370000658,left,1,0.23750979999022093,219.359191800002,None,219.359191800002,None,219.359191800002,219.85923990000447,219.359191800002,219.85923990000447,219.359191800002,219.85923990000447,219.359191800002,219.85923990000447,219.359191800002,None,,,,,,,,,,,,,,,,,,,,,,,,,,,,,,,,,,,,,,,,,,11039,001,2024_Mar_13_1406,nback,2021.2.3,59.92961865539653,
1-back,instructions\back-1.png,conditions\1back-p.xlsx,instructions\1-BACK.png,"(25, 15)",practice,1,1,stim\yellow.png,stim\gray.png,stim\gray.png,stim\gray.png,right,1,0,1,0,0,1,1,1,0,17,17,17,,,,,,,,,,,,,,,,,,,,,,,,,,,220.86054920000606,221.8633128000074,220.86054920000606,221.8633128000074,220.86054920000606,221.8633128000074,220.86054920000606,221.8633128000074,right,1,0.1923763999948278,220.86054920000606,None,220.86054920000606,None,220.86054920000606,221.36145430000033,220.86054920000606,221.36145430000033,220.86054920000606,221.36145430000033,220.86054920000606,221.36145430000033,220.86054920000606,None,,,,,,,,,,,,,,,,,,,,,,,,,,,,,,,,,,,,,,,,,,11039,001,2024_Mar_13_1406,nback,2021.2.3,59.92961865539653,
1-back,instructions\back-1.png,conditions\1back-p.xlsx,instructions\1-BACK.png,"(25, 15)",practice,1,4,stim\gray.png,stim\gray.png,stim\gray.png,stim\yellow.png,up,1,0,1,0,0,1,1,1,0,18,18,18,,,,,,,,,,,,,,,,,,,,,,,,,,,222.362816199995,223.36444190000475,222.362816199995,223.36444190000475,222.362816199995,223.36444190000475,222.362816199995,223.36444190000475,up,1,0.11426729999948293,222.362816199995,None,222.362816199995,None,222.362816199995,222.86450169999443,222.362816199995,222.86450169999443,222.362816199995,222.86450169999443,222.362816199995,222.86450169999443,222.362816199995,None,,,,,,,,,,,,,,,,,,,,,,,,,,,,,,,,,,,,,,,,,,11039,001,2024_Mar_13_1406,nback,2021.2.3,59.92961865539653,
1-back,instructions\back-1.png,conditions\1back-p.xlsx,instructions\1-BACK.png,"(25, 15)",practice,1,2,stim\gray.png,stim\yellow.png,stim\gray.png,stim\gray.png,down,1,0,1,0,0,1,1,1,0,19,19,19,,,,,,,,,,,,,,,,,,,,,,,,,,,223.8662375999993,224.867708699996,223.8662375999993,224.867708699996,223.8662375999993,224.867708699996,223.8662375999993,224.867708699996,down,1,0.14726470000459813,223.8662375999993,None,223.8662375999993,None,223.8662375999993,224.3659473000007,223.8662375999993,224.3659473000007,223.8662375999993,224.3659473000007,223.8662375999993,224.3659473000007,223.8662375999993,None,,,,,,,,,,,,,,,,,,,,,,,,,,,,,,,,,,,,,,,,,,11039,001,2024_Mar_13_1406,nback,2021.2.3,59.92961865539653,
1-back,instructions\back-1.png,conditions\1back-p.xlsx,instructions\1-BACK.png,"(25, 15)",,,,,,,,,1,0,1,0,0,1,1,1,,,,,,,,,,,,,,,,,,,,,,,,,,,,,,,,,,,,,,,,,,,,,,,,,,,,,,,,,,,,,,,,,,,,,,,,,,,,,,,,,,,,,,,,,,,,,,,,,11039,001,2024_Mar_13_1406,nback,2021.2.3,59.92961865539653,
2-back,instructions\back-2.png,conditions\2back-p.xlsx,instructions\2-BACK.png,"(25, 15)",practice,2,1,stim\yellow.png,stim\gray.png,stim\gray.png,stim\gray.png,None,1,0,1,0,0,2,2,2,0,0,0,0,,,,,,,,,,,,,,,,,225.60114070000418,None,space,2.476057799998671,225.60114070000418,None,228.23821199999657,232.74618149999878,232.6952295999945,None,233.13064889999805,234.130768300005,233.13064889999805,234.130768300005,233.13064889999805,234.130768300005,233.13064889999805,234.130768300005,None,1,,233.13064889999805,None,233.13064889999805,None,233.13064889999805,233.63007610000204,233.13064889999805,233.63007610000204,233.13064889999805,233.63007610000204,233.13064889999805,233.63007610000204,233.13064889999805,None,,,,,,,,,,,,,,,,,,,,,,,,,,,,,,,,,,,,,,,,,,11039,001,2024_Mar_13_1406,nback,2021.2.3,59.92961865539653,
2-back,instructions\back-2.png,conditions\2back-p.xlsx,instructions\2-BACK.png,"(25, 15)",practice,2,2,stim\gray.png,stim\yellow.png,stim\gray.png,stim\gray.png,None,1,0,1,0,0,2,2,2,0,1,1,1,,,,,,,,,,,,,,,,,,,,,,,,,,,234.6151178,235.6166921999975,234.6151178,235.6166921999975,234.6151178,235.6166921999975,234.6151178,235.6166921999975,None,1,,234.6151178,None,234.6151178,None,234.6151178,235.11562949999643,234.6151178,235.11562949999643,234.6151178,235.11562949999643,234.6151178,235.11562949999643,234.6151178,None,,,,,,,,,,,,,,,,,,,,,,,,,,,,,,,,,,,,,,,,,,11039,001,2024_Mar_13_1406,nback,2021.2.3,59.92961865539653,
2-back,instructions\back-2.png,conditions\2back-p.xlsx,instructions\2-BACK.png,"(25, 15)",practice,2,3,stim\gray.png,stim\gray.png,stim\yellow.png,stim\gray.png,up,1,0,1,0,0,2,2,2,0,2,2,2,,,,,,,,,,,,,,,,,,,,,,,,,,,236.11699300000328,237.1186347000039,236.11699300000328,237.1186347000039,236.11699300000328,237.1186347000039,236.11699300000328,237.1186347000039,up,1,0.24109579999640118,236.11699300000328,None,236.11699300000328,None,236.11699300000328,236.6176817999949,236.11699300000328,236.6176817999949,236.11699300000328,236.6176817999949,236.11699300000328,236.6176817999949,236.11699300000328,None,,,,,,,,,,,,,,,,,,,,,,,,,,,,,,,,,,,,,,,,,,11039,001,2024_Mar_13_1406,nback,2021.2.3,59.92961865539653,
2-back,instructions\back-2.png,conditions\2back-p.xlsx,instructions\2-BACK.png,"(25, 15)",practice,2,4,stim\gray.png,stim\gray.png,stim\gray.png,stim\yellow.png,left,1,0,1,0,0,2,2,2,0,3,3,3,,,,,,,,,,,,,,,,,,,,,,,,,,,237.61915329999465,238.62162580000586,237.61915329999465,238.62162580000586,237.61915329999465,238.62162580000586,237.61915329999465,238.62162580000586,left,1,0.19406189999426715,237.61915329999465,None,237.61915329999465,None,237.61915329999465,238.12025079999876,237.61915329999465,238.12025079999876,237.61915329999465,238.12025079999876,237.61915329999465,238.12025079999876,237.61915329999465,None,,,,,,,,,,,,,,,,,,,,,,,,,,,,,,,,,,,,,,,,,,11039,001,2024_Mar_13_1406,nback,2021.2.3,59.92961865539653,
2-back,instructions\back-2.png,conditions\2back-p.xlsx,instructions\2-BACK.png,"(25, 15)",practice,2,2,stim\gray.png,stim\yellow.png,stim\gray.png,stim\gray.png,right,1,0,1,0,0,2,2,2,0,4,4,4,,,,,,,,,,,,,,,,,,,,,,,,,,,239.12159110000357,240.1231004000001,239.12159110000357,240.1231004000001,239.12159110000357,240.1231004000001,239.12159110000357,240.1231004000001,right,1,0.17235200000868645,239.12159110000357,None,239.12159110000357,None,239.12159110000357,239.6232178000064,239.12159110000357,239.6232178000064,239.12159110000357,239.6232178000064,239.12159110000357,239.6232178000064,239.12159110000357,None,,,,,,,,,,,,,,,,,,,,,,,,,,,,,,,,,,,,,,,,,,11039,001,2024_Mar_13_1406,nback,2021.2.3,59.92961865539653,
2-back,instructions\back-2.png,conditions\2back-p.xlsx,instructions\2-BACK.png,"(25, 15)",practice,2,1,stim\yellow.png,stim\gray.png,stim\gray.png,stim\gray.png,down,1,0,1,0,0,2,2,2,0,5,5,5,,,,,,,,,,,,,,,,,,,,,,,,,,,240.6250982000056,241.6256710000016,240.6250982000056,241.6256710000016,240.6250982000056,241.6256710000016,240.6250982000056,241.6256710000016,left,0,1.3567647999880137,240.6250982000056,None,240.6250982000056,None,240.6250982000056,241.12485580000794,240.6250982000056,241.12485580000794,240.6250982000056,241.12485580000794,240.6250982000056,241.12485580000794,240.6250982000056,None,,,,,,,,,,,,,,,,,,,,,,,,,,,,,,,,,,,,,,,,,,11039,001,2024_Mar_13_1406,nback,2021.2.3,59.92961865539653,
2-back,instructions\back-2.png,conditions\2back-p.xlsx,instructions\2-BACK.png,"(25, 15)",practice,2,4,stim\gray.png,stim\gray.png,stim\gray.png,stim\yellow.png,left,1,0,1,0,0,2,2,2,0,6,6,6,,,,,,,,,,,,,,,,,,,,,,,,,,,242.10928960000456,243.11143000000448,242.10928960000456,243.11143000000448,242.10928960000456,243.11143000000448,242.10928960000456,243.11143000000448,up,0,1.424287900008494,242.10928960000456,None,242.10928960000456,None,242.10928960000456,242.61093439999968,242.10928960000456,242.61093439999968,242.10928960000456,242.61093439999968,242.10928960000456,242.61093439999968,242.10928960000456,None,,,,,,,,,,,,,,,,,,,,,,,,,,,,,,,,,,,,,,,,,,11039,001,2024_Mar_13_1406,nback,2021.2.3,59.92961865539653,
2-back,instructions\back-2.png,conditions\2back-p.xlsx,instructions\2-BACK.png,"(25, 15)",practice,2,3,stim\gray.png,stim\gray.png,stim\yellow.png,stim\gray.png,up,1,0,1,0,0,2,2,2,0,7,7,7,,,,,,,,,,,,,,,,,,,,,,,,,,,243.611613400004,244.61391339999682,243.611613400004,244.61391339999682,243.611613400004,244.61391339999682,243.611613400004,244.61391339999682,down,0,1.4662656000000425,243.611613400004,None,243.611613400004,None,243.611613400004,244.11233620000712,243.611613400004,244.11233620000712,243.611613400004,244.11233620000712,243.611613400004,244.11233620000712,243.611613400004,None,,,,,,,,,,,,,,,,,,,,,,,,,,,,,,,,,,,,,,,,,,11039,001,2024_Mar_13_1406,nback,2021.2.3,59.92961865539653,
2-back,instructions\back-2.png,conditions\2back-p.xlsx,instructions\2-BACK.png,"(25, 15)",practice,2,3,stim\gray.png,stim\gray.png,stim\yellow.png,stim\gray.png,down,1,0,1,0,0,2,2,2,0,8,8,8,,,,,,,,,,,,,,,,,,,,,,,,,,,245.11418570000387,246.11542729999928,245.11418570000387,246.11542729999928,245.11418570000387,246.11542729999928,245.11418570000387,246.11542729999928,None,0,,245.11418570000387,None,245.11418570000387,None,245.11418570000387,245.614627700008,245.11418570000387,245.614627700008,245.11418570000387,245.614627700008,245.11418570000387,245.614627700008,245.11418570000387,None,,,,,,,,,,,,,,,,,,,,,,,,,,,,,,,,,,,,,,,,,,11039,001,2024_Mar_13_1406,nback,2021.2.3,59.92961865539653,
2-back,instructions\back-2.png,conditions\2back-p.xlsx,instructions\2-BACK.png,"(25, 15)",practice,2,4,stim\gray.png,stim\gray.png,stim\gray.png,stim\yellow.png,right,1,0,1,0,0,2,2,2,0,9,9,9,,,,,,,,,,,,,,,,,,,,,,,,,,,246.61653080000542,247.61863620000076,246.61653080000542,247.61863620000076,246.61653080000542,247.61863620000076,246.61653080000542,247.61863620000076,right,1,0.11750419999589212,246.61653080000542,None,246.61653080000542,None,246.61653080000542,247.11690229999658,246.61653080000542,247.11690229999658,246.61653080000542,247.11690229999658,246.61653080000542,247.11690229999658,246.61653080000542,None,,,,,,,,,,,,,,,,,,,,,,,,,,,,,,,,,,,,,,,,,,11039,001,2024_Mar_13_1406,nback,2021.2.3,59.92961865539653,
2-back,instructions\back-2.png,conditions\2back-p.xlsx,instructions\2-BACK.png,"(25, 15)",practice,2,1,stim\yellow.png,stim\gray.png,stim\gray.png,stim\gray.png,right,1,0,1,0,0,2,2,2,0,10,10,10,,,,,,,,,,,,,,,,,,,,,,,,,,,248.11945620000188,249.12020089999714,248.11945620000188,249.12020089999714,248.11945620000188,249.12020089999714,248.11945620000188,249.12020089999714,right,1,0.3022188000031747,248.11945620000188,None,248.11945620000188,None,248.11945620000188,248.62064259999897,248.11945620000188,248.62064259999897,248.11945620000188,248.62064259999897,248.11945620000188,248.62064259999897,248.11945620000188,None,,,,,,,,,,,,,,,,,,,,,,,,,,,,,,,,,,,,,,,,,,11039,001,2024_Mar_13_1406,nback,2021.2.3,59.92961865539653,
2-back,instructions\back-2.png,conditions\2back-p.xlsx,instructions\2-BACK.png,"(25, 15)",practice,2,2,stim\gray.png,stim\yellow.png,stim\gray.png,stim\gray.png,down,1,0,1,0,0,2,2,2,0,11,11,11,,,,,,,,,,,,,,,,,,,,,,,,,,,249.62085160000424,250.62230329999875,249.62085160000424,250.62230329999875,249.62085160000424,250.62230329999875,249.62085160000424,250.62230329999875,down,1,0.32882840000092983,249.62085160000424,None,249.62085160000424,None,249.62085160000424,250.12155290000373,249.62085160000424,250.12155290000373,249.62085160000424,250.12155290000373,249.62085160000424,250.12155290000373,249.62085160000424,None,,,,,,,,,,,,,,,,,,,,,,,,,,,,,,,,,,,,,,,,,,11039,001,2024_Mar_13_1406,nback,2021.2.3,59.92961865539653,
2-back,instructions\back-2.png,conditions\2back-p.xlsx,instructions\2-BACK.png,"(25, 15)",practice,2,4,stim\gray.png,stim\gray.png,stim\gray.png,stim\yellow.png,up,1,0,1,0,0,2,2,2,0,12,12,12,,,,,,,,,,,,,,,,,,,,,,,,,,,251.12468850000005,252.12465630000224,251.12468850000005,252.12465630000224,251.12468850000005,252.12465630000224,251.12468850000005,252.12465630000224,up,1,0.23329599999124184,251.12468850000005,None,251.12468850000005,None,251.12468850000005,251.62438900000416,251.12468850000005,251.62438900000416,251.12468850000005,251.62438900000416,251.12468850000005,251.62438900000416,251.12468850000005,None,,,,,,,,,,,,,,,,,,,,,,,,,,,,,,,,,,,,,,,,,,11039,001,2024_Mar_13_1406,nback,2021.2.3,59.92961865539653,
2-back,instructions\back-2.png,conditions\2back-p.xlsx,instructions\2-BACK.png,"(25, 15)",practice,2,3,stim\gray.png,stim\gray.png,stim\yellow.png,stim\gray.png,left,1,0,1,0,0,2,2,2,0,13,13,13,,,,,,,,,,,,,,,,,,,,,,,,,,,252.62551769999845,253.62684230000013,252.62551769999845,253.62684230000013,252.62551769999845,253.62684230000013,252.62551769999845,253.62684230000013,left,1,0.18843629999901168,252.62551769999845,None,252.62551769999845,None,252.62551769999845,253.12607050000224,252.62551769999845,253.12607050000224,252.62551769999845,253.12607050000224,252.62551769999845,253.12607050000224,252.62551769999845,None,,,,,,,,,,,,,,,,,,,,,,,,,,,,,,,,,,,,,,,,,,11039,001,2024_Mar_13_1406,nback,2021.2.3,59.92961865539653,
2-back,instructions\back-2.png,conditions\2back-p.xlsx,instructions\2-BACK.png,"(25, 15)",practice,2,1,stim\yellow.png,stim\gray.png,stim\gray.png,stim\gray.png,down,1,0,1,0,0,2,2,2,0,14,14,14,,,,,,,,,,,,,,,,,,,,,,,,,,,254.110900700005,255.11263400000462,254.110900700005,255.11263400000462,254.110900700005,255.11263400000462,254.110900700005,255.11263400000462,down,1,0.10301789999357425,254.110900700005,None,254.110900700005,None,254.110900700005,254.61155299999518,254.110900700005,254.61155299999518,254.110900700005,254.61155299999518,254.110900700005,254.61155299999518,254.110900700005,None,,,,,,,,,,,,,,,,,,,,,,,,,,,,,,,,,,,,,,,,,,11039,001,2024_Mar_13_1406,nback,2021.2.3,59.92961865539653,
2-back,instructions\back-2.png,conditions\2back-p.xlsx,instructions\2-BACK.png,"(25, 15)",practice,2,2,stim\gray.png,stim\yellow.png,stim\gray.png,stim\gray.png,right,1,0,1,0,0,2,2,2,0,15,15,15,,,,,,,,,,,,,,,,,,,,,,,,,,,255.6131810000079,256.6144751999964,255.6131810000079,256.6144751999964,255.6131810000079,256.6144751999964,255.6131810000079,256.6144751999964,right,1,0.05686789999890607,255.6131810000079,None,255.6131810000079,None,255.6131810000079,256.11384600000747,255.6131810000079,256.11384600000747,255.6131810000079,256.11384600000747,255.6131810000079,256.11384600000747,255.6131810000079,None,,,,,,,,,,,,,,,,,,,,,,,,,,,,,,,,,,,,,,,,,,11039,001,2024_Mar_13_1406,nback,2021.2.3,59.92961865539653,
2-back,instructions\back-2.png,conditions\2back-p.xlsx,instructions\2-BACK.png,"(25, 15)",practice,2,3,stim\gray.png,stim\gray.png,stim\yellow.png,stim\gray.png,up,1,0,1,0,0,2,2,2,0,16,16,16,,,,,,,,,,,,,,,,,,,,,,,,,,,257.1159636999946,258.1168178999942,257.1159636999946,258.1168178999942,257.1159636999946,258.1168178999942,257.1159636999946,258.1168178999942,up,1,0.07393230000161566,257.1159636999946,None,257.1159636999946,None,257.1159636999946,257.6161987999949,257.1159636999946,257.6161987999949,257.1159636999946,257.6161987999949,257.1159636999946,257.6161987999949,257.1159636999946,None,,,,,,,,,,,,,,,,,,,,,,,,,,,,,,,,,,,,,,,,,,11039,001,2024_Mar_13_1406,nback,2021.2.3,59.92961865539653,
2-back,instructions\back-2.png,conditions\2back-p.xlsx,instructions\2-BACK.png,"(25, 15)",practice,2,1,stim\yellow.png,stim\gray.png,stim\gray.png,stim\gray.png,left,1,0,1,0,0,2,2,2,0,17,17,17,,,,,,,,,,,,,,,,,,,,,,,,,,,258.61749540000164,259.61920980000286,258.61749540000164,259.61920980000286,258.61749540000164,259.61920980000286,258.61749540000164,259.61920980000286,None,0,,258.61749540000164,None,258.61749540000164,None,258.61749540000164,259.1191403999983,258.61749540000164,259.1191403999983,258.61749540000164,259.1191403999983,258.61749540000164,259.1191403999983,258.61749540000164,None,,,,,,,,,,,,,,,,,,,,,,,,,,,,,,,,,,,,,,,,,,11039,001,2024_Mar_13_1406,nback,2021.2.3,59.92961865539653,
2-back,instructions\back-2.png,conditions\2back-p.xlsx,instructions\2-BACK.png,"(25, 15)",practice,2,4,stim\gray.png,stim\gray.png,stim\gray.png,stim\yellow.png,right,1,0,1,0,0,2,2,2,0,18,18,18,,,,,,,,,,,,,,,,,,,,,,,,,,,260.1200794000033,261.1214483999938,260.1200794000033,261.1214483999938,260.1200794000033,261.1214483999938,260.1200794000033,261.1214483999938,right,1,0.1818617999961134,260.1200794000033,None,260.1200794000033,None,260.1200794000033,260.62148620000517,260.1200794000033,260.62148620000517,260.1200794000033,260.62148620000517,260.1200794000033,260.62148620000517,260.1200794000033,None,,,,,,,,,,,,,,,,,,,,,,,,,,,,,,,,,,,,,,,,,,11039,001,2024_Mar_13_1406,nback,2021.2.3,59.92961865539653,
2-back,instructions\back-2.png,conditions\2back-p.xlsx,instructions\2-BACK.png,"(25, 15)",practice,2,2,stim\gray.png,stim\yellow.png,stim\gray.png,stim\gray.png,up,1,0,1,0,0,2,2,2,0,19,19,19,,,,,,,,,,,,,,,,,,,,,,,,,,,261.62226139999984,262.62438459999976,261.62226139999984,262.62438459999976,261.62226139999984,262.62438459999976,261.62226139999984,262.62438459999976,up,1,0.19204049999825656,261.62226139999984,None,261.62226139999984,None,261.62226139999984,262.1237667999958,261.62226139999984,262.1237667999958,261.62226139999984,262.1237667999958,261.62226139999984,262.1237667999958,261.62226139999984,None,,,,,,,,,,,,,,,,,,,,,,,,,,,,,,,,,,,,,,,,,,11039,001,2024_Mar_13_1406,nback,2021.2.3,59.92961865539653,
2-back,instructions\back-2.png,conditions\2back-p.xlsx,instructions\2-BACK.png,"(25, 15)",,,,,,,,,1,0,1,0,0,2,2,2,,,,,,,,,,,,,,,,,,,,,,,,,,,,,,,,,,,,,,,,,,,,,,,,,,,,,,,,,,,,,,,,,,,,,,,,,,,,,,,,,,,,,,,,,,,,,,,,,11039,001,2024_Mar_13_1406,nback,2021.2.3,59.92961865539653,
,,,,,,,,,,,,,1,0,1,0,,,,,,,,,,,,,,,,,,,,,,,,,,,,,,,,,,,,,,,,,,,,,,,,,,,,,,,,,,,,263.12447450000036,None,space,13.938083500004723,263.12447450000036,None,,,,,,,,,,,,,,,,,,,,,,,,,,,,,,,,,,,,11039,001,2024_Mar_13_1406,nback,2021.2.3,59.92961865539653,
,,,,,,,,,,,,,,,,,,,,,,,,,,,,,,,,,,,,,,,,,,,,,,,,,,,,,,,,,,,,,,,,,,,,,,,,,,,,,,,,,,277.07875179999974,None,space,3.144007099996088,277.07875179999974,None,,,,,,,,,,,,,,,,,,,,,,,,,,,,,,11039,001,2024_Mar_13_1406,nback,2021.2.3,59.92961865539653,
2-back,instructions\back-2.png,conditions\21back-e.xlsx,,,experiment,2,3,stim\gray.png,stim\gray.png,stim\yellow.png,stim\gray.png,None,,,,,,,,,,,,,0,0,0,3,0,0,0,0,,,,,,,,,,,,,,,280.46741389999806,284.9760030000034,284.92397899999924,None,,,,,,,,,,,,,,,,,,,,,,,,,,,,,,,,,,,,,,None,1,285.27468830000726,None,285.27468830000726,None,285.27468830000726,286.2760968000075,285.27468830000726,286.2760968000075,285.27468830000726,286.2760968000075,285.27468830000726,286.2760968000075,285.27468830000726,285.7760699000064,285.27468830000726,285.7760699000064,285.27468830000726,285.7760699000064,285.27468830000726,285.7760699000064,285.27468830000726,None,,,,,,11039,001,2024_Mar_13_1406,nback,2021.2.3,59.92961865539653,
2-back,instructions\back-2.png,conditions\21back-e.xlsx,,,experiment,2,4,stim\gray.png,stim\gray.png,stim\gray.png,stim\yellow.png,None,,,,,,,,,,,,,0,0,0,3,0,1,1,1,,,,,,,,,,,,,,,,,,,,,,,,,,,,,,,,,,,,,,,,,,,,,,,,,,,,,,,,None,1,286.76021190000756,None,286.76021190000756,None,286.76021190000756,287.76233320000756,286.76021190000756,287.76233320000756,286.76021190000756,287.76233320000756,286.76021190000756,287.76233320000756,286.76021190000756,287.26170580000326,286.76021190000756,287.26170580000326,286.76021190000756,287.26170580000326,286.76021190000756,287.26170580000326,286.76021190000756,None,,,,,,11039,001,2024_Mar_13_1406,nback,2021.2.3,59.92961865539653,
2-back,instructions\back-2.png,conditions\21back-e.xlsx,,,experiment,2,1,stim\yellow.png,stim\gray.png,stim\gray.png,stim\gray.png,right,,,,,,,,,,,,,0,0,0,3,0,2,2,2,,,,,,,,,,,,,,,,,,,,,,,,,,,,,,,,,,,,,,,,,,,,,,,,,,,,,,,,right,1,288.26232639999944,None,288.26232639999944,None,288.26232639999944,289.2637773000024,288.26232639999944,289.2637773000024,288.26232639999944,289.2637773000024,288.26232639999944,289.2637773000024,288.26232639999944,288.7630449999997,288.26232639999944,288.7630449999997,288.26232639999944,288.7630449999997,288.26232639999944,288.7630449999997,288.26232639999944,None,0.3202385000040522,,,,,11039,001,2024_Mar_13_1406,nback,2021.2.3,59.92961865539653,
2-back,instructions\back-2.png,conditions\21back-e.xlsx,,,experiment,2,2,stim\gray.png,stim\yellow.png,stim\gray.png,stim\gray.png,down,,,,,,,,,,,,,0,0,0,3,0,3,3,3,,,,,,,,,,,,,,,,,,,,,,,,,,,,,,,,,,,,,,,,,,,,,,,,,,,,,,,,down,1,289.76472629999625,None,289.76472629999625,None,289.76472629999625,290.76716309999756,289.76472629999625,290.76716309999756,289.76472629999625,290.76716309999756,289.76472629999625,290.76716309999756,289.76472629999625,290.26528999999573,289.76472629999625,290.26528999999573,289.76472629999625,290.26528999999573,289.76472629999625,290.26528999999573,289.76472629999625,None,0.3540638999984367,,,,,11039,001,2024_Mar_13_1406,nback,2021.2.3,59.92961865539653,
2-back,instructions\back-2.png,conditions\21back-e.xlsx,,,experiment,2,1,stim\yellow.png,stim\gray.png,stim\gray.png,stim\gray.png,up,,,,,,,,,,,,,0,0,0,3,0,4,4,4,,,,,,,,,,,,,,,,,,,,,,,,,,,,,,,,,,,,,,,,,,,,,,,,,,,,,,,,None,0,291.266692899997,None,291.266692899997,None,291.266692899997,292.2684575000021,291.266692899997,292.2684575000021,291.266692899997,292.2684575000021,291.266692899997,292.2684575000021,291.266692899997,291.7676683000027,291.266692899997,291.7676683000027,291.266692899997,291.7676683000027,291.266692899997,291.7676683000027,291.266692899997,None,,,,,,11039,001,2024_Mar_13_1406,nback,2021.2.3,59.92961865539653,
2-back,instructions\back-2.png,conditions\21back-e.xlsx,,,experiment,2,2,stim\gray.png,stim\yellow.png,stim\gray.png,stim\gray.png,left,,,,,,,,,,,,,0,0,0,3,0,5,5,5,,,,,,,,,,,,,,,,,,,,,,,,,,,,,,,,,,,,,,,,,,,,,,,,,,,,,,,,left,1,292.7688311999955,None,292.7688311999955,None,292.7688311999955,293.77130300000135,292.7688311999955,293.77130300000135,292.7688311999955,293.77130300000135,292.7688311999955,293.77130300000135,292.7688311999955,293.2700146999996,292.7688311999955,293.2700146999996,292.7688311999955,293.2700146999996,292.7688311999955,293.2700146999996,292.7688311999955,None,0.062300999998115,,,,,11039,001,2024_Mar_13_1406,nback,2021.2.3,59.92961865539653,
2-back,instructions\back-2.png,conditions\21back-e.xlsx,,,experiment,2,3,stim\gray.png,stim\gray.png,stim\yellow.png,stim\gray.png,up,,,,,,,,,,,,,0,0,0,3,0,6,6,6,,,,,,,,,,,,,,,,,,,,,,,,,,,,,,,,,,,,,,,,,,,,,,,,,,,,,,,,up,1,294.2549450999941,None,294.2549450999941,None,294.2549450999941,295.25632159999805,294.2549450999941,295.25632159999805,294.2549450999941,295.25632159999805,294.2549450999941,295.25632159999805,294.2549450999941,294.75531589999446,294.2549450999941,294.75531589999446,294.2549450999941,294.75531589999446,294.2549450999941,294.75531589999446,294.2549450999941,None,0.06406089999654796,,,,,11039,001,2024_Mar_13_1406,nback,2021.2.3,59.92961865539653,
2-back,instructions\back-2.png,conditions\21back-e.xlsx,,,experiment,2,4,stim\gray.png,stim\gray.png,stim\gray.png,stim\yellow.png,left,,,,,,,,,,,,,0,0,0,3,0,7,7,7,,,,,,,,,,,,,,,,,,,,,,,,,,,,,,,,,,,,,,,,,,,,,,,,,,,,,,,,left,1,295.75725619999866,None,295.75725619999866,None,295.75725619999866,296.7584923999966,295.75725619999866,296.7584923999966,295.75725619999866,296.7584923999966,295.75725619999866,296.7584923999966,295.75725619999866,296.2586416999984,295.75725619999866,296.2586416999984,295.75725619999866,296.2586416999984,295.75725619999866,296.2586416999984,295.75725619999866,None,0.19385419999889564,,,,,11039,001,2024_Mar_13_1406,nback,2021.2.3,59.92961865539653,
2-back,instructions\back-2.png,conditions\21back-e.xlsx,,,experiment,2,3,stim\gray.png,stim\gray.png,stim\yellow.png,stim\gray.png,right,,,,,,,,,,,,,0,0,0,3,0,8,8,8,,,,,,,,,,,,,,,,,,,,,,,,,,,,,,,,,,,,,,,,,,,,,,,,,,,,,,,,right,1,297.2591581000015,None,297.2591581000015,None,297.2591581000015,298.2606719000032,297.2591581000015,298.2606719000032,297.2591581000015,298.2606719000032,297.2591581000015,298.2606719000032,297.2591581000015,297.7610280000081,297.2591581000015,297.7610280000081,297.2591581000015,297.7610280000081,297.2591581000015,297.7610280000081,297.2591581000015,None,0.18856349999259692,,,,,11039,001,2024_Mar_13_1406,nback,2021.2.3,59.92961865539653,
2-back,instructions\back-2.png,conditions\21back-e.xlsx,,,experiment,2,1,stim\yellow.png,stim\gray.png,stim\gray.png,stim\gray.png,down,,,,,,,,,,,,,0,0,0,3,0,9,9,9,,,,,,,,,,,,,,,,,,,,,,,,,,,,,,,,,,,,,,,,,,,,,,,,,,,,,,,,down,1,298.7613878999982,None,298.7613878999982,None,298.7613878999982,299.7641629999998,298.7613878999982,299.7641629999998,298.7613878999982,299.7641629999998,298.7613878999982,299.7641629999998,298.7613878999982,299.26252889999887,298.7613878999982,299.26252889999887,298.7613878999982,299.26252889999887,298.7613878999982,299.26252889999887,298.7613878999982,None,0.1738787000067532,,,,,11039,001,2024_Mar_13_1406,nback,2021.2.3,59.92961865539653,
2-back,instructions\back-2.png,conditions\21back-e.xlsx,,,experiment,2,4,stim\gray.png,stim\gray.png,stim\gray.png,stim\yellow.png,right,,,,,,,,,,,,,0,0,0,3,0,10,10,10,,,,,,,,,,,,,,,,,,,,,,,,,,,,,,,,,,,,,,,,,,,,,,,,,,,,,,,,right,1,300.2636128000013,None,300.2636128000013,None,300.2636128000013,301.26539509999566,300.2636128000013,301.26539509999566,300.2636128000013,301.26539509999566,300.2636128000013,301.26539509999566,300.2636128000013,300.76524609999615,300.2636128000013,300.76524609999615,300.2636128000013,300.76524609999615,300.2636128000013,300.76524609999615,300.2636128000013,None,0.20811829999729525,,,,,11039,001,2024_Mar_13_1406,nback,2021.2.3,59.92961865539653,
2-back,instructions\back-2.png,conditions\21back-e.xlsx,,,experiment,2,2,stim\gray.png,stim\yellow.png,stim\gray.png,stim\gray.png,up,,,,,,,,,,,,,0,0,0,3,0,11,11,11,,,,,,,,,,,,,,,,,,,,,,,,,,,,,,,,,,,,,,,,,,,,,,,,,,,,,,,,up,1,301.765965700004,None,301.765965700004,None,301.765965700004,302.7679257999989,301.765965700004,302.7679257999989,301.765965700004,302.7679257999989,301.765965700004,302.7679257999989,301.765965700004,302.2665902000008,301.765965700004,302.2665902000008,301.765965700004,302.2665902000008,301.765965700004,302.2665902000008,301.765965700004,None,0.18517620000056922,,,,,11039,001,2024_Mar_13_1406,nback,2021.2.3,59.92961865539653,
2-back,instructions\back-2.png,conditions\21back-e.xlsx,,,experiment,2,4,stim\gray.png,stim\gray.png,stim\gray.png,stim\yellow.png,down,,,,,,,,,,,,,0,0,0,3,0,12,12,12,,,,,,,,,,,,,,,,,,,,,,,,,,,,,,,,,,,,,,,,,,,,,,,,,,,,,,,,down,1,303.2689711999992,None,303.2689711999992,None,303.2689711999992,304.26987360000203,303.2689711999992,304.26987360000203,303.2689711999992,304.26987360000203,303.2689711999992,304.26987360000203,303.2689711999992,303.76923669999815,303.2689711999992,303.76923669999815,303.2689711999992,303.76923669999815,303.2689711999992,303.76923669999815,303.2689711999992,None,0.034435399997164495,,,,,11039,001,2024_Mar_13_1406,nback,2021.2.3,59.92961865539653,
2-back,instructions\back-2.png,conditions\21back-e.xlsx,,,experiment,2,3,stim\gray.png,stim\gray.png,stim\yellow.png,stim\gray.png,left,,,,,,,,,,,,,0,0,0,3,0,13,13,13,,,,,,,,,,,,,,,,,,,,,,,,,,,,,,,,,,,,,,,,,,,,,,,,,,,,,,,,left,1,304.75394199999573,None,304.75394199999573,None,304.75394199999573,305.7553795999993,304.75394199999573,305.7553795999993,304.75394199999573,305.7553795999993,304.75394199999573,305.7553795999993,304.75394199999573,305.25455240000156,304.75394199999573,305.25455240000156,304.75394199999573,305.25455240000156,304.75394199999573,305.25455240000156,304.75394199999573,None,0.22127660000114702,,,,,11039,001,2024_Mar_13_1406,nback,2021.2.3,59.92961865539653,
