backseq,backinstr,backfile,instruction,size_in,Trialtype,back,number,P1,P2,P3,P4,corrAns,trials_practice.thisRepN,trials_practice.thisTrialN,trials_practice.thisN,trials_practice.thisIndex,trials.thisRepN,trials.thisTrialN,trials.thisN,trials.thisIndex,trials_3.thisRepN,trials_3.thisTrialN,trials_3.thisN,trials_3.thisIndex,trials_2.thisRepN,trials_2.thisTrialN,trials_2.thisN,trials_2.thisIndex,trials_4.thisRepN,trials_4.thisTrialN,trials_4.thisN,trials_4.thisIndex,image.started,image.stopped,image_2.started,image_2.stopped,key_resp.keys,key_resp.rt,key_resp.started,key_resp.stopped,image_3.started,image_3.stopped,key_resp_2.keys,key_resp_2.rt,key_resp_2.started,key_resp_2.stopped,image_4.started,image_4.stopped,text.started,text.stopped,H1.started,H1.stopped,H2.started,H2.stopped,H3.started,H3.stopped,H4.started,H4.stopped,key_resp_3.keys,key_resp_3.corr,key_resp_3.rt,key_resp_3.started,key_resp_3.stopped,text_4.started,text_4.stopped,F1.started,F1.stopped,F2.started,F2.stopped,F3.started,F3.stopped,F4.started,F4.stopped,image_7.started,image_7.stopped,text_5.started,text_5.stopped,key_resp_6.keys,key_resp_6.rt,key_resp_6.started,key_resp_6.stopped,image_5.started,image_5.stopped,key_resp_4.keys,key_resp_4.rt,key_resp_4.started,key_resp_4.stopped,key_resp_5.keys,key_resp_5.corr,key_resp_5.rt,key_resp_5.started,key_resp_5.stopped,text_3.started,text_3.stopped,H1_2.started,H1_2.stopped,H2_2.started,H2_2.stopped,H3_2.started,H3_2.stopped,H4_2.started,H4_2.stopped,F1_2.started,F1_2.stopped,F2_2.started,F2_2.stopped,F3_2.started,F3_2.stopped,F4_2.started,F4_2.stopped,image_8.started,image_8.stopped,text_2.started,text_2.stopped,image_6.started,image_6.stopped,participant,session,date,expName,psychopyVersion,frameRate,
,,,,,,,,,,,,,,,,,,,,,,,,,,,,,,,,,13.24008740001591,None,14.174816400045529,None,space,2.847281299997121,14.174816400045529,None,,,,,,,,,,,,,,,,,,,,,,,,,,,,,,,,,,,,,,,,,,,,,,,,,,,,,,,,,,,,,,,,,,,,,,,,,,,,,11042,001,2024_Mar_15_1620,nback,2021.2.3,60.149797046807336,
0-back,instructions\back-0.png,conditions\0back-p.xlsx,instructions\0-BACK.png,"(15, 8)",practice,0,1,stim\yellow.png,stim\gray.png,stim\gray.png,stim\gray.png,up,0,0,0,0,0,0,0,0,0,0,0,0,,,,,,,,,,,,,,,,,17.078323900001124,None,space,3.591459999966901,17.078323900001124,None,20.85133830003906,25.359355000022333,25.308175300015137,None,25.70911580004031,26.710533000004943,25.70911580004031,26.710533000004943,25.70911580004031,26.710533000004943,25.70911580004031,26.710533000004943,up,1,0.561051300028339,25.70911580004031,None,25.70911580004031,None,25.70911580004031,26.20953870000085,25.70911580004031,26.20953870000085,25.70911580004031,26.20953870000085,25.70911580004031,26.20953870000085,25.70911580004031,None,,,,,,,,,,,,,,,,,,,,,,,,,,,,,,,,,,,,,,,,,,11042,001,2024_Mar_15_1620,nback,2021.2.3,60.149797046807336,
0-back,instructions\back-0.png,conditions\0back-p.xlsx,instructions\0-BACK.png,"(15, 8)",practice,0,2,stim\gray.png,stim\yellow.png,stim\gray.png,stim\gray.png,left,0,0,0,0,0,0,0,0,0,1,1,1,,,,,,,,,,,,,,,,,,,,,,,,,,,27.19435240002349,28.195931100053713,27.19435240002349,28.195931100053713,27.19435240002349,28.195931100053713,27.19435240002349,28.195931100053713,left,1,0.47582380002131686,27.19435240002349,None,27.19435240002349,None,27.19435240002349,27.695098200056236,27.19435240002349,27.695098200056236,27.19435240002349,27.695098200056236,27.19435240002349,27.695098200056236,27.19435240002349,None,,,,,,,,,,,,,,,,,,,,,,,,,,,,,,,,,,,,,,,,,,11042,001,2024_Mar_15_1620,nback,2021.2.3,60.149797046807336,
0-back,instructions\back-0.png,conditions\0back-p.xlsx,instructions\0-BACK.png,"(15, 8)",practice,0,3,stim\gray.png,stim\gray.png,stim\yellow.png,stim\gray.png,right,0,0,0,0,0,0,0,0,0,2,2,2,,,,,,,,,,,,,,,,,,,,,,,,,,,28.696506700012833,29.69810530001996,28.696506700012833,29.69810530001996,28.696506700012833,29.69810530001996,28.696506700012833,29.69810530001996,right,1,0.4374752000439912,28.696506700012833,None,28.696506700012833,None,28.696506700012833,29.19746610004222,28.696506700012833,29.19746610004222,28.696506700012833,29.19746610004222,28.696506700012833,29.19746610004222,28.696506700012833,None,,,,,,,,,,,,,,,,,,,,,,,,,,,,,,,,,,,,,,,,,,11042,001,2024_Mar_15_1620,nback,2021.2.3,60.149797046807336,
0-back,instructions\back-0.png,conditions\0back-p.xlsx,instructions\0-BACK.png,"(15, 8)",practice,0,4,stim\gray.png,stim\gray.png,stim\gray.png,stim\yellow.png,down,0,0,0,0,0,0,0,0,0,3,3,3,,,,,,,,,,,,,,,,,,,,,,,,,,,30.198757900041528,31.201046000001952,30.198757900041528,31.201046000001952,30.198757900041528,31.201046000001952,30.198757900041528,31.201046000001952,down,1,0.375501099973917,30.198757900041528,None,30.198757900041528,None,30.198757900041528,30.700146900024265,30.198757900041528,30.700146900024265,30.198757900041528,30.700146900024265,30.198757900041528,30.700146900024265,30.198757900041528,None,,,,,,,,,,,,,,,,,,,,,,,,,,,,,,,,,,,,,,,,,,11042,001,2024_Mar_15_1620,nback,2021.2.3,60.149797046807336,
0-back,instructions\back-0.png,conditions\0back-p.xlsx,instructions\0-BACK.png,"(15, 8)",practice,0,2,stim\gray.png,stim\yellow.png,stim\gray.png,stim\gray.png,left,0,0,0,0,0,0,0,0,0,4,4,4,,,,,,,,,,,,,,,,,,,,,,,,,,,31.701450500055216,32.70281150005758,31.701450500055216,32.70281150005758,31.701450500055216,32.70281150005758,31.701450500055216,32.70281150005758,left,1,0.3365137999644503,31.701450500055216,None,31.701450500055216,None,31.701450500055216,32.20202630001586,31.701450500055216,32.20202630001586,31.701450500055216,32.20202630001586,31.701450500055216,32.20202630001586,31.701450500055216,None,,,,,,,,,,,,,,,,,,,,,,,,,,,,,,,,,,,,,,,,,,11042,001,2024_Mar_15_1620,nback,2021.2.3,60.149797046807336,
0-back,instructions\back-0.png,conditions\0back-p.xlsx,instructions\0-BACK.png,"(15, 8)",practice,0,1,stim\yellow.png,stim\gray.png,stim\gray.png,stim\gray.png,up,0,0,0,0,0,0,0,0,0,5,5,5,,,,,,,,,,,,,,,,,,,,,,,,,,,33.20377500000177,34.204966800054535,33.20377500000177,34.204966800054535,33.20377500000177,34.204966800054535,33.20377500000177,34.204966800054535,up,1,0.4105184999643825,33.20377500000177,None,33.20377500000177,None,33.20377500000177,33.70430200005649,33.20377500000177,33.70430200005649,33.20377500000177,33.70430200005649,33.20377500000177,33.70430200005649,33.20377500000177,None,,,,,,,,,,,,,,,,,,,,,,,,,,,,,,,,,,,,,,,,,,11042,001,2024_Mar_15_1620,nback,2021.2.3,60.149797046807336,
0-back,instructions\back-0.png,conditions\0back-p.xlsx,instructions\0-BACK.png,"(15, 8)",practice,0,4,stim\gray.png,stim\gray.png,stim\gray.png,stim\yellow.png,down,0,0,0,0,0,0,0,0,0,6,6,6,,,,,,,,,,,,,,,,,,,,,,,,,,,34.68896380002843,35.69061040005181,34.68896380002843,35.69061040005181,34.68896380002843,35.69061040005181,34.68896380002843,35.69061040005181,down,1,0.5173595999949612,34.68896380002843,None,34.68896380002843,None,34.68896380002843,35.18978800001787,34.68896380002843,35.18978800001787,34.68896380002843,35.18978800001787,34.68896380002843,35.18978800001787,34.68896380002843,None,,,,,,,,,,,,,,,,,,,,,,,,,,,,,,,,,,,,,,,,,,11042,001,2024_Mar_15_1620,nback,2021.2.3,60.149797046807336,
0-back,instructions\back-0.png,conditions\0back-p.xlsx,instructions\0-BACK.png,"(15, 8)",practice,0,3,stim\gray.png,stim\gray.png,stim\yellow.png,stim\gray.png,right,0,0,0,0,0,0,0,0,0,7,7,7,,,,,,,,,,,,,,,,,,,,,,,,,,,36.1910738000297,37.19301470002392,36.1910738000297,37.19301470002392,36.1910738000297,37.19301470002392,36.1910738000297,37.19301470002392,right,1,0.35941420000744984,36.1910738000297,None,36.1910738000297,None,36.1910738000297,36.69205180002609,36.1910738000297,36.69205180002609,36.1910738000297,36.69205180002609,36.1910738000297,36.69205180002609,36.1910738000297,None,,,,,,,,,,,,,,,,,,,,,,,,,,,,,,,,,,,,,,,,,,11042,001,2024_Mar_15_1620,nback,2021.2.3,60.149797046807336,
0-back,instructions\back-0.png,conditions\0back-p.xlsx,instructions\0-BACK.png,"(15, 8)",practice,0,3,stim\gray.png,stim\gray.png,stim\yellow.png,stim\gray.png,right,0,0,0,0,0,0,0,0,0,8,8,8,,,,,,,,,,,,,,,,,,,,,,,,,,,37.693663400015794,38.69507460005116,37.693663400015794,38.69507460005116,37.693663400015794,38.69507460005116,37.693663400015794,38.69507460005116,right,1,0.3366925999871455,37.693663400015794,None,37.693663400015794,None,37.693663400015794,38.19457240001066,37.693663400015794,38.19457240001066,37.693663400015794,38.19457240001066,37.693663400015794,38.19457240001066,37.693663400015794,None,,,,,,,,,,,,,,,,,,,,,,,,,,,,,,,,,,,,,,,,,,11042,001,2024_Mar_15_1620,nback,2021.2.3,60.149797046807336,
0-back,instructions\back-0.png,conditions\0back-p.xlsx,instructions\0-BACK.png,"(15, 8)",practice,0,4,stim\gray.png,stim\gray.png,stim\gray.png,stim\yellow.png,down,0,0,0,0,0,0,0,0,0,9,9,9,,,,,,,,,,,,,,,,,,,,,,,,,,,39.19583470001817,40.19756800000323,39.19583470001817,40.19756800000323,39.19583470001817,40.19756800000323,39.19583470001817,40.19756800000323,down,1,0.43491130002075806,39.19583470001817,None,39.19583470001817,None,39.19583470001817,39.696454200020526,39.19583470001817,39.696454200020526,39.19583470001817,39.696454200020526,39.19583470001817,39.696454200020526,39.19583470001817,None,,,,,,,,,,,,,,,,,,,,,,,,,,,,,,,,,,,,,,,,,,11042,001,2024_Mar_15_1620,nback,2021.2.3,60.149797046807336,
0-back,instructions\back-0.png,conditions\0back-p.xlsx,instructions\0-BACK.png,"(15, 8)",practice,0,1,stim\yellow.png,stim\gray.png,stim\gray.png,stim\gray.png,up,0,0,0,0,0,0,0,0,0,10,10,10,,,,,,,,,,,,,,,,,,,,,,,,,,,40.69796650001081,41.699834000028204,40.69796650001081,41.699834000028204,40.69796650001081,41.699834000028204,40.69796650001081,41.699834000028204,up,1,0.3322738000424579,40.69796650001081,None,40.69796650001081,None,40.69796650001081,41.199050400056876,40.69796650001081,41.199050400056876,40.69796650001081,41.199050400056876,40.69796650001081,41.199050400056876,40.69796650001081,None,,,,,,,,,,,,,,,,,,,,,,,,,,,,,,,,,,,,,,,,,,11042,001,2024_Mar_15_1620,nback,2021.2.3,60.149797046807336,
0-back,instructions\back-0.png,conditions\0back-p.xlsx,instructions\0-BACK.png,"(15, 8)",practice,0,2,stim\gray.png,stim\yellow.png,stim\gray.png,stim\gray.png,left,0,0,0,0,0,0,0,0,0,11,11,11,,,,,,,,,,,,,,,,,,,,,,,,,,,42.200273300055414,43.20167550002225,42.200273300055414,43.20167550002225,42.200273300055414,43.20167550002225,42.200273300055414,43.20167550002225,left,1,0.4543161999899894,42.200273300055414,None,42.200273300055414,None,42.200273300055414,42.70116060000146,42.200273300055414,42.70116060000146,42.200273300055414,42.70116060000146,42.200273300055414,42.70116060000146,42.200273300055414,None,,,,,,,,,,,,,,,,,,,,,,,,,,,,,,,,,,,,,,,,,,11042,001,2024_Mar_15_1620,nback,2021.2.3,60.149797046807336,
0-back,instructions\back-0.png,conditions\0back-p.xlsx,instructions\0-BACK.png,"(15, 8)",practice,0,4,stim\gray.png,stim\gray.png,stim\gray.png,stim\yellow.png,down,0,0,0,0,0,0,0,0,0,12,12,12,,,,,,,,,,,,,,,,,,,,,,,,,,,43.70263580000028,44.7040034000529,43.70263580000028,44.7040034000529,43.70263580000028,44.7040034000529,43.70263580000028,44.7040034000529,down,1,0.3759540000464767,43.70263580000028,None,43.70263580000028,None,43.70263580000028,44.203903900051955,43.70263580000028,44.203903900051955,43.70263580000028,44.203903900051955,43.70263580000028,44.203903900051955,43.70263580000028,None,,,,,,,,,,,,,,,,,,,,,,,,,,,,,,,,,,,,,,,,,,11042,001,2024_Mar_15_1620,nback,2021.2.3,60.149797046807336,
0-back,instructions\back-0.png,conditions\0back-p.xlsx,instructions\0-BACK.png,"(15, 8)",practice,0,3,stim\gray.png,stim\gray.png,stim\yellow.png,stim\gray.png,right,0,0,0,0,0,0,0,0,0,13,13,13,,,,,,,,,,,,,,,,,,,,,,,,,,,45.204999000008684,46.20702060003532,45.204999000008684,46.20702060003532,45.204999000008684,46.20702060003532,45.204999000008684,46.20702060003532,right,1,0.26593499997397885,45.204999000008684,None,45.204999000008684,None,45.204999000008684,45.705772800021805,45.204999000008684,45.705772800021805,45.204999000008684,45.705772800021805,45.204999000008684,45.705772800021805,45.204999000008684,None,,,,,,,,,,,,,,,,,,,,,,,,,,,,,,,,,,,,,,,,,,11042,001,2024_Mar_15_1620,nback,2021.2.3,60.149797046807336,
0-back,instructions\back-0.png,conditions\0back-p.xlsx,instructions\0-BACK.png,"(15, 8)",practice,0,1,stim\yellow.png,stim\gray.png,stim\gray.png,stim\gray.png,up,0,0,0,0,0,0,0,0,0,14,14,14,,,,,,,,,,,,,,,,,,,,,,,,,,,46.69028320000507,47.69239440001547,46.69028320000507,47.69239440001547,46.69028320000507,47.69239440001547,46.69028320000507,47.69239440001547,up,1,0.2924310999806039,46.69028320000507,None,46.69028320000507,None,46.69028320000507,47.19155750004575,46.69028320000507,47.19155750004575,46.69028320000507,47.19155750004575,46.69028320000507,47.19155750004575,46.69028320000507,None,,,,,,,,,,,,,,,,,,,,,,,,,,,,,,,,,,,,,,,,,,11042,001,2024_Mar_15_1620,nback,2021.2.3,60.149797046807336,
0-back,instructions\back-0.png,conditions\0back-p.xlsx,instructions\0-BACK.png,"(15, 8)",practice,0,2,stim\gray.png,stim\yellow.png,stim\gray.png,stim\gray.png,left,0,0,0,0,0,0,0,0,0,15,15,15,,,,,,,,,,,,,,,,,,,,,,,,,,,48.19261320005171,49.19414610002423,48.19261320005171,49.19414610002423,48.19261320005171,49.19414610002423,48.19261320005171,49.19414610002423,left,1,0.3261557999649085,48.19261320005171,None,48.19261320005171,None,48.19261320005171,48.69338660000358,48.19261320005171,48.69338660000358,48.19261320005171,48.69338660000358,48.19261320005171,48.69338660000358,48.19261320005171,None,,,,,,,,,,,,,,,,,,,,,,,,,,,,,,,,,,,,,,,,,,11042,001,2024_Mar_15_1620,nback,2021.2.3,60.149797046807336,
0-back,instructions\back-0.png,conditions\0back-p.xlsx,instructions\0-BACK.png,"(15, 8)",practice,0,3,stim\gray.png,stim\gray.png,stim\yellow.png,stim\gray.png,right,0,0,0,0,0,0,0,0,0,16,16,16,,,,,,,,,,,,,,,,,,,,,,,,,,,49.69494240003405,50.696704200003296,49.69494240003405,50.696704200003296,49.69494240003405,50.696704200003296,49.69494240003405,50.696704200003296,right,1,0.33574539999244735,49.69494240003405,None,49.69494240003405,None,49.69494240003405,50.19570910005132,49.69494240003405,50.19570910005132,49.69494240003405,50.19570910005132,49.69494240003405,50.19570910005132,49.69494240003405,None,,,,,,,,,,,,,,,,,,,,,,,,,,,,,,,,,,,,,,,,,,11042,001,2024_Mar_15_1620,nback,2021.2.3,60.149797046807336,
0-back,instructions\back-0.png,conditions\0back-p.xlsx,instructions\0-BACK.png,"(15, 8)",practice,0,1,stim\yellow.png,stim\gray.png,stim\gray.png,stim\gray.png,up,0,0,0,0,0,0,0,0,0,17,17,17,,,,,,,,,,,,,,,,,,,,,,,,,,,51.19709620001959,52.198870000022,51.19709620001959,52.198870000022,51.19709620001959,52.198870000022,51.19709620001959,52.198870000022,up,1,0.31351700000232086,51.19709620001959,None,51.19709620001959,None,51.19709620001959,51.697815700026695,51.19709620001959,51.697815700026695,51.19709620001959,51.697815700026695,51.19709620001959,51.697815700026695,51.19709620001959,None,,,,,,,,,,,,,,,,,,,,,,,,,,,,,,,,,,,,,,,,,,11042,001,2024_Mar_15_1620,nback,2021.2.3,60.149797046807336,
0-back,instructions\back-0.png,conditions\0back-p.xlsx,instructions\0-BACK.png,"(15, 8)",practice,0,4,stim\gray.png,stim\gray.png,stim\gray.png,stim\yellow.png,down,0,0,0,0,0,0,0,0,0,18,18,18,,,,,,,,,,,,,,,,,,,,,,,,,,,52.69930050004041,53.700911200023256,52.69930050004041,53.700911200023256,52.69930050004041,53.700911200023256,52.69930050004041,53.700911200023256,down,1,0.3475351999513805,52.69930050004041,None,52.69930050004041,None,52.69930050004041,53.20112980005797,52.69930050004041,53.20112980005797,52.69930050004041,53.20112980005797,52.69930050004041,53.20112980005797,52.69930050004041,None,,,,,,,,,,,,,,,,,,,,,,,,,,,,,,,,,,,,,,,,,,11042,001,2024_Mar_15_1620,nback,2021.2.3,60.149797046807336,
0-back,instructions\back-0.png,conditions\0back-p.xlsx,instructions\0-BACK.png,"(15, 8)",practice,0,2,stim\gray.png,stim\yellow.png,stim\gray.png,stim\gray.png,left,0,0,0,0,0,0,0,0,0,19,19,19,,,,,,,,,,,,,,,,,,,,,,,,,,,54.20155600004364,55.20329830003902,54.20155600004364,55.20329830003902,54.20155600004364,55.20329830003902,54.20155600004364,55.20329830003902,left,1,0.34135160001460463,54.20155600004364,None,54.20155600004364,None,54.20155600004364,54.703205100027844,54.20155600004364,54.703205100027844,54.20155600004364,54.703205100027844,54.20155600004364,54.703205100027844,54.20155600004364,None,,,,,,,,,,,,,,,,,,,,,,,,,,,,,,,,,,,,,,,,,,11042,001,2024_Mar_15_1620,nback,2021.2.3,60.149797046807336,
0-back,instructions\back-0.png,conditions\0back-p.xlsx,instructions\0-BACK.png,"(15, 8)",,,,,,,,,0,0,0,0,0,0,0,0,,,,,,,,,,,,,,,,,,,,,,,,,,,,,,,,,,,,,,,,,,,,,,,,,,,,,,,,,,,,,,,,,,,,,,,,,,,,,,,,,,,,,,,,,,,,,,,,,11042,001,2024_Mar_15_1620,nback,2021.2.3,60.149797046807336,
1-back,instructions\back-1.png,conditions\1back-p.xlsx,instructions\1-BACK.png,"(25, 15)",practice,1,1,stim\yellow.png,stim\gray.png,stim\gray.png,stim\gray.png,None,0,0,0,0,0,1,1,1,0,0,0,0,,,,,,,,,,,,,,,,,55.853856900008395,None,space,5.489569899975322,55.853856900008395,None,61.64637860003859,66.15303320001112,66.11944320000475,None,66.38778100005584,67.38840010005515,66.38778100005584,67.38840010005515,66.38778100005584,67.38840010005515,66.38778100005584,67.38840010005515,None,1,,66.38778100005584,None,66.38778100005584,None,66.38778100005584,66.88744220003719,66.38778100005584,66.88744220003719,66.38778100005584,66.88744220003719,66.38778100005584,66.88744220003719,66.38778100005584,None,,,,,,,,,,,,,,,,,,,,,,,,,,,,,,,,,,,,,,,,,,11042,001,2024_Mar_15_1620,nback,2021.2.3,60.149797046807336,
1-back,instructions\back-1.png,conditions\1back-p.xlsx,instructions\1-BACK.png,"(25, 15)",practice,1,2,stim\gray.png,stim\yellow.png,stim\gray.png,stim\gray.png,up,0,0,0,0,0,1,1,1,0,1,1,1,,,,,,,,,,,,,,,,,,,,,,,,,,,67.87303190003149,68.87375620001694,67.87303190003149,68.87375620001694,67.87303190003149,68.87375620001694,67.87303190003149,68.87375620001694,up,1,0.4782958999858238,67.87303190003149,None,67.87303190003149,None,67.87303190003149,68.37306930002524,67.87303190003149,68.37306930002524,67.87303190003149,68.37306930002524,67.87303190003149,68.37306930002524,67.87303190003149,None,,,,,,,,,,,,,,,,,,,,,,,,,,,,,,,,,,,,,,,,,,11042,001,2024_Mar_15_1620,nback,2021.2.3,60.149797046807336,
1-back,instructions\back-1.png,conditions\1back-p.xlsx,instructions\1-BACK.png,"(25, 15)",practice,1,3,stim\gray.png,stim\gray.png,stim\yellow.png,stim\gray.png,left,0,0,0,0,0,1,1,1,0,2,2,2,,,,,,,,,,,,,,,,,,,,,,,,,,,69.37454260000959,70.37607780005783,69.37454260000959,70.37607780005783,69.37454260000959,70.37607780005783,69.37454260000959,70.37607780005783,left,1,0.38460430002305657,69.37454260000959,None,69.37454260000959,None,69.37454260000959,69.87541910004802,69.37454260000959,69.87541910004802,69.37454260000959,69.87541910004802,69.37454260000959,69.87541910004802,69.37454260000959,None,,,,,,,,,,,,,,,,,,,,,,,,,,,,,,,,,,,,,,,,,,11042,001,2024_Mar_15_1620,nback,2021.2.3,60.149797046807336,
1-back,instructions\back-1.png,conditions\1back-p.xlsx,instructions\1-BACK.png,"(25, 15)",practice,1,4,stim\gray.png,stim\gray.png,stim\gray.png,stim\yellow.png,right,0,0,0,0,0,1,1,1,0,3,3,3,,,,,,,,,,,,,,,,,,,,,,,,,,,70.8769922000356,71.87866510002641,70.8769922000356,71.87866510002641,70.8769922000356,71.87866510002641,70.8769922000356,71.87866510002641,right,1,0.33826419996330515,70.8769922000356,None,70.8769922000356,None,70.8769922000356,71.37774570001056,70.8769922000356,71.37774570001056,70.8769922000356,71.37774570001056,70.8769922000356,71.37774570001056,70.8769922000356,None,,,,,,,,,,,,,,,,,,,,,,,,,,,,,,,,,,,,,,,,,,11042,001,2024_Mar_15_1620,nback,2021.2.3,60.149797046807336,
1-back,instructions\back-1.png,conditions\1back-p.xlsx,instructions\1-BACK.png,"(25, 15)",practice,1,2,stim\gray.png,stim\yellow.png,stim\gray.png,stim\gray.png,down,0,0,0,0,0,1,1,1,0,4,4,4,,,,,,,,,,,,,,,,,,,,,,,,,,,72.37929990002885,73.38116360001732,72.37929990002885,73.38116360001732,72.37929990002885,73.38116360001732,72.37929990002885,73.38116360001732,down,1,0.27608739997958764,72.37929990002885,None,72.37929990002885,None,72.37929990002885,72.88043230003677,72.37929990002885,72.88043230003677,72.37929990002885,72.88043230003677,72.37929990002885,72.88043230003677,72.37929990002885,None,,,,,,,,,,,,,,,,,,,,,,,,,,,,,,,,,,,,,,,,,,11042,001,2024_Mar_15_1620,nback,2021.2.3,60.149797046807336,
1-back,instructions\back-1.png,conditions\1back-p.xlsx,instructions\1-BACK.png,"(25, 15)",practice,1,1,stim\yellow.png,stim\gray.png,stim\gray.png,stim\gray.png,left,0,0,0,0,0,1,1,1,0,5,5,5,,,,,,,,,,,,,,,,,,,,,,,,,,,73.88129850005498,74.88286860001972,73.88129850005498,74.88286860001972,73.88129850005498,74.88286860001972,73.88129850005498,74.88286860001972,left,1,0.2942144999979064,73.88129850005498,None,73.88129850005498,None,73.88129850005498,74.38206740003079,73.88129850005498,74.38206740003079,73.88129850005498,74.38206740003079,73.88129850005498,74.38206740003079,73.88129850005498,None,,,,,,,,,,,,,,,,,,,,,,,,,,,,,,,,,,,,,,,,,,11042,001,2024_Mar_15_1620,nback,2021.2.3,60.149797046807336,
1-back,instructions\back-1.png,conditions\1back-p.xlsx,instructions\1-BACK.png,"(25, 15)",practice,1,4,stim\gray.png,stim\gray.png,stim\gray.png,stim\yellow.png,up,0,0,0,0,0,1,1,1,0,6,6,6,,,,,,,,,,,,,,,,,,,,,,,,,,,75.36695120000513,76.36831290001282,75.36695120000513,76.36831290001282,75.36695120000513,76.36831290001282,75.36695120000513,76.36831290001282,down,0,0.3046154999756254,75.36695120000513,None,75.36695120000513,None,75.36695120000513,75.86786760005634,75.36695120000513,75.86786760005634,75.36695120000513,75.86786760005634,75.36695120000513,75.86786760005634,75.36695120000513,None,,,,,,,,,,,,,,,,,,,,,,,,,,,,,,,,,,,,,,,,,,11042,001,2024_Mar_15_1620,nback,2021.2.3,60.149797046807336,
1-back,instructions\back-1.png,conditions\1back-p.xlsx,instructions\1-BACK.png,"(25, 15)",practice,1,3,stim\gray.png,stim\gray.png,stim\yellow.png,stim\gray.png,down,0,0,0,0,0,1,1,1,0,7,7,7,,,,,,,,,,,,,,,,,,,,,,,,,,,76.86924580001505,77.87132100004237,76.86924580001505,77.87132100004237,76.86924580001505,77.87132100004237,76.86924580001505,77.87132100004237,up,0,0.2819692000048235,76.86924580001505,None,76.86924580001505,None,76.86924580001505,77.36985130002722,76.86924580001505,77.36985130002722,76.86924580001505,77.36985130002722,76.86924580001505,77.36985130002722,76.86924580001505,None,,,,,,,,,,,,,,,,,,,,,,,,,,,,,,,,,,,,,,,,,,11042,001,2024_Mar_15_1620,nback,2021.2.3,60.149797046807336,
1-back,instructions\back-1.png,conditions\1back-p.xlsx,instructions\1-BACK.png,"(25, 15)",practice,1,3,stim\gray.png,stim\gray.png,stim\yellow.png,stim\gray.png,right,0,0,0,0,0,1,1,1,0,8,8,8,,,,,,,,,,,,,,,,,,,,,,,,,,,78.37148710002657,79.3732241000398,78.37148710002657,79.3732241000398,78.37148710002657,79.3732241000398,78.37148710002657,79.3732241000398,left,0,0.2358142999582924,78.37148710002657,None,78.37148710002657,None,78.37148710002657,78.87225890002446,78.37148710002657,78.87225890002446,78.37148710002657,78.87225890002446,78.37148710002657,78.87225890002446,78.37148710002657,None,,,,,,,,,,,,,,,,,,,,,,,,,,,,,,,,,,,,,,,,,,11042,001,2024_Mar_15_1620,nback,2021.2.3,60.149797046807336,
1-back,instructions\back-1.png,conditions\1back-p.xlsx,instructions\1-BACK.png,"(25, 15)",practice,1,4,stim\gray.png,stim\gray.png,stim\gray.png,stim\yellow.png,right,0,0,0,0,0,1,1,1,0,9,9,9,,,,,,,,,,,,,,,,,,,,,,,,,,,79.87365830002818,80.8752577000414,79.87365830002818,80.8752577000414,79.87365830002818,80.8752577000414,79.87365830002818,80.8752577000414,up,0,1.414055799948983,79.87365830002818,None,79.87365830002818,None,79.87365830002818,80.37542880000547,79.87365830002818,80.37542880000547,79.87365830002818,80.37542880000547,79.87365830002818,80.37542880000547,79.87365830002818,None,,,,,,,,,,,,,,,,,,,,,,,,,,,,,,,,,,,,,,,,,,11042,001,2024_Mar_15_1620,nback,2021.2.3,60.149797046807336,
1-back,instructions\back-1.png,conditions\1back-p.xlsx,instructions\1-BACK.png,"(25, 15)",practice,1,1,stim\yellow.png,stim\gray.png,stim\gray.png,stim\gray.png,down,0,0,0,0,0,1,1,1,0,10,10,10,,,,,,,,,,,,,,,,,,,,,,,,,,,81.37605470005656,82.37786650005728,81.37605470005656,82.37786650005728,81.37605470005656,82.37786650005728,81.37605470005656,82.37786650005728,down,1,1.2638517000013962,81.37605470005656,None,81.37605470005656,None,81.37605470005656,81.87654920003843,81.37605470005656,81.87654920003843,81.37605470005656,81.87654920003843,81.37605470005656,81.87654920003843,81.37605470005656,None,,,,,,,,,,,,,,,,,,,,,,,,,,,,,,,,,,,,,,,,,,11042,001,2024_Mar_15_1620,nback,2021.2.3,60.149797046807336,
1-back,instructions\back-1.png,conditions\1back-p.xlsx,instructions\1-BACK.png,"(25, 15)",practice,1,2,stim\gray.png,stim\yellow.png,stim\gray.png,stim\gray.png,up,0,0,0,0,0,1,1,1,0,11,11,11,,,,,,,,,,,,,,,,,,,,,,,,,,,82.87855370005127,83.88042300002417,82.87855370005127,83.88042300002417,82.87855370005127,83.88042300002417,82.87855370005127,83.88042300002417,up,1,0.8729183999821544,82.87855370005127,None,82.87855370005127,None,82.87855370005127,83.37918200000422,82.87855370005127,83.37918200000422,82.87855370005127,83.37918200000422,82.87855370005127,83.37918200000422,82.87855370005127,None,,,,,,,,,,,,,,,,,,,,,,,,,,,,,,,,,,,,,,,,,,11042,001,2024_Mar_15_1620,nback,2021.2.3,60.149797046807336,
1-back,instructions\back-1.png,conditions\1back-p.xlsx,instructions\1-BACK.png,"(25, 15)",practice,1,4,stim\gray.png,stim\gray.png,stim\gray.png,stim\yellow.png,left,0,0,0,0,0,1,1,1,0,12,12,12,,,,,,,,,,,,,,,,,,,,,,,,,,,84.3806912000291,85.38189560000319,84.3806912000291,85.38189560000319,84.3806912000291,85.38189560000319,84.3806912000291,85.38189560000319,left,1,0.8110441999742761,84.3806912000291,None,84.3806912000291,None,84.3806912000291,84.8824019000167,84.3806912000291,84.8824019000167,84.3806912000291,84.8824019000167,84.3806912000291,84.8824019000167,84.3806912000291,None,,,,,,,,,,,,,,,,,,,,,,,,,,,,,,,,,,,,,,,,,,11042,001,2024_Mar_15_1620,nback,2021.2.3,60.149797046807336,
1-back,instructions\back-1.png,conditions\1back-p.xlsx,instructions\1-BACK.png,"(25, 15)",practice,1,3,stim\gray.png,stim\gray.png,stim\yellow.png,stim\gray.png,down,0,0,0,0,0,1,1,1,0,13,13,13,,,,,,,,,,,,,,,,,,,,,,,,,,,85.88320999999996,86.88493660005042,85.88320999999996,86.88493660005042,85.88320999999996,86.88493660005042,85.88320999999996,86.88493660005042,down,1,0.9325851000030525,85.88320999999996,None,85.88320999999996,None,85.88320999999996,86.38351670000702,85.88320999999996,86.38351670000702,85.88320999999996,86.38351670000702,85.88320999999996,86.38351670000702,85.88320999999996,None,,,,,,,,,,,,,,,,,,,,,,,,,,,,,,,,,,,,,,,,,,11042,001,2024_Mar_15_1620,nback,2021.2.3,60.149797046807336,
1-back,instructions\back-1.png,conditions\1back-p.xlsx,instructions\1-BACK.png,"(25, 15)",practice,1,1,stim\yellow.png,stim\gray.png,stim\gray.png,stim\gray.png,right,0,0,0,0,0,1,1,1,0,14,14,14,,,,,,,,,,,,,,,,,,,,,,,,,,,87.36839340004371,88.36977770004887,87.36839340004371,88.36977770004887,87.36839340004371,88.36977770004887,87.36839340004371,88.36977770004887,right,1,0.4474789000232704,87.36839340004371,None,87.36839340004371,None,87.36839340004371,87.86915880005108,87.36839340004371,87.86915880005108,87.36839340004371,87.86915880005108,87.36839340004371,87.86915880005108,87.36839340004371,None,,,,,,,,,,,,,,,,,,,,,,,,,,,,,,,,,,,,,,,,,,11042,001,2024_Mar_15_1620,nback,2021.2.3,60.149797046807336,
1-back,instructions\back-1.png,conditions\1back-p.xlsx,instructions\1-BACK.png,"(25, 15)",practice,1,2,stim\gray.png,stim\yellow.png,stim\gray.png,stim\gray.png,up,0,0,0,0,0,1,1,1,0,15,15,15,,,,,,,,,,,,,,,,,,,,,,,,,,,88.87049280002248,89.87211940000998,88.87049280002248,89.87211940000998,88.87049280002248,89.87211940000998,88.87049280002248,89.87211940000998,up,1,0.7452735000406392,88.87049280002248,None,88.87049280002248,None,88.87049280002248,89.37192800000776,88.87049280002248,89.37192800000776,88.87049280002248,89.37192800000776,88.87049280002248,89.37192800000776,88.87049280002248,None,,,,,,,,,,,,,,,,,,,,,,,,,,,,,,,,,,,,,,,,,,11042,001,2024_Mar_15_1620,nback,2021.2.3,60.149797046807336,
1-back,instructions\back-1.png,conditions\1back-p.xlsx,instructions\1-BACK.png,"(25, 15)",practice,1,3,stim\gray.png,stim\gray.png,stim\yellow.png,stim\gray.png,left,0,0,0,0,0,1,1,1,0,16,16,16,,,,,,,,,,,,,,,,,,,,,,,,,,,90.37296780000906,91.37453580001602,90.37296780000906,91.37453580001602,90.37296780000906,91.37453580001602,90.37296780000906,91.37453580001602,left,1,0.6588310999795794,90.37296780000906,None,90.37296780000906,None,90.37296780000906,90.87340460001724,90.37296780000906,90.87340460001724,90.37296780000906,90.87340460001724,90.37296780000906,90.87340460001724,90.37296780000906,None,,,,,,,,,,,,,,,,,,,,,,,,,,,,,,,,,,,,,,,,,,11042,001,2024_Mar_15_1620,nback,2021.2.3,60.149797046807336,
1-back,instructions\back-1.png,conditions\1back-p.xlsx,instructions\1-BACK.png,"(25, 15)",practice,1,1,stim\yellow.png,stim\gray.png,stim\gray.png,stim\gray.png,right,0,0,0,0,0,1,1,1,0,17,17,17,,,,,,,,,,,,,,,,,,,,,,,,,,,91.87544880004134,92.87635080004111,91.87544880004134,92.87635080004111,91.87544880004134,92.87635080004111,91.87544880004134,92.87635080004111,right,1,0.3725589000387117,91.87544880004134,None,91.87544880004134,None,91.87544880004134,92.37585930002388,91.87544880004134,92.37585930002388,91.87544880004134,92.37585930002388,91.87544880004134,92.37585930002388,91.87544880004134,None,,,,,,,,,,,,,,,,,,,,,,,,,,,,,,,,,,,,,,,,,,11042,001,2024_Mar_15_1620,nback,2021.2.3,60.149797046807336,
1-back,instructions\back-1.png,conditions\1back-p.xlsx,instructions\1-BACK.png,"(25, 15)",practice,1,4,stim\gray.png,stim\gray.png,stim\gray.png,stim\yellow.png,up,0,0,0,0,0,1,1,1,0,18,18,18,,,,,,,,,,,,,,,,,,,,,,,,,,,93.37743930000579,94.37908800004516,93.37743930000579,94.37908800004516,93.37743930000579,94.37908800004516,93.37743930000579,94.37908800004516,up,1,0.16686110000591725,93.37743930000579,None,93.37743930000579,None,93.37743930000579,93.87800940003945,93.37743930000579,93.87800940003945,93.37743930000579,93.87800940003945,93.37743930000579,93.87800940003945,93.37743930000579,None,,,,,,,,,,,,,,,,,,,,,,,,,,,,,,,,,,,,,,,,,,11042,001,2024_Mar_15_1620,nback,2021.2.3,60.149797046807336,
1-back,instructions\back-1.png,conditions\1back-p.xlsx,instructions\1-BACK.png,"(25, 15)",practice,1,2,stim\gray.png,stim\yellow.png,stim\gray.png,stim\gray.png,down,0,0,0,0,0,1,1,1,0,19,19,19,,,,,,,,,,,,,,,,,,,,,,,,,,,94.87975260004168,95.88114920002408,94.87975260004168,95.88114920002408,94.87975260004168,95.88114920002408,94.87975260004168,95.88114920002408,down,1,0.19221339997602627,94.87975260004168,None,94.87975260004168,None,94.87975260004168,95.3804141000146,94.87975260004168,95.3804141000146,94.87975260004168,95.3804141000146,94.87975260004168,95.3804141000146,94.87975260004168,None,,,,,,,,,,,,,,,,,,,,,,,,,,,,,,,,,,,,,,,,,,11042,001,2024_Mar_15_1620,nback,2021.2.3,60.149797046807336,
1-back,instructions\back-1.png,conditions\1back-p.xlsx,instructions\1-BACK.png,"(25, 15)",,,,,,,,,0,0,0,0,0,1,1,1,,,,,,,,,,,,,,,,,,,,,,,,,,,,,,,,,,,,,,,,,,,,,,,,,,,,,,,,,,,,,,,,,,,,,,,,,,,,,,,,,,,,,,,,,,,,,,,,,11042,001,2024_Mar_15_1620,nback,2021.2.3,60.149797046807336,
2-back,instructions\back-2.png,conditions\2back-p.xlsx,instructions\2-BACK.png,"(25, 15)",practice,2,1,stim\yellow.png,stim\gray.png,stim\gray.png,stim\gray.png,None,0,0,0,0,0,2,2,2,0,0,0,0,,,,,,,,,,,,,,,,,96.53188370005228,None,space,3.868144999956712,96.53188370005228,None,100.72188670001924,105.22881710005458,105.02865730004851,None,105.44553000002634,106.44707590003964,105.44553000002634,106.44707590003964,105.44553000002634,106.44707590003964,105.44553000002634,106.44707590003964,None,1,,105.44553000002634,None,105.44553000002634,None,105.44553000002634,105.94625160004944,105.44553000002634,105.94625160004944,105.44553000002634,105.94625160004944,105.44553000002634,105.94625160004944,105.44553000002634,None,,,,,,,,,,,,,,,,,,,,,,,,,,,,,,,,,,,,,,,,,,11042,001,2024_Mar_15_1620,nback,2021.2.3,60.149797046807336,
2-back,instructions\back-2.png,conditions\2back-p.xlsx,instructions\2-BACK.png,"(25, 15)",practice,2,2,stim\gray.png,stim\yellow.png,stim\gray.png,stim\gray.png,None,0,0,0,0,0,2,2,2,0,1,1,1,,,,,,,,,,,,,,,,,,,,,,,,,,,106.93115519999992,107.93263670004671,106.93115519999992,107.93263670004671,106.93115519999992,107.93263670004671,106.93115519999992,107.93263670004671,None,1,,106.93115519999992,None,106.93115519999992,None,106.93115519999992,107.43178800004534,106.93115519999992,107.43178800004534,106.93115519999992,107.43178800004534,106.93115519999992,107.43178800004534,106.93115519999992,None,,,,,,,,,,,,,,,,,,,,,,,,,,,,,,,,,,,,,,,,,,11042,001,2024_Mar_15_1620,nback,2021.2.3,60.149797046807336,
2-back,instructions\back-2.png,conditions\2back-p.xlsx,instructions\2-BACK.png,"(25, 15)",practice,2,3,stim\gray.png,stim\gray.png,stim\yellow.png,stim\gray.png,up,0,0,0,0,0,2,2,2,0,2,2,2,,,,,,,,,,,,,,,,,,,,,,,,,,,108.4331666000071,109.43531840003561,108.4331666000071,109.43531840003561,108.4331666000071,109.43531840003561,108.4331666000071,109.43531840003561,up,1,0.4629502999596298,108.4331666000071,None,108.4331666000071,None,108.4331666000071,108.9342742000008,108.4331666000071,108.9342742000008,108.4331666000071,108.9342742000008,108.4331666000071,108.9342742000008,108.4331666000071,None,,,,,,,,,,,,,,,,,,,,,,,,,,,,,,,,,,,,,,,,,,11042,001,2024_Mar_15_1620,nback,2021.2.3,60.149797046807336,
2-back,instructions\back-2.png,conditions\2back-p.xlsx,instructions\2-BACK.png,"(25, 15)",practice,2,4,stim\gray.png,stim\gray.png,stim\gray.png,stim\yellow.png,left,0,0,0,0,0,2,2,2,0,3,3,3,,,,,,,,,,,,,,,,,,,,,,,,,,,109.93550640001195,110.93714330001967,109.93550640001195,110.93714330001967,109.93550640001195,110.93714330001967,109.93550640001195,110.93714330001967,left,1,0.3445812999852933,109.93550640001195,None,109.93550640001195,None,109.93550640001195,110.43687500001397,109.93550640001195,110.43687500001397,109.93550640001195,110.43687500001397,109.93550640001195,110.43687500001397,109.93550640001195,None,,,,,,,,,,,,,,,,,,,,,,,,,,,,,,,,,,,,,,,,,,11042,001,2024_Mar_15_1620,nback,2021.2.3,60.149797046807336,
2-back,instructions\back-2.png,conditions\2back-p.xlsx,instructions\2-BACK.png,"(25, 15)",practice,2,2,stim\gray.png,stim\yellow.png,stim\gray.png,stim\gray.png,right,0,0,0,0,0,2,2,2,0,4,4,4,,,,,,,,,,,,,,,,,,,,,,,,,,,111.4378123000497,112.43958260002546,111.4378123000497,112.43958260002546,111.4378123000497,112.43958260002546,111.4378123000497,112.43958260002546,right,1,0.6024621999822557,111.4378123000497,None,111.4378123000497,None,111.4378123000497,111.93909320002422,111.4378123000497,111.93909320002422,111.4378123000497,111.93909320002422,111.4378123000497,111.93909320002422,111.4378123000497,None,,,,,,,,,,,,,,,,,,,,,,,,,,,,,,,,,,,,,,,,,,11042,001,2024_Mar_15_1620,nback,2021.2.3,60.149797046807336,
2-back,instructions\back-2.png,conditions\2back-p.xlsx,instructions\2-BACK.png,"(25, 15)",practice,2,1,stim\yellow.png,stim\gray.png,stim\gray.png,stim\gray.png,down,0,0,0,0,0,2,2,2,0,5,5,5,,,,,,,,,,,,,,,,,,,,,,,,,,,112.94068240001798,113.94175800000085,112.94068240001798,113.94175800000085,112.94068240001798,113.94175800000085,112.94068240001798,113.94175800000085,down,1,0.4915055999881588,112.94068240001798,None,112.94068240001798,None,112.94068240001798,113.44081900001038,112.94068240001798,113.44081900001038,112.94068240001798,113.44081900001038,112.94068240001798,113.44081900001038,112.94068240001798,None,,,,,,,,,,,,,,,,,,,,,,,,,,,,,,,,,,,,,,,,,,11042,001,2024_Mar_15_1620,nback,2021.2.3,60.149797046807336,
2-back,instructions\back-2.png,conditions\2back-p.xlsx,instructions\2-BACK.png,"(25, 15)",practice,2,4,stim\gray.png,stim\gray.png,stim\gray.png,stim\yellow.png,left,0,0,0,0,0,2,2,2,0,6,6,6,,,,,,,,,,,,,,,,,,,,,,,,,,,114.42574120004429,115.42730070004473,114.42574120004429,115.42730070004473,114.42574120004429,115.42730070004473,114.42574120004429,115.42730070004473,left,1,0.2624460999504663,114.42574120004429,None,114.42574120004429,None,114.42574120004429,114.92642740003066,114.42574120004429,114.92642740003066,114.42574120004429,114.92642740003066,114.42574120004429,114.92642740003066,114.42574120004429,None,,,,,,,,,,,,,,,,,,,,,,,,,,,,,,,,,,,,,,,,,,11042,001,2024_Mar_15_1620,nback,2021.2.3,60.149797046807336,
2-back,instructions\back-2.png,conditions\2back-p.xlsx,instructions\2-BACK.png,"(25, 15)",practice,2,3,stim\gray.png,stim\gray.png,stim\yellow.png,stim\gray.png,up,0,0,0,0,0,2,2,2,0,7,7,7,,,,,,,,,,,,,,,,,,,,,,,,,,,115.92805550002959,116.92949390003923,115.92805550002959,116.92949390003923,115.92805550002959,116.92949390003923,115.92805550002959,116.92949390003923,up,1,0.15204100002301857,115.92805550002959,None,115.92805550002959,None,115.92805550002959,116.42895370000042,115.92805550002959,116.42895370000042,115.92805550002959,116.42895370000042,115.92805550002959,116.42895370000042,115.92805550002959,None,,,,,,,,,,,,,,,,,,,,,,,,,,,,,,,,,,,,,,,,,,11042,001,2024_Mar_15_1620,nback,2021.2.3,60.149797046807336,
2-back,instructions\back-2.png,conditions\2back-p.xlsx,instructions\2-BACK.png,"(25, 15)",practice,2,3,stim\gray.png,stim\gray.png,stim\yellow.png,stim\gray.png,down,0,0,0,0,0,2,2,2,0,8,8,8,,,,,,,,,,,,,,,,,,,,,,,,,,,117.43038000003435,118.43193230003817,117.43038000003435,118.43193230003817,117.43038000003435,118.43193230003817,117.43038000003435,118.43193230003817,down,1,0.13793520000763237,117.43038000003435,None,117.43038000003435,None,117.43038000003435,117.93099450005684,117.43038000003435,117.93099450005684,117.43038000003435,117.93099450005684,117.43038000003435,117.93099450005684,117.43038000003435,None,,,,,,,,,,,,,,,,,,,,,,,,,,,,,,,,,,,,,,,,,,11042,001,2024_Mar_15_1620,nback,2021.2.3,60.149797046807336,
2-back,instructions\back-2.png,conditions\2back-p.xlsx,instructions\2-BACK.png,"(25, 15)",practice,2,4,stim\gray.png,stim\gray.png,stim\gray.png,stim\yellow.png,right,0,0,0,0,0,2,2,2,0,9,9,9,,,,,,,,,,,,,,,,,,,,,,,,,,,118.93251570005668,119.93455240002368,118.93251570005668,119.93455240002368,118.93251570005668,119.93455240002368,118.93251570005668,119.93455240002368,right,1,0.1800715000135824,118.93251570005668,None,118.93251570005668,None,118.93251570005668,119.43349650001619,118.93251570005668,119.43349650001619,118.93251570005668,119.43349650001619,118.93251570005668,119.43349650001619,118.93251570005668,None,,,,,,,,,,,,,,,,,,,,,,,,,,,,,,,,,,,,,,,,,,11042,001,2024_Mar_15_1620,nback,2021.2.3,60.149797046807336,
2-back,instructions\back-2.png,conditions\2back-p.xlsx,instructions\2-BACK.png,"(25, 15)",practice,2,1,stim\yellow.png,stim\gray.png,stim\gray.png,stim\gray.png,right,0,0,0,0,0,2,2,2,0,10,10,10,,,,,,,,,,,,,,,,,,,,,,,,,,,120.43494360003388,121.43635030003497,120.43494360003388,121.43635030003497,120.43494360003388,121.43635030003497,120.43494360003388,121.43635030003497,right,1,0.1255331999855116,120.43494360003388,None,120.43494360003388,None,120.43494360003388,120.93558950000443,120.43494360003388,120.93558950000443,120.43494360003388,120.93558950000443,120.43494360003388,120.93558950000443,120.43494360003388,None,,,,,,,,,,,,,,,,,,,,,,,,,,,,,,,,,,,,,,,,,,11042,001,2024_Mar_15_1620,nback,2021.2.3,60.149797046807336,
2-back,instructions\back-2.png,conditions\2back-p.xlsx,instructions\2-BACK.png,"(25, 15)",practice,2,2,stim\gray.png,stim\yellow.png,stim\gray.png,stim\gray.png,down,0,0,0,0,0,2,2,2,0,11,11,11,,,,,,,,,,,,,,,,,,,,,,,,,,,121.93712050002068,122.93881080002757,121.93712050002068,122.93881080002757,121.93712050002068,122.93881080002757,121.93712050002068,122.93881080002757,up,0,1.3193597000208683,121.93712050002068,None,121.93712050002068,None,121.93712050002068,122.43786750000436,121.93712050002068,122.43786750000436,121.93712050002068,122.43786750000436,121.93712050002068,122.43786750000436,121.93712050002068,None,,,,,,,,,,,,,,,,,,,,,,,,,,,,,,,,,,,,,,,,,,11042,001,2024_Mar_15_1620,nback,2021.2.3,60.149797046807336,
2-back,instructions\back-2.png,conditions\2back-p.xlsx,instructions\2-BACK.png,"(25, 15)",practice,2,4,stim\gray.png,stim\gray.png,stim\gray.png,stim\yellow.png,up,0,0,0,0,0,2,2,2,0,12,12,12,,,,,,,,,,,,,,,,,,,,,,,,,,,123.43941840005573,124.44099290005397,123.43941840005573,124.44099290005397,123.43941840005573,124.44099290005397,123.43941840005573,124.44099290005397,None,0,,123.43941840005573,None,123.43941840005573,None,123.43941840005573,123.94009050005116,123.43941840005573,123.94009050005116,123.43941840005573,123.94009050005116,123.43941840005573,123.94009050005116,123.43941840005573,None,,,,,,,,,,,,,,,,,,,,,,,,,,,,,,,,,,,,,,,,,,11042,001,2024_Mar_15_1620,nback,2021.2.3,60.149797046807336,
2-back,instructions\back-2.png,conditions\2back-p.xlsx,instructions\2-BACK.png,"(25, 15)",practice,2,3,stim\gray.png,stim\gray.png,stim\yellow.png,stim\gray.png,left,0,0,0,0,0,2,2,2,0,13,13,13,,,,,,,,,,,,,,,,,,,,,,,,,,,124.94172550004441,125.94325830001617,124.94172550004441,125.94325830001617,124.94172550004441,125.94325830001617,124.94172550004441,125.94325830001617,down,0,1.411113000009209,124.94172550004441,None,124.94172550004441,None,124.94172550004441,125.4425418000319,124.94172550004441,125.4425418000319,124.94172550004441,125.4425418000319,124.94172550004441,125.4425418000319,124.94172550004441,None,,,,,,,,,,,,,,,,,,,,,,,,,,,,,,,,,,,,,,,,,,11042,001,2024_Mar_15_1620,nback,2021.2.3,60.149797046807336,
2-back,instructions\back-2.png,conditions\2back-p.xlsx,instructions\2-BACK.png,"(25, 15)",practice,2,1,stim\yellow.png,stim\gray.png,stim\gray.png,stim\gray.png,down,0,0,0,0,0,2,2,2,0,14,14,14,,,,,,,,,,,,,,,,,,,,,,,,,,,126.42726360005327,127.4297954000067,126.42726360005327,127.4297954000067,126.42726360005327,127.4297954000067,126.42726360005327,127.4297954000067,right,0,1.4053687999839894,126.42726360005327,None,126.42726360005327,None,126.42726360005327,126.92796610004734,126.42726360005327,126.92796610004734,126.42726360005327,126.92796610004734,126.42726360005327,126.92796610004734,126.42726360005327,None,,,,,,,,,,,,,,,,,,,,,,,,,,,,,,,,,,,,,,,,,,11042,001,2024_Mar_15_1620,nback,2021.2.3,60.149797046807336,
2-back,instructions\back-2.png,conditions\2back-p.xlsx,instructions\2-BACK.png,"(25, 15)",practice,2,2,stim\gray.png,stim\yellow.png,stim\gray.png,stim\gray.png,right,0,0,0,0,0,2,2,2,0,15,15,15,,,,,,,,,,,,,,,,,,,,,,,,,,,127.92947120004101,128.93098310002824,127.92947120004101,128.93098310002824,127.92947120004101,128.93098310002824,127.92947120004101,128.93098310002824,up,0,1.3921817999798805,127.92947120004101,None,127.92947120004101,None,127.92947120004101,128.43026120000286,127.92947120004101,128.43026120000286,127.92947120004101,128.43026120000286,127.92947120004101,128.43026120000286,127.92947120004101,None,,,,,,,,,,,,,,,,,,,,,,,,,,,,,,,,,,,,,,,,,,11042,001,2024_Mar_15_1620,nback,2021.2.3,60.149797046807336,
2-back,instructions\back-2.png,conditions\2back-p.xlsx,instructions\2-BACK.png,"(25, 15)",practice,2,3,stim\gray.png,stim\gray.png,stim\yellow.png,stim\gray.png,up,0,0,0,0,0,2,2,2,0,16,16,16,,,,,,,,,,,,,,,,,,,,,,,,,,,129.43182910000905,130.43339230003767,129.43182910000905,130.43339230003767,129.43182910000905,130.43339230003767,129.43182910000905,130.43339230003767,left,0,1.3607756000128575,129.43182910000905,None,129.43182910000905,None,129.43182910000905,129.93239240004914,129.43182910000905,129.93239240004914,129.43182910000905,129.93239240004914,129.43182910000905,129.93239240004914,129.43182910000905,None,,,,,,,,,,,,,,,,,,,,,,,,,,,,,,,,,,,,,,,,,,11042,001,2024_Mar_15_1620,nback,2021.2.3,60.149797046807336,
2-back,instructions\back-2.png,conditions\2back-p.xlsx,instructions\2-BACK.png,"(25, 15)",practice,2,1,stim\yellow.png,stim\gray.png,stim\gray.png,stim\gray.png,left,0,0,0,0,0,2,2,2,0,17,17,17,,,,,,,,,,,,,,,,,,,,,,,,,,,130.93402190000052,131.9354015000281,130.93402190000052,131.9354015000281,130.93402190000052,131.9354015000281,130.93402190000052,131.9354015000281,right,0,1.2829713999526575,130.93402190000052,None,130.93402190000052,None,130.93402190000052,131.43511340004625,130.93402190000052,131.43511340004625,130.93402190000052,131.43511340004625,130.93402190000052,131.43511340004625,130.93402190000052,None,,,,,,,,,,,,,,,,,,,,,,,,,,,,,,,,,,,,,,,,,,11042,001,2024_Mar_15_1620,nback,2021.2.3,60.149797046807336,
2-back,instructions\back-2.png,conditions\2back-p.xlsx,instructions\2-BACK.png,"(25, 15)",practice,2,4,stim\gray.png,stim\gray.png,stim\gray.png,stim\yellow.png,right,0,0,0,0,0,2,2,2,0,18,18,18,,,,,,,,,,,,,,,,,,,,,,,,,,,132.43629000004148,133.4377326000249,132.43629000004148,133.4377326000249,132.43629000004148,133.4377326000249,132.43629000004148,133.4377326000249,None,0,,132.43629000004148,None,132.43629000004148,None,132.43629000004148,132.93709050002508,132.43629000004148,132.93709050002508,132.43629000004148,132.93709050002508,132.43629000004148,132.93709050002508,132.43629000004148,None,,,,,,,,,,,,,,,,,,,,,,,,,,,,,,,,,,,,,,,,,,11042,001,2024_Mar_15_1620,nback,2021.2.3,60.149797046807336,
2-back,instructions\back-2.png,conditions\2back-p.xlsx,instructions\2-BACK.png,"(25, 15)",practice,2,2,stim\gray.png,stim\yellow.png,stim\gray.png,stim\gray.png,up,0,0,0,0,0,2,2,2,0,19,19,19,,,,,,,,,,,,,,,,,,,,,,,,,,,133.93872320000082,134.94032080000034,133.93872320000082,134.94032080000034,133.93872320000082,134.94032080000034,133.93872320000082,134.94032080000034,down,0,0.1678226999938488,133.93872320000082,None,133.93872320000082,None,133.93872320000082,134.43970760004595,133.93872320000082,134.43970760004595,133.93872320000082,134.43970760004595,133.93872320000082,134.43970760004595,133.93872320000082,None,,,,,,,,,,,,,,,,,,,,,,,,,,,,,,,,,,,,,,,,,,11042,001,2024_Mar_15_1620,nback,2021.2.3,60.149797046807336,
2-back,instructions\back-2.png,conditions\2back-p.xlsx,instructions\2-BACK.png,"(25, 15)",,,,,,,,,0,0,0,0,0,2,2,2,,,,,,,,,,,,,,,,,,,,,,,,,,,,,,,,,,,,,,,,,,,,,,,,,,,,,,,,,,,,,,,,,,,,,,,,,,,,,,,,,,,,,,,,,,,,,,,,,11042,001,2024_Mar_15_1620,nback,2021.2.3,60.149797046807336,
,,,,,,,,,,,,,0,0,0,0,,,,,,,,,,,,,,,,,,,,,,,,,,,,,,,,,,,,,,,,,,,,,,,,,,,,,,,,,,,,135.44064030004665,None,space,4.7525828999932855,135.44064030004665,None,,,,,,,,,,,,,,,,,,,,,,,,,,,,,,,,,,,,11042,001,2024_Mar_15_1620,nback,2021.2.3,60.149797046807336,
,,,,,,,,,,,,,,,,,,,,,,,,,,,,,,,,,,,,,,,,,,,,,,,,,,,,,,,,,,,,,,,,,,,,,,,,,,,,,,,,,,140.2144751000451,None,space,13.250765999953728,140.2144751000451,None,,,,,,,,,,,,,,,,,,,,,,,,,,,,,,11042,001,2024_Mar_15_1620,nback,2021.2.3,60.149797046807336,
0-back,instructions\back-0.png,conditions\00back-e.xlsx,,,experiment,0,3,stim\gray.png,stim\gray.png,stim\yellow.png,stim\gray.png,right,,,,,,,,,,,,,0,0,0,0,0,0,0,0,,,,,,,,,,,,,,,153.7192289000377,158.22607680002693,158.14203590003308,None,,,,,,,,,,,,,,,,,,,,,,,,,,,,,,,,,,,,,,right,1,0.8690773999551311,158.50866780005163,None,158.50866780005163,None,158.50866780005163,159.5113162000198,158.50866780005163,159.5113162000198,158.50866780005163,159.5113162000198,158.50866780005163,159.5113162000198,158.50866780005163,159.00972460000776,158.50866780005163,159.00972460000776,158.50866780005163,159.00972460000776,158.50866780005163,159.00972460000776,158.50866780005163,None,,,,,11042,001,2024_Mar_15_1620,nback,2021.2.3,60.149797046807336,
0-back,instructions\back-0.png,conditions\00back-e.xlsx,,,experiment,0,4,stim\gray.png,stim\gray.png,stim\gray.png,stim\yellow.png,down,,,,,,,,,,,,,0,0,0,0,0,1,1,1,,,,,,,,,,,,,,,,,,,,,,,,,,,,,,,,,,,,,,,,,,,,,,,,,,,,,,,,down,1,0.3349546000245027,159.9944798000506,None,159.9944798000506,None,159.9944798000506,160.99591130000772,159.9944798000506,160.99591130000772,159.9944798000506,160.99591130000772,159.9944798000506,160.99591130000772,159.9944798000506,160.4952775000129,159.9944798000506,160.4952775000129,159.9944798000506,160.4952775000129,159.9944798000506,160.4952775000129,159.9944798000506,None,,,,,11042,001,2024_Mar_15_1620,nback,2021.2.3,60.149797046807336,
0-back,instructions\back-0.png,conditions\00back-e.xlsx,,,experiment,0,1,stim\yellow.png,stim\gray.png,stim\gray.png,stim\gray.png,up,,,,,,,,,,,,,0,0,0,0,0,2,2,2,,,,,,,,,,,,,,,,,,,,,,,,,,,,,,,,,,,,,,,,,,,,,,,,,,,,,,,,up,1,0.2814768999814987,161.49661990004824,None,161.49661990004824,None,161.49661990004824,162.4982730000047,161.49661990004824,162.4982730000047,161.49661990004824,162.4982730000047,161.49661990004824,162.4982730000047,161.49661990004824,161.99741110001924,161.49661990004824,161.99741110001924,161.49661990004824,161.99741110001924,161.49661990004824,161.99741110001924,161.49661990004824,None,,,,,11042,001,2024_Mar_15_1620,nback,2021.2.3,60.149797046807336,
0-back,instructions\back-0.png,conditions\00back-e.xlsx,,,experiment,0,2,stim\gray.png,stim\yellow.png,stim\gray.png,stim\gray.png,left,,,,,,,,,,,,,0,0,0,0,0,3,3,3,,,,,,,,,,,,,,,,,,,,,,,,,,,,,,,,,,,,,,,,,,,,,,,,,,,,,,,,left,1,0.26687530003255233,162.99920090002706,None,162.99920090002706,None,162.99920090002706,164.00070260005305,162.99920090002706,164.00070260005305,162.99920090002706,164.00070260005305,162.99920090002706,164.00070260005305,162.99920090002706,163.49977350002155,162.99920090002706,163.49977350002155,162.99920090002706,163.49977350002155,162.99920090002706,163.49977350002155,162.99920090002706,None,,,,,11042,001,2024_Mar_15_1620,nback,2021.2.3,60.149797046807336,
0-back,instructions\back-0.png,conditions\00back-e.xlsx,,,experiment,0,2,stim\gray.png,stim\yellow.png,stim\gray.png,stim\gray.png,left,,,,,,,,,,,,,0,0,0,0,0,4,4,4,,,,,,,,,,,,,,,,,,,,,,,,,,,,,,,,,,,,,,,,,,,,,,,,,,,,,,,,left,1,0.43656119995284826,164.50127020000946,None,164.50127020000946,None,164.50127020000946,165.50259340001503,164.50127020000946,165.50259340001503,164.50127020000946,165.50259340001503,164.50127020000946,165.50259340001503,164.50127020000946,165.00192300003255,164.50127020000946,165.00192300003255,164.50127020000946,165.00192300003255,164.50127020000946,165.00192300003255,164.50127020000946,None,,,,,11042,001,2024_Mar_15_1620,nback,2021.2.3,60.149797046807336,
0-back,instructions\back-0.png,conditions\00back-e.xlsx,,,experiment,0,1,stim\yellow.png,stim\gray.png,stim\gray.png,stim\gray.png,up,,,,,,,,,,,,,0,0,0,0,0,5,5,5,,,,,,,,,,,,,,,,,,,,,,,,,,,,,,,,,,,,,,,,,,,,,,,,,,,,,,,,up,1,0.3343855999992229,166.00355470000068,None,166.00355470000068,None,166.00355470000068,167.00576900003944,166.00355470000068,167.00576900003944,166.00355470000068,167.00576900003944,166.00355470000068,167.00576900003944,166.00355470000068,166.50431940000271,166.00355470000068,166.50431940000271,166.00355470000068,166.50431940000271,166.00355470000068,166.50431940000271,166.00355470000068,None,,,,,11042,001,2024_Mar_15_1620,nback,2021.2.3,60.149797046807336,
0-back,instructions\back-0.png,conditions\00back-e.xlsx,,,experiment,0,4,stim\gray.png,stim\gray.png,stim\gray.png,stim\yellow.png,down,,,,,,,,,,,,,0,0,0,0,0,6,6,6,,,,,,,,,,,,,,,,,,,,,,,,,,,,,,,,,,,,,,,,,,,,,,,,,,,,,,,,down,1,0.33675529999891296,167.48913670005277,None,167.48913670005277,None,167.48913670005277,168.49056930001825,167.48913670005277,168.49056930001825,167.48913670005277,168.49056930001825,167.48913670005277,168.49056930001825,167.48913670005277,167.99015220004367,167.48913670005277,167.99015220004367,167.48913670005277,167.99015220004367,167.48913670005277,167.99015220004367,167.48913670005277,None,,,,,11042,001,2024_Mar_15_1620,nback,2021.2.3,60.149797046807336,
0-back,instructions\back-0.png,conditions\00back-e.xlsx,,,experiment,0,3,stim\gray.png,stim\gray.png,stim\yellow.png,stim\gray.png,right,,,,,,,,,,,,,0,0,0,0,0,7,7,7,,,,,,,,,,,,,,,,,,,,,,,,,,,,,,,,,,,,,,,,,,,,,,,,,,,,,,,,right,1,0.32196999998996034,168.9917381000123,None,168.9917381000123,None,168.9917381000123,169.99303110002074,168.9917381000123,169.99303110002074,168.9917381000123,169.99303110002074,168.9917381000123,169.99303110002074,168.9917381000123,169.49213870003587,168.9917381000123,169.49213870003587,168.9917381000123,169.49213870003587,168.9917381000123,169.49213870003587,168.9917381000123,None,,,,,11042,001,2024_Mar_15_1620,nback,2021.2.3,60.149797046807336,
0-back,instructions\back-0.png,conditions\00back-e.xlsx,,,experiment,0,4,stim\gray.png,stim\gray.png,stim\gray.png,stim\yellow.png,down,,,,,,,,,,,,,0,0,0,0,0,8,8,8,,,,,,,,,,,,,,,,,,,,,,,,,,,,,,,,,,,,,,,,,,,,,,,,,,,,,,,,down,1,0.3714820999884978,170.49441420001676,None,170.49441420001676,None,170.49441420001676,171.49546500004362,170.49441420001676,171.49546500004362,170.49441420001676,171.49546500004362,170.49441420001676,171.49546500004362,170.49441420001676,170.99431280000135,170.49441420001676,170.99431280000135,170.49441420001676,170.99431280000135,170.49441420001676,170.99431280000135,170.49441420001676,None,,,,,11042,001,2024_Mar_15_1620,nback,2021.2.3,60.149797046807336,
0-back,instructions\back-0.png,conditions\00back-e.xlsx,,,experiment,0,3,stim\gray.png,stim\gray.png,stim\yellow.png,stim\gray.png,right,,,,,,,,,,,,,0,0,0,0,0,9,9,9,,,,,,,,,,,,,,,,,,,,,,,,,,,,,,,,,,,,,,,,,,,,,,,,,,,,,,,,right,1,0.41443629999412224,171.9957370000193,None,171.9957370000193,None,171.9957370000193,172.99743100005435,171.9957370000193,172.99743100005435,171.9957370000193,172.99743100005435,171.9957370000193,172.99743100005435,171.9957370000193,172.49677260004682,171.9957370000193,172.49677260004682,171.9957370000193,172.49677260004682,171.9957370000193,172.49677260004682,171.9957370000193,None,,,,,11042,001,2024_Mar_15_1620,nback,2021.2.3,60.149797046807336,
0-back,instructions\back-0.png,conditions\00back-e.xlsx,,,experiment,0,1,stim\yellow.png,stim\gray.png,stim\gray.png,stim\gray.png,up,,,,,,,,,,,,,0,0,0,0,0,10,10,10,,,,,,,,,,,,,,,,,,,,,,,,,,,,,,,,,,,,,,,,,,,,,,,,,,,,,,,,up,1,0.29600079997908324,173.49829120002687,None,173.49829120002687,None,173.49829120002687,174.50024420005502,173.49829120002687,174.50024420005502,173.49829120002687,174.50024420005502,173.49829120002687,174.50024420005502,173.49829120002687,173.998965100036,173.49829120002687,173.998965100036,173.49829120002687,173.998965100036,173.49829120002687,173.998965100036,173.49829120002687,None,,,,,11042,001,2024_Mar_15_1620,nback,2021.2.3,60.149797046807336,
0-back,instructions\back-0.png,conditions\00back-e.xlsx,,,experiment,0,2,stim\gray.png,stim\yellow.png,stim\gray.png,stim\gray.png,left,,,,,,,,,,,,,0,0,0,0,0,11,11,11,,,,,,,,,,,,,,,,,,,,,,,,,,,,,,,,,,,,,,,,,,,,,,,,,,,,,,,,left,1,0.3137847000034526,175.00031330005731,None,175.00031330005731,None,175.00031330005731,176.00195760000497,175.00031330005731,176.00195760000497,175.00031330005731,176.00195760000497,175.00031330005731,176.00195760000497,175.00031330005731,175.50125960004516,175.00031330005731,175.50125960004516,175.00031330005731,175.50125960004516,175.00031330005731,175.50125960004516,175.00031330005731,None,,,,,11042,001,2024_Mar_15_1620,nback,2021.2.3,60.149797046807336,
0-back,instructions\back-0.png,conditions\00back-e.xlsx,,,experiment,0,3,stim\gray.png,stim\gray.png,stim\yellow.png,stim\gray.png,right,,,,,,,,,,,,,0,0,0,0,0,12,12,12,,,,,,,,,,,,,,,,,,,,,,,,,,,,,,,,,,,,,,,,,,,,,,,,,,,,,,,,right,1,0.3232863000012003,176.50262950005708,None,176.50262950005708,None,176.50262950005708,177.50420760002453,176.50262950005708,177.50420760002453,176.50262950005708,177.50420760002453,176.50262950005708,177.50420760002453,176.50262950005708,177.00386080000317,176.50262950005708,177.00386080000317,176.50262950005708,177.00386080000317,176.50262950005708,177.00386080000317,176.50262950005708,None,,,,,11042,001,2024_Mar_15_1620,nback,2021.2.3,60.149797046807336,
0-back,instructions\back-0.png,conditions\00back-e.xlsx,,,experiment,0,1,stim\yellow.png,stim\gray.png,stim\gray.png,stim\gray.png,up,,,,,,,,,,,,,0,0,0,0,0,13,13,13,,,,,,,,,,,,,,,,,,,,,,,,,,,,,,,,,,,,,,,,,,,,,,,,,,,,,,,,up,1,0.3183851999929175,177.98807550000492,None,177.98807550000492,None,177.98807550000492,178.98978200001875,177.98807550000492,178.98978200001875,177.98807550000492,178.98978200001875,177.98807550000492,178.98978200001875,177.98807550000492,178.48909950000234,177.98807550000492,178.48909950000234,177.98807550000492,178.48909950000234,177.98807550000492,178.48909950000234,177.98807550000492,None,,,,,11042,001,2024_Mar_15_1620,nback,2021.2.3,60.149797046807336,
0-back,instructions\back-0.png,conditions\00back-e.xlsx,,,experiment,0,4,stim\gray.png,stim\gray.png,stim\gray.png,stim\yellow.png,down,,,,,,,,,,,,,0,0,0,0,0,14,14,14,,,,,,,,,,,,,,,,,,,,,,,,,,,,,,,,,,,,,,,,,,,,,,,,,,,,,,,,down,1,0.39208029996370897,179.4905319000245,None,179.4905319000245,None,179.4905319000245,180.49260470003355,179.4905319000245,180.49260470003355,179.4905319000245,180.49260470003355,179.4905319000245,180.49260470003355,179.4905319000245,179.99120550003136,179.4905319000245,179.99120550003136,179.4905319000245,179.99120550003136,179.4905319000245,179.99120550003136,179.4905319000245,None,,,,,11042,001,2024_Mar_15_1620,nback,2021.2.3,60.149797046807336,
0-back,instructions\back-0.png,conditions\00back-e.xlsx,,,experiment,0,2,stim\gray.png,stim\yellow.png,stim\gray.png,stim\gray.png,left,,,,,,,,,,,,,0,0,0,0,0,15,15,15,,,,,,,,,,,,,,,,,,,,,,,,,,,,,,,,,,,,,,,,,,,,,,,,,,,,,,,,left,1,0.34543960000155494,180.99291470000753,None,180.99291470000753,None,180.99291470000753,181.99422610003967,180.99291470000753,181.99422610003967,180.99291470000753,181.99422610003967,180.99291470000753,181.99422610003967,180.99291470000753,181.49401340004988,180.99291470000753,181.49401340004988,180.99291470000753,181.49401340004988,180.99291470000753,181.49401340004988,180.99291470000753,None,,,,,11042,001,2024_Mar_15_1620,nback,2021.2.3,60.149797046807336,
0-back,instructions\back-0.png,conditions\00back-e.xlsx,,,experiment,0,1,stim\yellow.png,stim\gray.png,stim\gray.png,stim\gray.png,up,,,,,,,,,,,,,0,0,0,0,0,16,16,16,,,,,,,,,,,,,,,,,,,,,,,,,,,,,,,,,,,,,,,,,,,,,,,,,,,,,,,,up,1,0.363226699992083,182.49506140005542,None,182.49506140005542,None,182.49506140005542,183.49726720002946,182.49506140005542,183.49726720002946,182.49506140005542,183.49726720002946,182.49506140005542,183.49726720002946,182.49506140005542,182.99605770001654,182.49506140005542,182.99605770001654,182.49506140005542,182.99605770001654,182.49506140005542,182.99605770001654,182.49506140005542,None,,,,,11042,001,2024_Mar_15_1620,nback,2021.2.3,60.149797046807336,
0-back,instructions\back-0.png,conditions\00back-e.xlsx,,,experiment,0,2,stim\gray.png,stim\yellow.png,stim\gray.png,stim\gray.png,left,,,,,,,,,,,,,0,0,0,0,0,17,17,17,,,,,,,,,,,,,,,,,,,,,,,,,,,,,,,,,,,,,,,,,,,,,,,,,,,,,,,,left,1,0.3888579999911599,183.9974086000002,None,183.9974086000002,None,183.9974086000002,184.9987167000072,183.9974086000002,184.9987167000072,183.9974086000002,184.9987167000072,183.9974086000002,184.9987167000072,183.9974086000002,184.4981121000019,183.9974086000002,184.4981121000019,183.9974086000002,184.4981121000019,183.9974086000002,184.4981121000019,183.9974086000002,None,,,,,11042,001,2024_Mar_15_1620,nback,2021.2.3,60.149797046807336,
0-back,instructions\back-0.png,conditions\00back-e.xlsx,,,experiment,0,3,stim\gray.png,stim\gray.png,stim\yellow.png,stim\gray.png,right,,,,,,,,,,,,,0,0,0,0,0,18,18,18,,,,,,,,,,,,,,,,,,,,,,,,,,,,,,,,,,,,,,,,,,,,,,,,,,,,,,,,right,1,0.37583179998910055,185.49976420000894,None,185.49976420000894,None,185.49976420000894,186.50119390001055,185.49976420000894,186.50119390001055,185.49976420000894,186.50119390001055,185.49976420000894,186.50119390001055,185.49976420000894,186.00031339999987,185.49976420000894,186.00031339999987,185.49976420000894,186.00031339999987,185.49976420000894,186.00031339999987,185.49976420000894,None,,,,,11042,001,2024_Mar_15_1620,nback,2021.2.3,60.149797046807336,
0-back,instructions\back-0.png,conditions\00back-e.xlsx,,,experiment,0,4,stim\gray.png,stim\gray.png,stim\gray.png,stim\yellow.png,down,,,,,,,,,,,,,0,0,0,0,0,19,19,19,,,,,,,,,,,,,,,,,,,,,,,,,,,,,,,,,,,,,,,,,,,,,,,,,,,,,,,,down,1,0.376302000018768,187.00187130004633,None,187.00187130004633,None,187.00187130004633,188.00333750003483,187.00187130004633,188.00333750003483,187.00187130004633,188.00333750003483,187.00187130004633,188.00333750003483,187.00187130004633,187.50260440004058,187.00187130004633,187.50260440004058,187.00187130004633,187.50260440004058,187.00187130004633,187.50260440004058,187.00187130004633,None,,,,,11042,001,2024_Mar_15_1620,nback,2021.2.3,60.149797046807336,
0-back,instructions\back-0.png,conditions\00back-e.xlsx,,,,,,,,,,,,,,,,,,,,,,,0,0,0,0,,,,,,,,,,,,,,,,,,,,,,,,,,,,,,,,,,,,,,,,,,,,,,,,,,,,,,,,,,,,,,,,,,,,,,,,,,,,,,,,,,,,,188.4873258000007,None,,,11042,001,2024_Mar_15_1620,nback,2021.2.3,60.149797046807336,
1-back,instructions\back-1.png,conditions\12back-e.xlsx,,,experiment,1,2,stim\gray.png,stim\yellow.png,stim\gray.png,stim\gray.png,None,,,,,,,,,,,,,0,1,1,6,0,0,0,0,,,,,,,,,,,,,,,189.6228011000203,194.12997820001328,194.09598510002252,None,,,,,,,,,,,,,,,,,,,,,,,,,,,,,,,,,,,,,,None,1,,194.51331800001208,None,194.51331800001208,None,194.51331800001208,195.514760900056,194.51331800001208,195.514760900056,194.51331800001208,195.514760900056,194.51331800001208,195.514760900056,194.51331800001208,195.01429370004917,194.51331800001208,195.01429370004917,194.51331800001208,195.01429370004917,194.51331800001208,195.01429370004917,194.51331800001208,None,,,,,11042,001,2024_Mar_15_1620,nback,2021.2.3,60.149797046807336,
1-back,instructions\back-1.png,conditions\12back-e.xlsx,,,experiment,1,3,stim\gray.png,stim\gray.png,stim\yellow.png,stim\gray.png,left,,,,,,,,,,,,,0,1,1,6,0,1,1,1,,,,,,,,,,,,,,,,,,,,,,,,,,,,,,,,,,,,,,,,,,,,,,,,,,,,,,,,right,0,0.46829190000426024,195.99880820000544,None,195.99880820000544,None,195.99880820000544,197.0003058000002,195.99880820000544,197.0003058000002,195.99880820000544,197.0003058000002,195.99880820000544,197.0003058000002,195.99880820000544,196.49988710001344,195.99880820000544,196.49988710001344,195.99880820000544,196.49988710001344,195.99880820000544,196.49988710001344,195.99880820000544,None,,,,,11042,001,2024_Mar_15_1620,nback,2021.2.3,60.149797046807336,
1-back,instructions\back-1.png,conditions\12back-e.xlsx,,,experiment,1,4,stim\gray.png,stim\gray.png,stim\gray.png,stim\yellow.png,right,,,,,,,,,,,,,0,1,1,6,0,2,2,2,,,,,,,,,,,,,,,,,,,,,,,,,,,,,,,,,,,,,,,,,,,,,,,,,,,,,,,,down,0,1.469568900007289,197.50091680005426,None,197.50091680005426,None,197.50091680005426,198.50255070003914,197.50091680005426,198.50255070003914,197.50091680005426,198.50255070003914,197.50091680005426,198.50255070003914,197.50091680005426,198.00197550002486,197.50091680005426,198.00197550002486,197.50091680005426,198.00197550002486,197.50091680005426,198.00197550002486,197.50091680005426,None,,,,,11042,001,2024_Mar_15_1620,nback,2021.2.3,60.149797046807336,
1-back,instructions\back-1.png,conditions\12back-e.xlsx,,,experiment,1,3,stim\gray.png,stim\gray.png,stim\yellow.png,stim\gray.png,down,,,,,,,,,,,,,0,1,1,6,0,3,3,3,,,,,,,,,,,,,,,,,,,,,,,,,,,,,,,,,,,,,,,,,,,,,,,,,,,,,,,,None,0,,199.00317570002517,None,199.00317570002517,None,199.00317570002517,200.00476080004591,199.00317570002517,200.00476080004591,199.00317570002517,200.00476080004591,199.00317570002517,200.00476080004591,199.00317570002517,199.50389270001324,199.00317570002517,199.50389270001324,199.00317570002517,199.50389270001324,199.00317570002517,199.50389270001324,199.00317570002517,None,,,,,11042,001,2024_Mar_15_1620,nback,2021.2.3,60.149797046807336,
1-back,instructions\back-1.png,conditions\12back-e.xlsx,,,experiment,1,1,stim\yellow.png,stim\gray.png,stim\gray.png,stim\gray.png,right,,,,,,,,,,,,,0,1,1,6,0,4,4,4,,,,,,,,,,,,,,,,,,,,,,,,,,,,,,,,,,,,,,,,,,,,,,,,,,,,,,,,right,1,0.31357929995283484,200.4893224000116,None,200.4893224000116,None,200.4893224000116,201.49025480001,200.4893224000116,201.49025480001,200.4893224000116,201.49025480001,200.4893224000116,201.49025480001,200.4893224000116,200.9898411000031,200.4893224000116,200.9898411000031,200.4893224000116,200.9898411000031,200.4893224000116,200.9898411000031,200.4893224000116,None,,,,,11042,001,2024_Mar_15_1620,nback,2021.2.3,60.149797046807336,
1-back,instructions\back-1.png,conditions\12back-e.xlsx,,,experiment,1,2,stim\gray.png,stim\yellow.png,stim\gray.png,stim\gray.png,up,,,,,,,,,,,,,0,1,1,6,0,5,5,5,,,,,,,,,,,,,,,,,,,,,,,,,,,,,,,,,,,,,,,,,,,,,,,,,,,,,,,,up,1,0.3637266000150703,201.99145980004687,None,201.99145980004687,None,201.99145980004687,202.9926043000305,201.99145980004687,202.9926043000305,201.99145980004687,202.9926043000305,201.99145980004687,202.9926043000305,201.99145980004687,202.49201050004922,201.99145980004687,202.49201050004922,201.99145980004687,202.49201050004922,201.99145980004687,202.49201050004922,201.99145980004687,None,,,,,11042,001,2024_Mar_15_1620,nback,2021.2.3,60.149797046807336,
1-back,instructions\back-1.png,conditions\12back-e.xlsx,,,experiment,1,2,stim\gray.png,stim\yellow.png,stim\gray.png,stim\gray.png,left,,,,,,,,,,,,,0,1,1,6,0,6,6,6,,,,,,,,,,,,,,,,,,,,,,,,,,,,,,,,,,,,,,,,,,,,,,,,,,,,,,,,left,1,0.381761499971617,203.4933044000063,None,203.4933044000063,None,203.4933044000063,204.49495440005558,203.4933044000063,204.49495440005558,203.4933044000063,204.49495440005558,203.4933044000063,204.49495440005558,203.4933044000063,203.99415730003966,203.4933044000063,203.99415730003966,203.4933044000063,203.99415730003966,203.4933044000063,203.99415730003966,203.4933044000063,None,,,,,11042,001,2024_Mar_15_1620,nback,2021.2.3,60.149797046807336,
1-back,instructions\back-1.png,conditions\12back-e.xlsx,,,experiment,1,4,stim\gray.png,stim\gray.png,stim\gray.png,stim\yellow.png,left,,,,,,,,,,,,,0,1,1,6,0,7,7,7,,,,,,,,,,,,,,,,,,,,,,,,,,,,,,,,,,,,,,,,,,,,,,,,,,,,,,,,left,1,0.41534130001673475,204.99550510005793,None,204.99550510005793,None,204.99550510005793,205.99770290002925,204.99550510005793,205.99770290002925,204.99550510005793,205.99770290002925,204.99550510005793,205.99770290002925,204.99550510005793,205.49673530005384,204.99550510005793,205.49673530005384,204.99550510005793,205.49673530005384,204.99550510005793,205.49673530005384,204.99550510005793,None,,,,,11042,001,2024_Mar_15_1620,nback,2021.2.3,60.149797046807336,
1-back,instructions\back-1.png,conditions\12back-e.xlsx,,,experiment,1,1,stim\yellow.png,stim\gray.png,stim\gray.png,stim\gray.png,down,,,,,,,,,,,,,0,1,1,6,0,8,8,8,,,,,,,,,,,,,,,,,,,,,,,,,,,,,,,,,,,,,,,,,,,,,,,,,,,,,,,,down,1,0.3849827000522055,206.49789430003148,None,206.49789430003148,None,206.49789430003148,207.49930310004856,206.49789430003148,207.49930310004856,206.49789430003148,207.49930310004856,206.49789430003148,207.49930310004856,206.49789430003148,206.99901290005073,206.49789430003148,206.99901290005073,206.49789430003148,206.99901290005073,206.49789430003148,206.99901290005073,206.49789430003148,None,,,,,11042,001,2024_Mar_15_1620,nback,2021.2.3,60.149797046807336,
1-back,instructions\back-1.png,conditions\12back-e.xlsx,,,experiment,1,3,stim\gray.png,stim\gray.png,stim\yellow.png,stim\gray.png,up,,,,,,,,,,,,,0,1,1,6,0,9,9,9,,,,,,,,,,,,,,,,,,,,,,,,,,,,,,,,,,,,,,,,,,,,,,,,,,,,,,,,up,1,0.4028398999944329,208.00022890005494,None,208.00022890005494,None,208.00022890005494,209.00151340005687,208.00022890005494,209.00151340005687,208.00022890005494,209.00151340005687,208.00022890005494,209.00151340005687,208.00022890005494,208.50089330004994,208.00022890005494,208.50089330004994,208.00022890005494,208.50089330004994,208.00022890005494,208.50089330004994,208.00022890005494,None,,,,,11042,001,2024_Mar_15_1620,nback,2021.2.3,60.149797046807336,
1-back,instructions\back-1.png,conditions\12back-e.xlsx,,,experiment,1,4,stim\gray.png,stim\gray.png,stim\gray.png,stim\yellow.png,right,,,,,,,,,,,,,0,1,1,6,0,10,10,10,,,,,,,,,,,,,,,,,,,,,,,,,,,,,,,,,,,,,,,,,,,,,,,,,,,,,,,,right,1,0.33299989998340607,209.50246530002914,None,209.50246530002914,None,209.50246530002914,210.50479590002215,209.50246530002914,210.50479590002215,209.50246530002914,210.50479590002215,209.50246530002914,210.50479590002215,209.50246530002914,210.0032421000069,209.50246530002914,210.0032421000069,209.50246530002914,210.0032421000069,209.50246530002914,210.0032421000069,209.50246530002914,None,,,,,11042,001,2024_Mar_15_1620,nback,2021.2.3,60.149797046807336,
1-back,instructions\back-1.png,conditions\12back-e.xlsx,,,experiment,1,3,stim\gray.png,stim\gray.png,stim\yellow.png,stim\gray.png,down,,,,,,,,,,,,,0,1,1,6,0,11,11,11,,,,,,,,,,,,,,,,,,,,,,,,,,,,,,,,,,,,,,,,,,,,,,,,,,,,,,,,down,1,0.2551246000220999,210.98800110002048,None,210.98800110002048,None,210.98800110002048,211.98943040001905,210.98800110002048,211.98943040001905,210.98800110002048,211.98943040001905,210.98800110002048,211.98943040001905,210.98800110002048,211.4888034000178,210.98800110002048,211.4888034000178,210.98800110002048,211.4888034000178,210.98800110002048,211.4888034000178,210.98800110002048,None,,,,,11042,001,2024_Mar_15_1620,nback,2021.2.3,60.149797046807336,
1-back,instructions\back-1.png,conditions\12back-e.xlsx,,,experiment,1,1,stim\yellow.png,stim\gray.png,stim\gray.png,stim\gray.png,left,,,,,,,,,,,,,0,1,1,6,0,12,12,12,,,,,,,,,,,,,,,,,,,,,,,,,,,,,,,,,,,,,,,,,,,,,,,,,,,,,,,,right,0,0.23519420000957325,212.4901454000501,None,212.4901454000501,None,212.4901454000501,213.49180570000317,212.4901454000501,213.49180570000317,212.4901454000501,213.49180570000317,212.4901454000501,213.49180570000317,212.4901454000501,212.99112330004573,212.4901454000501,212.99112330004573,212.4901454000501,212.99112330004573,212.4901454000501,212.99112330004573,212.4901454000501,None,,,,,11042,001,2024_Mar_15_1620,nback,2021.2.3,60.149797046807336,
1-back,instructions\back-1.png,conditions\12back-e.xlsx,,,experiment,1,4,stim\gray.png,stim\gray.png,stim\gray.png,stim\yellow.png,up,,,,,,,,,,,,,0,1,1,6,0,13,13,13,,,,,,,,,,,,,,,,,,,,,,,,,,,,,,,,,,,,,,,,,,,,,,,,,,,,,,,,up,1,0.3143745000124909,213.99258280004142,None,213.99258280004142,None,213.99258280004142,214.99449550005374,213.99258280004142,214.99449550005374,213.99258280004142,214.99449550005374,213.99258280004142,214.99449550005374,213.99258280004142,214.4931073000189,213.99258280004142,214.4931073000189,213.99258280004142,214.4931073000189,213.99258280004142,214.4931073000189,213.99258280004142,None,,,,,11042,001,2024_Mar_15_1620,nback,2021.2.3,60.149797046807336,
1-back,instructions\back-1.png,conditions\12back-e.xlsx,,,experiment,1,1,stim\yellow.png,stim\gray.png,stim\gray.png,stim\gray.png,down,,,,,,,,,,,,,0,1,1,6,0,14,14,14,,,,,,,,,,,,,,,,,,,,,,,,,,,,,,,,,,,,,,,,,,,,,,,,,,,,,,,,down,1,0.22026789997471496,215.49470380001003,None,215.49470380001003,None,215.49470380001003,216.49674280005274,215.49470380001003,216.49674280005274,215.49470380001003,216.49674280005274,215.49470380001003,216.49674280005274,215.49470380001003,215.9957010000362,215.49470380001003,215.9957010000362,215.49470380001003,215.9957010000362,215.49470380001003,215.9957010000362,215.49470380001003,None,,,,,11042,001,2024_Mar_15_1620,nback,2021.2.3,60.149797046807336,
1-back,instructions\back-1.png,conditions\12back-e.xlsx,,,experiment,1,2,stim\gray.png,stim\yellow.png,stim\gray.png,stim\gray.png,up,,,,,,,,,,,,,0,1,1,6,0,15,15,15,,,,,,,,,,,,,,,,,,,,,,,,,,,,,,,,,,,,,,,,,,,,,,,,,,,,,,,,up,1,0.1982035999535583,216.99699970002985,None,216.99699970002985,None,216.99699970002985,217.99873580003623,216.99699970002985,217.99873580003623,216.99699970002985,217.99873580003623,216.99699970002985,217.99873580003623,216.99699970002985,217.4977043000399,216.99699970002985,217.4977043000399,216.99699970002985,217.4977043000399,216.99699970002985,217.4977043000399,216.99699970002985,None,,,,,11042,001,2024_Mar_15_1620,nback,2021.2.3,60.149797046807336,
1-back,instructions\back-1.png,conditions\12back-e.xlsx,,,experiment,1,1,stim\yellow.png,stim\gray.png,stim\gray.png,stim\gray.png,left,,,,,,,,,,,,,0,1,1,6,0,16,16,16,,,,,,,,,,,,,,,,,,,,,,,,,,,,,,,,,,,,,,,,,,,,,,,,,,,,,,,,left,1,0.15178240003297105,218.4993162000319,None,218.4993162000319,None,218.4993162000319,219.50072040001396,218.4993162000319,219.50072040001396,218.4993162000319,219.50072040001396,218.4993162000319,219.50072040001396,218.4993162000319,219.00014010001905,218.4993162000319,219.00014010001905,218.4993162000319,219.00014010001905,218.4993162000319,219.00014010001905,218.4993162000319,None,,,,,11042,001,2024_Mar_15_1620,nback,2021.2.3,60.149797046807336,
1-back,instructions\back-1.png,conditions\12back-e.xlsx,,,experiment,1,3,stim\gray.png,stim\gray.png,stim\yellow.png,stim\gray.png,up,,,,,,,,,,,,,0,1,1,6,0,17,17,17,,,,,,,,,,,,,,,,,,,,,,,,,,,,,,,,,,,,,,,,,,,,,,,,,,,,,,,,up,1,0.3142722000484355,220.00151000003098,None,220.00151000003098,None,220.00151000003098,221.00336300005438,220.00151000003098,221.00336300005438,220.00151000003098,221.00336300005438,220.00151000003098,221.00336300005438,220.00151000003098,220.50268420000793,220.00151000003098,220.50268420000793,220.00151000003098,220.50268420000793,220.00151000003098,220.50268420000793,220.00151000003098,None,,,,,11042,001,2024_Mar_15_1620,nback,2021.2.3,60.149797046807336,
1-back,instructions\back-1.png,conditions\12back-e.xlsx,,,experiment,1,2,stim\gray.png,stim\yellow.png,stim\gray.png,stim\gray.png,right,,,,,,,,,,,,,0,1,1,6,0,18,18,18,,,,,,,,,,,,,,,,,,,,,,,,,,,,,,,,,,,,,,,,,,,,,,,,,,,,,,,,right,1,0.2924402000498958,221.5038786000223,None,221.5038786000223,None,221.5038786000223,222.50546810001833,221.5038786000223,222.50546810001833,221.5038786000223,222.50546810001833,221.5038786000223,222.50546810001833,221.5038786000223,222.00515030004317,221.5038786000223,222.00515030004317,221.5038786000223,222.00515030004317,221.5038786000223,222.00515030004317,221.5038786000223,None,,,,,11042,001,2024_Mar_15_1620,nback,2021.2.3,60.149797046807336,
1-back,instructions\back-1.png,conditions\12back-e.xlsx,,,experiment,1,4,stim\gray.png,stim\gray.png,stim\gray.png,stim\yellow.png,left,,,,,,,,,,,,,0,1,1,6,0,19,19,19,,,,,,,,,,,,,,,,,,,,,,,,,,,,,,,,,,,,,,,,,,,,,,,,,,,,,,,,left,1,0.22226459998637438,222.98937510000542,None,222.98937510000542,None,222.98937510000542,223.99098580004647,222.98937510000542,223.99098580004647,222.98937510000542,223.99098580004647,222.98937510000542,223.99098580004647,222.98937510000542,223.49013700004434,222.98937510000542,223.49013700004434,222.98937510000542,223.49013700004434,222.98937510000542,223.49013700004434,222.98937510000542,None,,,,,11042,001,2024_Mar_15_1620,nback,2021.2.3,60.149797046807336,
1-back,instructions\back-1.png,conditions\12back-e.xlsx,,,,,,,,,,,,,,,,,,,,,,,0,1,1,6,,,,,,,,,,,,,,,,,,,,,,,,,,,,,,,,,,,,,,,,,,,,,,,,,,,,,,,,,,,,,,,,,,,,,,,,,,,,,,,,,,,,,224.49336010002298,None,,,11042,001,2024_Mar_15_1620,nback,2021.2.3,60.149797046807336,
2-back,instructions\back-2.png,conditions\22back-e.xlsx,,,experiment,2,2,stim\gray.png,stim\yellow.png,stim\gray.png,stim\gray.png,None,,,,,,,,,,,,,0,2,2,8,0,0,0,0,,,,,,,,,,,,,,,225.7094333000132,230.21792400005506,230.1503332000575,None,,,,,,,,,,,,,,,,,,,,,,,,,,,,,,,,,,,,,,None,1,,230.51797900005477,None,230.51797900005477,None,230.51797900005477,231.51897430000827,230.51797900005477,231.51897430000827,230.51797900005477,231.51897430000827,230.51797900005477,231.51897430000827,230.51797900005477,231.0185362000484,230.51797900005477,231.0185362000484,230.51797900005477,231.0185362000484,230.51797900005477,231.0185362000484,230.51797900005477,None,,,,,11042,001,2024_Mar_15_1620,nback,2021.2.3,60.149797046807336,
2-back,instructions\back-2.png,conditions\22back-e.xlsx,,,experiment,2,3,stim\gray.png,stim\gray.png,stim\yellow.png,stim\gray.png,None,,,,,,,,,,,,,0,2,2,8,0,1,1,1,,,,,,,,,,,,,,,,,,,,,,,,,,,,,,,,,,,,,,,,,,,,,,,,,,,,,,,,None,1,,232.0030540000298,None,232.0030540000298,None,232.0030540000298,233.00462090002839,232.0030540000298,233.00462090002839,232.0030540000298,233.00462090002839,232.0030540000298,233.00462090002839,232.0030540000298,232.50368620001245,232.0030540000298,232.50368620001245,232.0030540000298,232.50368620001245,232.0030540000298,232.50368620001245,232.0030540000298,None,,,,,11042,001,2024_Mar_15_1620,nback,2021.2.3,60.149797046807336,
2-back,instructions\back-2.png,conditions\22back-e.xlsx,,,experiment,2,1,stim\yellow.png,stim\gray.png,stim\gray.png,stim\gray.png,left,,,,,,,,,,,,,0,2,2,8,0,2,2,2,,,,,,,,,,,,,,,,,,,,,,,,,,,,,,,,,,,,,,,,,,,,,,,,,,,,,,,,left,1,0.37902049999684095,233.48861420003232,None,233.48861420003232,None,233.48861420003232,234.489984200045,233.48861420003232,234.489984200045,233.48861420003232,234.489984200045,233.48861420003232,234.489984200045,233.48861420003232,233.98934060003376,233.48861420003232,233.98934060003376,233.48861420003232,233.98934060003376,233.48861420003232,233.98934060003376,233.48861420003232,None,,,,,11042,001,2024_Mar_15_1620,nback,2021.2.3,60.149797046807336,
2-back,instructions\back-2.png,conditions\22back-e.xlsx,,,experiment,2,2,stim\gray.png,stim\yellow.png,stim\gray.png,stim\gray.png,right,,,,,,,,,,,,,0,2,2,8,0,3,3,3,,,,,,,,,,,,,,,,,,,,,,,,,,,,,,,,,,,,,,,,,,,,,,,,,,,,,,,,right,1,0.36411309998948127,234.99152170005254,None,234.99152170005254,None,234.99152170005254,235.99287460005144,234.99152170005254,235.99287460005144,234.99152170005254,235.99287460005144,234.99152170005254,235.99287460005144,234.99152170005254,235.49163350003073,234.99152170005254,235.49163350003073,234.99152170005254,235.49163350003073,234.99152170005254,235.49163350003073,234.99152170005254,None,,,,,11042,001,2024_Mar_15_1620,nback,2021.2.3,60.149797046807336,
2-back,instructions\back-2.png,conditions\22back-e.xlsx,,,experiment,2,1,stim\yellow.png,stim\gray.png,stim\gray.png,stim\gray.png,up,,,,,,,,,,,,,0,2,2,8,0,4,4,4,,,,,,,,,,,,,,,,,,,,,,,,,,,,,,,,,,,,,,,,,,,,,,,,,,,,,,,,up,1,0.14259509998373687,236.49321870005224,None,236.49321870005224,None,236.49321870005224,237.49454480002169,236.49321870005224,237.49454480002169,236.49321870005224,237.49454480002169,236.49321870005224,237.49454480002169,236.49321870005224,236.99395580001874,236.49321870005224,236.99395580001874,236.49321870005224,236.99395580001874,236.49321870005224,236.99395580001874,236.49321870005224,None,,,,,11042,001,2024_Mar_15_1620,nback,2021.2.3,60.149797046807336,
2-back,instructions\back-2.png,conditions\22back-e.xlsx,,,experiment,2,4,stim\gray.png,stim\gray.png,stim\gray.png,stim\yellow.png,left,,,,,,,,,,,,,0,2,2,8,0,5,5,5,,,,,,,,,,,,,,,,,,,,,,,,,,,,,,,,,,,,,,,,,,,,,,,,,,,,,,,,left,1,0.10416459996486083,237.9955499000498,None,237.9955499000498,None,237.9955499000498,238.99770340003306,237.9955499000498,238.99770340003306,237.9955499000498,238.99770340003306,237.9955499000498,238.99770340003306,237.9955499000498,238.4965543000144,237.9955499000498,238.4965543000144,237.9955499000498,238.4965543000144,237.9955499000498,238.4965543000144,237.9955499000498,None,,,,,11042,001,2024_Mar_15_1620,nback,2021.2.3,60.149797046807336,
2-back,instructions\back-2.png,conditions\22back-e.xlsx,,,experiment,2,3,stim\gray.png,stim\gray.png,stim\yellow.png,stim\gray.png,up,,,,,,,,,,,,,0,2,2,8,0,6,6,6,,,,,,,,,,,,,,,,,,,,,,,,,,,,,,,,,,,,,,,,,,,,,,,,,,,,,,,,up,1,0.17770040000323206,239.49783640005626,None,239.49783640005626,None,239.49783640005626,240.4994039000012,239.49783640005626,240.4994039000012,239.49783640005626,240.4994039000012,239.49783640005626,240.4994039000012,239.49783640005626,239.9982668000157,239.49783640005626,239.9982668000157,239.49783640005626,239.9982668000157,239.49783640005626,239.9982668000157,239.49783640005626,None,,,,,11042,001,2024_Mar_15_1620,nback,2021.2.3,60.149797046807336,
2-back,instructions\back-2.png,conditions\22back-e.xlsx,,,experiment,2,1,stim\yellow.png,stim\gray.png,stim\gray.png,stim\gray.png,down,,,,,,,,,,,,,0,2,2,8,0,7,7,7,,,,,,,,,,,,,,,,,,,,,,,,,,,,,,,,,,,,,,,,,,,,,,,,,,,,,,,,down,1,0.29178119997959584,240.99983010004507,None,240.99983010004507,None,240.99983010004507,242.00124770001275,240.99983010004507,242.00124770001275,240.99983010004507,242.00124770001275,240.99983010004507,242.00124770001275,240.99983010004507,241.50060430000303,240.99983010004507,241.50060430000303,240.99983010004507,241.50060430000303,240.99983010004507,241.50060430000303,240.99983010004507,None,,,,,11042,001,2024_Mar_15_1620,nback,2021.2.3,60.149797046807336,
2-back,instructions\back-2.png,conditions\22back-e.xlsx,,,experiment,2,2,stim\gray.png,stim\yellow.png,stim\gray.png,stim\gray.png,right,,,,,,,,,,,,,0,2,2,8,0,8,8,8,,,,,,,,,,,,,,,,,,,,,,,,,,,,,,,,,,,,,,,,,,,,,,,,,,,,,,,,right,1,0.18251410004450008,242.50244690000545,None,242.50244690000545,None,242.50244690000545,243.5037487000227,242.50244690000545,243.5037487000227,242.50244690000545,243.5037487000227,242.50244690000545,243.5037487000227,242.50244690000545,243.0030131000094,242.50244690000545,243.0030131000094,242.50244690000545,243.0030131000094,242.50244690000545,243.0030131000094,242.50244690000545,None,,,,,11042,001,2024_Mar_15_1620,nback,2021.2.3,60.149797046807336,
2-back,instructions\back-2.png,conditions\22back-e.xlsx,,,experiment,2,1,stim\yellow.png,stim\gray.png,stim\gray.png,stim\gray.png,up,,,,,,,,,,,,,0,2,2,8,0,9,9,9,,,,,,,,,,,,,,,,,,,,,,,,,,,,,,,,,,,,,,,,,,,,,,,,,,,,,,,,up,1,0.08016110002063215,243.9878132000449,None,243.9878132000449,None,243.9878132000449,244.99101140000857,243.9878132000449,244.99101140000857,243.9878132000449,244.99101140000857,243.9878132000449,244.99101140000857,243.9878132000449,244.48842400003923,243.9878132000449,244.48842400003923,243.9878132000449,244.48842400003923,243.9878132000449,244.48842400003923,243.9878132000449,None,,,,,11042,001,2024_Mar_15_1620,nback,2021.2.3,60.149797046807336,
2-back,instructions\back-2.png,conditions\22back-e.xlsx,,,experiment,2,4,stim\gray.png,stim\gray.png,stim\gray.png,stim\yellow.png,left,,,,,,,,,,,,,0,2,2,8,0,10,10,10,,,,,,,,,,,,,,,,,,,,,,,,,,,,,,,,,,,,,,,,,,,,,,,,,,,,,,,,left,1,0.21004829998128116,245.489856900007,None,245.489856900007,None,245.489856900007,246.49148010002682,245.489856900007,246.49148010002682,245.489856900007,246.49148010002682,245.489856900007,246.49148010002682,245.489856900007,245.99095590005163,245.489856900007,245.99095590005163,245.489856900007,245.99095590005163,245.489856900007,245.99095590005163,245.489856900007,None,,,,,11042,001,2024_Mar_15_1620,nback,2021.2.3,60.149797046807336,
2-back,instructions\back-2.png,conditions\22back-e.xlsx,,,experiment,2,2,stim\gray.png,stim\yellow.png,stim\gray.png,stim\gray.png,up,,,,,,,,,,,,,0,2,2,8,0,11,11,11,,,,,,,,,,,,,,,,,,,,,,,,,,,,,,,,,,,,,,,,,,,,,,,,,,,,,,,,up,1,0.1796683000284247,246.99227490002522,None,246.99227490002522,None,246.99227490002522,247.99390890001087,246.99227490002522,247.99390890001087,246.99227490002522,247.99390890001087,246.99227490002522,247.99390890001087,246.99227490002522,247.49298190005356,246.99227490002522,247.49298190005356,246.99227490002522,247.49298190005356,246.99227490002522,247.49298190005356,246.99227490002522,None,,,,,11042,001,2024_Mar_15_1620,nback,2021.2.3,60.149797046807336,
2-back,instructions\back-2.png,conditions\22back-e.xlsx,,,experiment,2,4,stim\gray.png,stim\gray.png,stim\gray.png,stim\yellow.png,down,,,,,,,,,,,,,0,2,2,8,0,12,12,12,,,,,,,,,,,,,,,,,,,,,,,,,,,,,,,,,,,,,,,,,,,,,,,,,,,,,,,,down,1,0.26127229997655377,248.49480560002849,None,248.49480560002849,None,248.49480560002849,249.49618680001004,248.49480560002849,249.49618680001004,248.49480560002849,249.49618680001004,248.49480560002849,249.49618680001004,248.49480560002849,248.99529160000384,248.49480560002849,248.99529160000384,248.49480560002849,248.99529160000384,248.49480560002849,248.99529160000384,248.49480560002849,None,,,,,11042,001,2024_Mar_15_1620,nback,2021.2.3,60.149797046807336,
2-back,instructions\back-2.png,conditions\22back-e.xlsx,,,experiment,2,3,stim\gray.png,stim\gray.png,stim\yellow.png,stim\gray.png,left,,,,,,,,,,,,,0,2,2,8,0,13,13,13,,,,,,,,,,,,,,,,,,,,,,,,,,,,,,,,,,,,,,,,,,,,,,,,,,,,,,,,left,1,0.15084710001247004,249.99732560000848,None,249.99732560000848,None,249.99732560000848,250.99893990001874,249.99732560000848,250.99893990001874,249.99732560000848,250.99893990001874,249.99732560000848,250.99893990001874,249.99732560000848,250.4974754000432,249.99732560000848,250.4974754000432,249.99732560000848,250.4974754000432,249.99732560000848,250.4974754000432,249.99732560000848,None,,,,,11042,001,2024_Mar_15_1620,nback,2021.2.3,60.149797046807336,
2-back,instructions\back-2.png,conditions\22back-e.xlsx,,,experiment,2,3,stim\gray.png,stim\gray.png,stim\yellow.png,stim\gray.png,down,,,,,,,,,,,,,0,2,2,8,0,14,14,14,,,,,,,,,,,,,,,,,,,,,,,,,,,,,,,,,,,,,,,,,,,,,,,,,,,,,,,,down,1,0.24116910004522651,251.4991224000114,None,251.4991224000114,None,251.4991224000114,252.50075250002556,251.4991224000114,252.50075250002556,251.4991224000114,252.50075250002556,251.4991224000114,252.50075250002556,251.4991224000114,251.99977160000708,251.4991224000114,251.99977160000708,251.4991224000114,251.99977160000708,251.4991224000114,251.99977160000708,251.4991224000114,None,,,,,11042,001,2024_Mar_15_1620,nback,2021.2.3,60.149797046807336,
2-back,instructions\back-2.png,conditions\22back-e.xlsx,,,experiment,2,4,stim\gray.png,stim\gray.png,stim\gray.png,stim\yellow.png,right,,,,,,,,,,,,,0,2,2,8,0,15,15,15,,,,,,,,,,,,,,,,,,,,,,,,,,,,,,,,,,,,,,,,,,,,,,,,,,,,,,,,right,1,0.05917500000214204,253.00106200005393,None,253.00106200005393,None,253.00106200005393,254.00272860005498,253.00106200005393,254.00272860005498,253.00106200005393,254.00272860005498,253.00106200005393,254.00272860005498,253.00106200005393,253.50249500002246,253.00106200005393,253.50249500002246,253.00106200005393,253.50249500002246,253.00106200005393,253.50249500002246,253.00106200005393,None,,,,,11042,001,2024_Mar_15_1620,nback,2021.2.3,60.149797046807336,
2-back,instructions\back-2.png,conditions\22back-e.xlsx,,,experiment,2,2,stim\gray.png,stim\yellow.png,stim\gray.png,stim\gray.png,right,,,,,,,,,,,,,0,2,2,8,0,16,16,16,,,,,,,,,,,,,,,,,,,,,,,,,,,,,,,,,,,,,,,,,,,,,,,,,,,,,,,,right,1,0.33364030002849177,254.4867876000353,None,254.4867876000353,None,254.4867876000353,255.4883956000558,254.4867876000353,255.4883956000558,254.4867876000353,255.4883956000558,254.4867876000353,255.4883956000558,254.4867876000353,254.98767780000344,254.4867876000353,254.98767780000344,254.4867876000353,254.98767780000344,254.4867876000353,254.98767780000344,254.4867876000353,None,,,,,11042,001,2024_Mar_15_1620,nback,2021.2.3,60.149797046807336,
2-back,instructions\back-2.png,conditions\22back-e.xlsx,,,experiment,2,1,stim\yellow.png,stim\gray.png,stim\gray.png,stim\gray.png,down,,,,,,,,,,,,,0,2,2,8,0,17,17,17,,,,,,,,,,,,,,,,,,,,,,,,,,,,,,,,,,,,,,,,,,,,,,,,,,,,,,,,down,1,0.19875439995666966,255.989090600051,None,255.989090600051,None,255.989090600051,256.990673500055,255.989090600051,256.990673500055,255.989090600051,256.990673500055,255.989090600051,256.990673500055,255.989090600051,256.4898140000296,255.989090600051,256.4898140000296,255.989090600051,256.4898140000296,255.989090600051,256.4898140000296,255.989090600051,None,,,,,11042,001,2024_Mar_15_1620,nback,2021.2.3,60.149797046807336,
2-back,instructions\back-2.png,conditions\22back-e.xlsx,,,experiment,2,4,stim\gray.png,stim\gray.png,stim\gray.png,stim\yellow.png,left,,,,,,,,,,,,,0,2,2,8,0,18,18,18,,,,,,,,,,,,,,,,,,,,,,,,,,,,,,,,,,,,,,,,,,,,,,,,,,,,,,,,left,1,0.1530157999950461,257.49143160000676,None,257.49143160000676,None,257.49143160000676,258.49297340004705,257.49143160000676,258.49297340004705,257.49143160000676,258.49297340004705,257.49143160000676,258.49297340004705,257.49143160000676,257.9921616000356,257.49143160000676,257.9921616000356,257.49143160000676,257.9921616000356,257.49143160000676,257.9921616000356,257.49143160000676,None,,,,,11042,001,2024_Mar_15_1620,nback,2021.2.3,60.149797046807336,
2-back,instructions\back-2.png,conditions\22back-e.xlsx,,,experiment,2,3,stim\gray.png,stim\gray.png,stim\yellow.png,stim\gray.png,up,,,,,,,,,,,,,0,2,2,8,0,19,19,19,,,,,,,,,,,,,,,,,,,,,,,,,,,,,,,,,,,,,,,,,,,,,,,,,,,,,,,,up,1,0.24284350004745647,258.9934239000431,None,258.9934239000431,None,258.9934239000431,259.9951305000577,258.9934239000431,259.9951305000577,258.9934239000431,259.9951305000577,258.9934239000431,259.9951305000577,258.9934239000431,259.49451620003674,258.9934239000431,259.49451620003674,258.9934239000431,259.49451620003674,258.9934239000431,259.49451620003674,258.9934239000431,None,,,,,11042,001,2024_Mar_15_1620,nback,2021.2.3,60.149797046807336,
2-back,instructions\back-2.png,conditions\22back-e.xlsx,,,,,,,,,,,,,,,,,,,,,,,0,2,2,8,,,,,,,,,,,,,,,,,,,,,,,,,,,,,,,,,,,,,,,,,,,,,,,,,,,,,,,,,,,,,,,,,,,,,,,,,,,,,,,,,,,,,260.49598730000434,None,,,11042,001,2024_Mar_15_1620,nback,2021.2.3,60.149797046807336,
2-back,instructions\back-2.png,conditions\20back-e.xlsx,,,experiment,2,2,stim\gray.png,stim\yellow.png,stim\gray.png,stim\gray.png,None,,,,,,,,,,,,,0,3,3,2,0,0,0,0,,,,,,,,,,,,,,,261.6474649000447,266.154617400025,266.1382823000313,None,,,,,,,,,,,,,,,,,,,,,,,,,,,,,,,,,,,,,,None,1,,266.5054082000279,None,266.5054082000279,None,266.5054082000279,267.5069051000173,266.5054082000279,267.5069051000173,266.5054082000279,267.5069051000173,266.5054082000279,267.5069051000173,266.5054082000279,267.0057235000422,266.5054082000279,267.0057235000422,266.5054082000279,267.0057235000422,266.5054082000279,267.0057235000422,266.5054082000279,None,,,,,11042,001,2024_Mar_15_1620,nback,2021.2.3,60.149797046807336,
2-back,instructions\back-2.png,conditions\20back-e.xlsx,,,experiment,2,1,stim\yellow.png,stim\gray.png,stim\gray.png,stim\gray.png,None,,,,,,,,,,,,,0,3,3,2,0,1,1,1,,,,,,,,,,,,,,,,,,,,,,,,,,,,,,,,,,,,,,,,,,,,,,,,,,,,,,,,None,1,,267.9906761000166,None,267.9906761000166,None,267.9906761000166,268.9920185000519,267.9906761000166,268.9920185000519,267.9906761000166,268.9920185000519,267.9906761000166,268.9920185000519,267.9906761000166,268.49143450002884,267.9906761000166,268.49143450002884,267.9906761000166,268.49143450002884,267.9906761000166,268.49143450002884,267.9906761000166,None,,,,,11042,001,2024_Mar_15_1620,nback,2021.2.3,60.149797046807336,
2-back,instructions\back-2.png,conditions\20back-e.xlsx,,,experiment,2,4,stim\gray.png,stim\gray.png,stim\gray.png,stim\yellow.png,left,,,,,,,,,,,,,0,3,3,2,0,2,2,2,,,,,,,,,,,,,,,,,,,,,,,,,,,,,,,,,,,,,,,,,,,,,,,,,,,,,,,,left,1,0.3194411000004038,269.49288540001726,None,269.49288540001726,None,269.49288540001726,270.49438910000026,269.49288540001726,270.49438910000026,269.49288540001726,270.49438910000026,269.49288540001726,270.49438910000026,269.49288540001726,269.99383500003023,269.49288540001726,269.99383500003023,269.49288540001726,269.99383500003023,269.49288540001726,269.99383500003023,269.49288540001726,None,,,,,11042,001,2024_Mar_15_1620,nback,2021.2.3,60.149797046807336,
2-back,instructions\back-2.png,conditions\20back-e.xlsx,,,experiment,2,3,stim\gray.png,stim\gray.png,stim\yellow.png,stim\gray.png,up,,,,,,,,,,,,,0,3,3,2,0,3,3,3,,,,,,,,,,,,,,,,,,,,,,,,,,,,,,,,,,,,,,,,,,,,,,,,,,,,,,,,up,1,0.26550820004194975,270.99511250003707,None,270.99511250003707,None,270.99511250003707,271.9966638000333,270.99511250003707,271.9966638000333,270.99511250003707,271.9966638000333,270.99511250003707,271.9966638000333,270.99511250003707,271.4964739000425,270.99511250003707,271.4964739000425,270.99511250003707,271.4964739000425,270.99511250003707,271.4964739000425,270.99511250003707,None,,,,,11042,001,2024_Mar_15_1620,nback,2021.2.3,60.149797046807336,
2-back,instructions\back-2.png,conditions\20back-e.xlsx,,,experiment,2,1,stim\yellow.png,stim\gray.png,stim\gray.png,stim\gray.png,down,,,,,,,,,,,,,0,3,3,2,0,4,4,4,,,,,,,,,,,,,,,,,,,,,,,,,,,,,,,,,,,,,,,,,,,,,,,,,,,,,,,,down,1,0.23519209999358281,272.49727810005425,None,272.49727810005425,None,272.49727810005425,273.4989499000367,272.49727810005425,273.4989499000367,272.49727810005425,273.4989499000367,272.49727810005425,273.4989499000367,272.49727810005425,272.99823790002847,272.49727810005425,272.99823790002847,272.49727810005425,272.99823790002847,272.49727810005425,272.99823790002847,272.49727810005425,None,,,,,11042,001,2024_Mar_15_1620,nback,2021.2.3,60.149797046807336,
2-back,instructions\back-2.png,conditions\20back-e.xlsx,,,experiment,2,2,stim\gray.png,stim\yellow.png,stim\gray.png,stim\gray.png,right,,,,,,,,,,,,,0,3,3,2,0,5,5,5,,,,,,,,,,,,,,,,,,,,,,,,,,,,,,,,,,,,,,,,,,,,,,,,,,,,,,,,right,1,0.22912269999505952,273.9997240000521,None,273.9997240000521,None,273.9997240000521,275.00122050003847,273.9997240000521,275.00122050003847,273.9997240000521,275.00122050003847,273.9997240000521,275.00122050003847,273.9997240000521,274.5010996000492,273.9997240000521,274.5010996000492,273.9997240000521,274.5010996000492,273.9997240000521,274.5010996000492,273.9997240000521,None,,,,,11042,001,2024_Mar_15_1620,nback,2021.2.3,60.149797046807336,
2-back,instructions\back-2.png,conditions\20back-e.xlsx,,,experiment,2,3,stim\gray.png,stim\gray.png,stim\yellow.png,stim\gray.png,up,,,,,,,,,,,,,0,3,3,2,0,6,6,6,,,,,,,,,,,,,,,,,,,,,,,,,,,,,,,,,,,,,,,,,,,,,,,,,,,,,,,,up,1,0.11843720002798364,275.50245310005266,None,275.50245310005266,None,275.50245310005266,276.50328860001173,275.50245310005266,276.50328860001173,275.50245310005266,276.50328860001173,275.50245310005266,276.50328860001173,275.50245310005266,276.00259200000437,275.50245310005266,276.00259200000437,275.50245310005266,276.00259200000437,275.50245310005266,276.00259200000437,275.50245310005266,None,,,,,11042,001,2024_Mar_15_1620,nback,2021.2.3,60.149797046807336,
2-back,instructions\back-2.png,conditions\20back-e.xlsx,,,experiment,2,4,stim\gray.png,stim\gray.png,stim\gray.png,stim\yellow.png,left,,,,,,,,,,,,,0,3,3,2,0,7,7,7,,,,,,,,,,,,,,,,,,,,,,,,,,,,,,,,,,,,,,,,,,,,,,,,,,,,,,,,left,1,0.017093800008296967,276.9876259000157,None,276.9876259000157,None,276.9876259000157,277.98951320000924,276.9876259000157,277.98951320000924,276.9876259000157,277.98951320000924,276.9876259000157,277.98951320000924,276.9876259000157,277.48823350004386,276.9876259000157,277.48823350004386,276.9876259000157,277.48823350004386,276.9876259000157,277.48823350004386,276.9876259000157,None,,,,,11042,001,2024_Mar_15_1620,nback,2021.2.3,60.149797046807336,
2-back,instructions\back-2.png,conditions\20back-e.xlsx,,,experiment,2,3,stim\gray.png,stim\gray.png,stim\yellow.png,stim\gray.png,right,,,,,,,,,,,,,0,3,3,2,0,8,8,8,,,,,,,,,,,,,,,,,,,,,,,,,,,,,,,,,,,,,,,,,,,,,,,,,,,,,,,,right,1,0.019024800043553114,278.4896225000266,None,278.4896225000266,None,278.4896225000266,279.4913363000378,278.4896225000266,279.4913363000378,278.4896225000266,279.4913363000378,278.4896225000266,279.4913363000378,278.4896225000266,278.991015000036,278.4896225000266,278.991015000036,278.4896225000266,278.991015000036,278.4896225000266,278.991015000036,278.4896225000266,None,,,,,11042,001,2024_Mar_15_1620,nback,2021.2.3,60.149797046807336,
2-back,instructions\back-2.png,conditions\20back-e.xlsx,,,experiment,2,4,stim\gray.png,stim\gray.png,stim\gray.png,stim\yellow.png,down,,,,,,,,,,,,,0,3,3,2,0,9,9,9,,,,,,,,,,,,,,,,,,,,,,,,,,,,,,,,,,,,,,,,,,,,,,,,,,,,,,,,None,0,,279.99222800001735,None,279.99222800001735,None,279.99222800001735,280.9935580000165,279.99222800001735,280.9935580000165,279.99222800001735,280.9935580000165,279.99222800001735,280.9935580000165,279.99222800001735,280.4927018000162,279.99222800001735,280.4927018000162,279.99222800001735,280.4927018000162,279.99222800001735,280.4927018000162,279.99222800001735,None,,,,,11042,001,2024_Mar_15_1620,nback,2021.2.3,60.149797046807336,
2-back,instructions\back-2.png,conditions\20back-e.xlsx,,,experiment,2,1,stim\yellow.png,stim\gray.png,stim\gray.png,stim\gray.png,right,,,,,,,,,,,,,0,3,3,2,0,10,10,10,,,,,,,,,,,,,,,,,,,,,,,,,,,,,,,,,,,,,,,,,,,,,,,,,,,,,,,,right,1,0.023411899979691952,281.4943962000543,None,281.4943962000543,None,281.4943962000543,282.4962399000069,281.4943962000543,282.4962399000069,281.4943962000543,282.4962399000069,281.4943962000543,282.4962399000069,281.4943962000543,281.9951499000308,281.4943962000543,281.9951499000308,281.4943962000543,281.9951499000308,281.4943962000543,281.9951499000308,281.4943962000543,None,,,,,11042,001,2024_Mar_15_1620,nback,2021.2.3,60.149797046807336,
2-back,instructions\back-2.png,conditions\20back-e.xlsx,,,experiment,2,2,stim\gray.png,stim\yellow.png,stim\gray.png,stim\gray.png,down,,,,,,,,,,,,,0,3,3,2,0,11,11,11,,,,,,,,,,,,,,,,,,,,,,,,,,,,,,,,,,,,,,,,,,,,,,,,,,,,,,,,down,1,0.20827750000171363,282.9964666000451,None,282.9964666000451,None,282.9964666000451,283.9983478000504,282.9964666000451,283.9983478000504,282.9964666000451,283.9983478000504,282.9964666000451,283.9983478000504,282.9964666000451,283.4972189000109,282.9964666000451,283.4972189000109,282.9964666000451,283.4972189000109,282.9964666000451,283.4972189000109,282.9964666000451,None,,,,,11042,001,2024_Mar_15_1620,nback,2021.2.3,60.149797046807336,
2-back,instructions\back-2.png,conditions\20back-e.xlsx,,,experiment,2,3,stim\gray.png,stim\gray.png,stim\yellow.png,stim\gray.png,up,,,,,,,,,,,,,0,3,3,2,0,12,12,12,,,,,,,,,,,,,,,,,,,,,,,,,,,,,,,,,,,,,,,,,,,,,,,,,,,,,,,,up,1,0.21003070002188906,284.498725500016,None,284.498725500016,None,284.498725500016,285.5003483000328,284.498725500016,285.5003483000328,284.498725500016,285.5003483000328,284.498725500016,285.5003483000328,284.498725500016,284.9998518000357,284.498725500016,284.9998518000357,284.498725500016,284.9998518000357,284.498725500016,284.9998518000357,284.498725500016,None,,,,,11042,001,2024_Mar_15_1620,nback,2021.2.3,60.149797046807336,
2-back,instructions\back-2.png,conditions\20back-e.xlsx,,,experiment,2,1,stim\yellow.png,stim\gray.png,stim\gray.png,stim\gray.png,left,,,,,,,,,,,,,0,3,3,2,0,13,13,13,,,,,,,,,,,,,,,,,,,,,,,,,,,,,,,,,,,,,,,,,,,,,,,,,,,,,,,,left,1,0.11639459995785728,286.0011128000333,None,286.0011128000333,None,286.0011128000333,287.00252450001426,286.0011128000333,287.00252450001426,286.0011128000333,287.00252450001426,286.0011128000333,287.00252450001426,286.0011128000333,286.5019343000022,286.0011128000333,286.5019343000022,286.0011128000333,286.5019343000022,286.0011128000333,286.5019343000022,286.0011128000333,None,,,,,11042,001,2024_Mar_15_1620,nback,2021.2.3,60.149797046807336,
2-back,instructions\back-2.png,conditions\20back-e.xlsx,,,experiment,2,4,stim\gray.png,stim\gray.png,stim\gray.png,stim\yellow.png,right,,,,,,,,,,,,,0,3,3,2,0,14,14,14,,,,,,,,,,,,,,,,,,,,,,,,,,,,,,,,,,,,,,,,,,,,,,,,,,,,,,,,right,1,0.08579429995734245,287.5029899000074,None,287.5029899000074,None,287.5029899000074,288.5047805000213,287.5029899000074,288.5047805000213,287.5029899000074,288.5047805000213,287.5029899000074,288.5047805000213,287.5029899000074,288.00403760001063,287.5029899000074,288.00403760001063,287.5029899000074,288.00403760001063,287.5029899000074,288.00403760001063,287.5029899000074,None,,,,,11042,001,2024_Mar_15_1620,nback,2021.2.3,60.149797046807336,
2-back,instructions\back-2.png,conditions\20back-e.xlsx,,,experiment,2,2,stim\gray.png,stim\yellow.png,stim\gray.png,stim\gray.png,up,,,,,,,,,,,,,0,3,3,2,0,15,15,15,,,,,,,,,,,,,,,,,,,,,,,,,,,,,,,,,,,,,,,,,,,,,,,,,,,,,,,,down,0,1.456415000022389,288.9887105000089,None,288.9887105000089,None,288.9887105000089,289.990492300014,288.9887105000089,289.990492300014,288.9887105000089,289.990492300014,288.9887105000089,289.990492300014,288.9887105000089,289.49021280003944,288.9887105000089,289.49021280003944,288.9887105000089,289.49021280003944,288.9887105000089,289.49021280003944,288.9887105000089,None,,,,,11042,001,2024_Mar_15_1620,nback,2021.2.3,60.149797046807336,
2-back,instructions\back-2.png,conditions\20back-e.xlsx,,,experiment,2,4,stim\gray.png,stim\gray.png,stim\gray.png,stim\yellow.png,down,,,,,,,,,,,,,0,3,3,2,0,16,16,16,,,,,,,,,,,,,,,,,,,,,,,,,,,,,,,,,,,,,,,,,,,,,,,,,,,,,,,,left,0,1.3620289999525994,290.4910941000562,None,290.4910941000562,None,290.4910941000562,291.49271980003687,290.4910941000562,291.49271980003687,290.4910941000562,291.49271980003687,290.4910941000562,291.49271980003687,290.4910941000562,290.9924149000435,290.4910941000562,290.9924149000435,290.4910941000562,290.9924149000435,290.4910941000562,290.9924149000435,290.4910941000562,None,,,,,11042,001,2024_Mar_15_1620,nback,2021.2.3,60.149797046807336,
