backseq,backinstr,backfile,instruction,size_in,Trialtype,back,number,P1,P2,P3,P4,corrAns,trials_practice.thisRepN,trials_practice.thisTrialN,trials_practice.thisN,trials_practice.thisIndex,trials.thisRepN,trials.thisTrialN,trials.thisN,trials.thisIndex,trials_3.thisRepN,trials_3.thisTrialN,trials_3.thisN,trials_3.thisIndex,trials_2.thisRepN,trials_2.thisTrialN,trials_2.thisN,trials_2.thisIndex,trials_4.thisRepN,trials_4.thisTrialN,trials_4.thisN,trials_4.thisIndex,image.started,image.stopped,image_2.started,image_2.stopped,key_resp.keys,key_resp.rt,key_resp.started,key_resp.stopped,image_3.started,image_3.stopped,key_resp_2.keys,key_resp_2.rt,key_resp_2.started,key_resp_2.stopped,image_4.started,image_4.stopped,text.started,text.stopped,H1.started,H1.stopped,H2.started,H2.stopped,H3.started,H3.stopped,H4.started,H4.stopped,key_resp_3.keys,key_resp_3.corr,key_resp_3.started,key_resp_3.stopped,text_4.started,text_4.stopped,F1.started,F1.stopped,F2.started,F2.stopped,F3.started,F3.stopped,F4.started,F4.stopped,image_7.started,image_7.stopped,key_resp_3.rt,text_5.started,text_5.stopped,key_resp_6.keys,key_resp_6.rt,key_resp_6.started,key_resp_6.stopped,image_5.started,image_5.stopped,key_resp_4.keys,key_resp_4.rt,key_resp_4.started,key_resp_4.stopped,key_resp_5.keys,key_resp_5.corr,key_resp_5.started,key_resp_5.stopped,text_3.started,text_3.stopped,H1_2.started,H1_2.stopped,H2_2.started,H2_2.stopped,H3_2.started,H3_2.stopped,H4_2.started,H4_2.stopped,F1_2.started,F1_2.stopped,F2_2.started,F2_2.stopped,F3_2.started,F3_2.stopped,F4_2.started,F4_2.stopped,image_8.started,image_8.stopped,key_resp_5.rt,text_2.started,text_2.stopped,image_6.started,image_6.stopped,participant,session,date,expName,psychopyVersion,frameRate,
,,,,,,,,,,,,,,,,,,,,,,,,,,,,,,,,,9.178066399996169,None,10.113326300051995,None,space,3.073553499998525,10.113326300051995,None,,,,,,,,,,,,,,,,,,,,,,,,,,,,,,,,,,,,,,,,,,,,,,,,,,,,,,,,,,,,,,,,,,,,,,,,,,,,,12004,001,2024_Jun_13_1348,nback,2021.2.3,59.74625765910863,
0-back,instructions\back-0.png,conditions\0back-p.xlsx,instructions\0-BACK.png,"(15, 8)",practice,0,1,stim\yellow.png,stim\gray.png,stim\gray.png,stim\gray.png,up,0,0,0,0,0,0,0,0,0,0,0,0,,,,,,,,,,,,,,,,,13.26772170001641,None,space,1.098852499970235,13.26772170001641,None,14.619802900007926,19.12711170001421,19.043340400094166,None,19.46035060007125,20.462192100007087,19.46035060007125,20.462192100007087,19.46035060007125,20.462192100007087,19.46035060007125,20.462192100007087,None,0,19.46035060007125,None,19.46035060007125,None,19.46035060007125,19.96106950007379,19.46035060007125,19.96106950007379,19.46035060007125,19.96106950007379,19.46035060007125,19.96106950007379,19.46035060007125,None,,,,,,,,,,,,,,,,,,,,,,,,,,,,,,,,,,,,,,,,,,,12004,001,2024_Jun_13_1348,nback,2021.2.3,59.74625765910863,
0-back,instructions\back-0.png,conditions\0back-p.xlsx,instructions\0-BACK.png,"(15, 8)",practice,0,2,stim\gray.png,stim\yellow.png,stim\gray.png,stim\gray.png,left,0,0,0,0,0,0,0,0,0,1,1,1,,,,,,,,,,,,,,,,,,,,,,,,,,,20.89577790000476,21.89751530007925,20.89577790000476,21.89751530007925,20.89577790000476,21.89751530007925,20.89577790000476,21.89751530007925,None,0,20.89577790000476,None,20.89577790000476,None,20.89577790000476,21.396614900091663,20.89577790000476,21.396614900091663,20.89577790000476,21.396614900091663,20.89577790000476,21.396614900091663,20.89577790000476,None,,,,,,,,,,,,,,,,,,,,,,,,,,,,,,,,,,,,,,,,,,,12004,001,2024_Jun_13_1348,nback,2021.2.3,59.74625765910863,
0-back,instructions\back-0.png,conditions\0back-p.xlsx,instructions\0-BACK.png,"(15, 8)",practice,0,3,stim\gray.png,stim\gray.png,stim\yellow.png,stim\gray.png,right,0,0,0,0,0,0,0,0,0,2,2,2,,,,,,,,,,,,,,,,,,,,,,,,,,,22.398080400074832,23.40048040007241,22.398080400074832,23.40048040007241,22.398080400074832,23.40048040007241,22.398080400074832,23.40048040007241,None,0,22.398080400074832,None,22.398080400074832,None,22.398080400074832,22.899036100017838,22.398080400074832,22.899036100017838,22.398080400074832,22.899036100017838,22.398080400074832,22.899036100017838,22.398080400074832,None,,,,,,,,,,,,,,,,,,,,,,,,,,,,,,,,,,,,,,,,,,,12004,001,2024_Jun_13_1348,nback,2021.2.3,59.74625765910863,
0-back,instructions\back-0.png,conditions\0back-p.xlsx,instructions\0-BACK.png,"(15, 8)",practice,0,4,stim\gray.png,stim\gray.png,stim\gray.png,stim\yellow.png,down,0,0,0,0,0,0,0,0,0,3,3,3,,,,,,,,,,,,,,,,,,,,,,,,,,,23.90041190001648,24.901842100080103,23.90041190001648,24.901842100080103,23.90041190001648,24.901842100080103,23.90041190001648,24.901842100080103,None,0,23.90041190001648,None,23.90041190001648,None,23.90041190001648,24.402430600021034,23.90041190001648,24.402430600021034,23.90041190001648,24.402430600021034,23.90041190001648,24.402430600021034,23.90041190001648,None,,,,,,,,,,,,,,,,,,,,,,,,,,,,,,,,,,,,,,,,,,,12004,001,2024_Jun_13_1348,nback,2021.2.3,59.74625765910863,
0-back,instructions\back-0.png,conditions\0back-p.xlsx,instructions\0-BACK.png,"(15, 8)",practice,0,2,stim\gray.png,stim\yellow.png,stim\gray.png,stim\gray.png,left,0,0,0,0,0,0,0,0,0,4,4,4,,,,,,,,,,,,,,,,,,,,,,,,,,,25.402680200058967,26.40429179999046,25.402680200058967,26.40429179999046,25.402680200058967,26.40429179999046,25.402680200058967,26.40429179999046,None,0,25.402680200058967,None,25.402680200058967,None,25.402680200058967,25.904140700004064,25.402680200058967,25.904140700004064,25.402680200058967,25.904140700004064,25.402680200058967,25.904140700004064,25.402680200058967,None,,,,,,,,,,,,,,,,,,,,,,,,,,,,,,,,,,,,,,,,,,,12004,001,2024_Jun_13_1348,nback,2021.2.3,59.74625765910863,
0-back,instructions\back-0.png,conditions\0back-p.xlsx,instructions\0-BACK.png,"(15, 8)",practice,0,1,stim\yellow.png,stim\gray.png,stim\gray.png,stim\gray.png,up,0,0,0,0,0,0,0,0,0,5,5,5,,,,,,,,,,,,,,,,,,,,,,,,,,,26.904772000038065,27.90696170006413,26.904772000038065,27.90696170006413,26.904772000038065,27.90696170006413,26.904772000038065,27.90696170006413,None,0,26.904772000038065,None,26.904772000038065,None,26.904772000038065,27.405898900004104,26.904772000038065,27.405898900004104,26.904772000038065,27.405898900004104,26.904772000038065,27.405898900004104,26.904772000038065,None,,,,,,,,,,,,,,,,,,,,,,,,,,,,,,,,,,,,,,,,,,,12004,001,2024_Jun_13_1348,nback,2021.2.3,59.74625765910863,
0-back,instructions\back-0.png,conditions\0back-p.xlsx,instructions\0-BACK.png,"(15, 8)",practice,0,4,stim\gray.png,stim\gray.png,stim\gray.png,stim\yellow.png,down,0,0,0,0,0,0,0,0,0,6,6,6,,,,,,,,,,,,,,,,,,,,,,,,,,,28.390404000063427,29.391891100094654,28.390404000063427,29.391891100094654,28.390404000063427,29.391891100094654,28.390404000063427,29.391891100094654,None,0,28.390404000063427,None,28.390404000063427,None,28.390404000063427,28.891250199987553,28.390404000063427,28.891250199987553,28.390404000063427,28.891250199987553,28.390404000063427,28.891250199987553,28.390404000063427,None,,,,,,,,,,,,,,,,,,,,,,,,,,,,,,,,,,,,,,,,,,,12004,001,2024_Jun_13_1348,nback,2021.2.3,59.74625765910863,
0-back,instructions\back-0.png,conditions\0back-p.xlsx,instructions\0-BACK.png,"(15, 8)",practice,0,3,stim\gray.png,stim\gray.png,stim\yellow.png,stim\gray.png,right,0,0,0,0,0,0,0,0,0,7,7,7,,,,,,,,,,,,,,,,,,,,,,,,,,,29.892595699988306,30.894263199996203,29.892595699988306,30.894263199996203,29.892595699988306,30.894263199996203,29.892595699988306,30.894263199996203,None,0,29.892595699988306,None,29.892595699988306,None,29.892595699988306,30.393197700032033,29.892595699988306,30.393197700032033,29.892595699988306,30.393197700032033,29.892595699988306,30.393197700032033,29.892595699988306,None,,,,,,,,,,,,,,,,,,,,,,,,,,,,,,,,,,,,,,,,,,,12004,001,2024_Jun_13_1348,nback,2021.2.3,59.74625765910863,
0-back,instructions\back-0.png,conditions\0back-p.xlsx,instructions\0-BACK.png,"(15, 8)",practice,0,3,stim\gray.png,stim\gray.png,stim\yellow.png,stim\gray.png,right,0,0,0,0,0,0,0,0,0,8,8,8,,,,,,,,,,,,,,,,,,,,,,,,,,,31.394876100006513,32.396456200047396,31.394876100006513,32.396456200047396,31.394876100006513,32.396456200047396,31.394876100006513,32.396456200047396,None,0,31.394876100006513,None,31.394876100006513,None,31.394876100006513,31.89561380003579,31.394876100006513,31.89561380003579,31.394876100006513,31.89561380003579,31.394876100006513,31.89561380003579,31.394876100006513,None,,,,,,,,,,,,,,,,,,,,,,,,,,,,,,,,,,,,,,,,,,,12004,001,2024_Jun_13_1348,nback,2021.2.3,59.74625765910863,
0-back,instructions\back-0.png,conditions\0back-p.xlsx,instructions\0-BACK.png,"(15, 8)",practice,0,4,stim\gray.png,stim\gray.png,stim\gray.png,stim\yellow.png,down,0,0,0,0,0,0,0,0,0,9,9,9,,,,,,,,,,,,,,,,,,,,,,,,,,,32.8982766000554,33.8992903000908,32.8982766000554,33.8992903000908,32.8982766000554,33.8992903000908,32.8982766000554,33.8992903000908,None,0,32.8982766000554,None,32.8982766000554,None,32.8982766000554,33.39868430001661,32.8982766000554,33.39868430001661,32.8982766000554,33.39868430001661,32.8982766000554,33.39868430001661,32.8982766000554,None,,,,,,,,,,,,,,,,,,,,,,,,,,,,,,,,,,,,,,,,,,,12004,001,2024_Jun_13_1348,nback,2021.2.3,59.74625765910863,
0-back,instructions\back-0.png,conditions\0back-p.xlsx,instructions\0-BACK.png,"(15, 8)",practice,0,1,stim\yellow.png,stim\gray.png,stim\gray.png,stim\gray.png,up,0,0,0,0,0,0,0,0,0,10,10,10,,,,,,,,,,,,,,,,,,,,,,,,,,,34.39961439999752,35.401115800021216,34.39961439999752,35.401115800021216,34.39961439999752,35.401115800021216,34.39961439999752,35.401115800021216,None,0,34.39961439999752,None,34.39961439999752,None,34.39961439999752,34.901515000034124,34.39961439999752,34.901515000034124,34.39961439999752,34.901515000034124,34.39961439999752,34.901515000034124,34.39961439999752,None,,,,,,,,,,,,,,,,,,,,,,,,,,,,,,,,,,,,,,,,,,,12004,001,2024_Jun_13_1348,nback,2021.2.3,59.74625765910863,
0-back,instructions\back-0.png,conditions\0back-p.xlsx,instructions\0-BACK.png,"(15, 8)",practice,0,2,stim\gray.png,stim\yellow.png,stim\gray.png,stim\gray.png,left,0,0,0,0,0,0,0,0,0,11,11,11,,,,,,,,,,,,,,,,,,,,,,,,,,,35.90178100008052,36.90331170009449,35.90178100008052,36.90331170009449,35.90178100008052,36.90331170009449,35.90178100008052,36.90331170009449,None,0,35.90178100008052,None,35.90178100008052,None,35.90178100008052,36.40354299999308,35.90178100008052,36.40354299999308,35.90178100008052,36.40354299999308,35.90178100008052,36.40354299999308,35.90178100008052,None,,,,,,,,,,,,,,,,,,,,,,,,,,,,,,,,,,,,,,,,,,,12004,001,2024_Jun_13_1348,nback,2021.2.3,59.74625765910863,
0-back,instructions\back-0.png,conditions\0back-p.xlsx,instructions\0-BACK.png,"(15, 8)",practice,0,4,stim\gray.png,stim\gray.png,stim\gray.png,stim\yellow.png,down,0,0,0,0,0,0,0,0,0,12,12,12,,,,,,,,,,,,,,,,,,,,,,,,,,,37.404181500081904,38.40666910004802,37.404181500081904,38.40666910004802,37.404181500081904,38.40666910004802,37.404181500081904,38.40666910004802,None,0,37.404181500081904,None,37.404181500081904,None,37.404181500081904,37.90534800000023,37.404181500081904,37.90534800000023,37.404181500081904,37.90534800000023,37.404181500081904,37.90534800000023,37.404181500081904,None,,,,,,,,,,,,,,,,,,,,,,,,,,,,,,,,,,,,,,,,,,,12004,001,2024_Jun_13_1348,nback,2021.2.3,59.74625765910863,
0-back,instructions\back-0.png,conditions\0back-p.xlsx,instructions\0-BACK.png,"(15, 8)",practice,0,3,stim\gray.png,stim\gray.png,stim\yellow.png,stim\gray.png,right,0,0,0,0,0,0,0,0,0,13,13,13,,,,,,,,,,,,,,,,,,,,,,,,,,,38.906314700026996,39.90867270005401,38.906314700026996,39.90867270005401,38.906314700026996,39.90867270005401,38.906314700026996,39.90867270005401,None,0,38.906314700026996,None,38.906314700026996,None,38.906314700026996,39.40725710010156,38.906314700026996,39.40725710010156,38.906314700026996,39.40725710010156,38.906314700026996,39.40725710010156,38.906314700026996,None,,,,,,,,,,,,,,,,,,,,,,,,,,,,,,,,,,,,,,,,,,,12004,001,2024_Jun_13_1348,nback,2021.2.3,59.74625765910863,
0-back,instructions\back-0.png,conditions\0back-p.xlsx,instructions\0-BACK.png,"(15, 8)",practice,0,1,stim\yellow.png,stim\gray.png,stim\gray.png,stim\gray.png,up,0,0,0,0,0,0,0,0,0,14,14,14,,,,,,,,,,,,,,,,,,,,,,,,,,,40.39190000004601,41.39469680003822,40.39190000004601,41.39469680003822,40.39190000004601,41.39469680003822,40.39190000004601,41.39469680003822,None,0,40.39190000004601,None,40.39190000004601,None,40.39190000004601,40.89258510002401,40.39190000004601,40.89258510002401,40.39190000004601,40.89258510002401,40.39190000004601,40.89258510002401,40.39190000004601,None,,,,,,,,,,,,,,,,,,,,,,,,,,,,,,,,,,,,,,,,,,,12004,001,2024_Jun_13_1348,nback,2021.2.3,59.74625765910863,
0-back,instructions\back-0.png,conditions\0back-p.xlsx,instructions\0-BACK.png,"(15, 8)",practice,0,2,stim\gray.png,stim\yellow.png,stim\gray.png,stim\gray.png,left,0,0,0,0,0,0,0,0,0,15,15,15,,,,,,,,,,,,,,,,,,,,,,,,,,,41.894299200037494,42.89683960005641,41.894299200037494,42.89683960005641,41.894299200037494,42.89683960005641,41.894299200037494,42.89683960005641,None,0,41.894299200037494,None,41.894299200037494,None,41.894299200037494,42.39504780003335,41.894299200037494,42.39504780003335,41.894299200037494,42.39504780003335,41.894299200037494,42.39504780003335,41.894299200037494,None,,,,,,,,,,,,,,,,,,,,,,,,,,,,,,,,,,,,,,,,,,,12004,001,2024_Jun_13_1348,nback,2021.2.3,59.74625765910863,
0-back,instructions\back-0.png,conditions\0back-p.xlsx,instructions\0-BACK.png,"(15, 8)",practice,0,3,stim\gray.png,stim\gray.png,stim\yellow.png,stim\gray.png,right,0,0,0,0,0,0,0,0,0,16,16,16,,,,,,,,,,,,,,,,,,,,,,,,,,,43.396526900003664,44.3979281000793,43.396526900003664,44.3979281000793,43.396526900003664,44.3979281000793,43.396526900003664,44.3979281000793,None,0,43.396526900003664,None,43.396526900003664,None,43.396526900003664,43.89809490006883,43.396526900003664,43.89809490006883,43.396526900003664,43.89809490006883,43.396526900003664,43.89809490006883,43.396526900003664,None,,,,,,,,,,,,,,,,,,,,,,,,,,,,,,,,,,,,,,,,,,,12004,001,2024_Jun_13_1348,nback,2021.2.3,59.74625765910863,
0-back,instructions\back-0.png,conditions\0back-p.xlsx,instructions\0-BACK.png,"(15, 8)",practice,0,1,stim\yellow.png,stim\gray.png,stim\gray.png,stim\gray.png,up,0,0,0,0,0,0,0,0,0,17,17,17,,,,,,,,,,,,,,,,,,,,,,,,,,,44.898842100054026,45.901049000094645,44.898842100054026,45.901049000094645,44.898842100054026,45.901049000094645,44.898842100054026,45.901049000094645,None,0,44.898842100054026,None,44.898842100054026,None,44.898842100054026,45.40039240010083,44.898842100054026,45.40039240010083,44.898842100054026,45.40039240010083,44.898842100054026,45.40039240010083,44.898842100054026,None,,,,,,,,,,,,,,,,,,,,,,,,,,,,,,,,,,,,,,,,,,,12004,001,2024_Jun_13_1348,nback,2021.2.3,59.74625765910863,
0-back,instructions\back-0.png,conditions\0back-p.xlsx,instructions\0-BACK.png,"(15, 8)",practice,0,4,stim\gray.png,stim\gray.png,stim\gray.png,stim\yellow.png,down,0,0,0,0,0,0,0,0,0,18,18,18,,,,,,,,,,,,,,,,,,,,,,,,,,,46.40114130009897,47.40327450004406,46.40114130009897,47.40327450004406,46.40114130009897,47.40327450004406,46.40114130009897,47.40327450004406,None,0,46.40114130009897,None,46.40114130009897,None,46.40114130009897,46.902550800004974,46.40114130009897,46.902550800004974,46.40114130009897,46.902550800004974,46.40114130009897,46.902550800004974,46.40114130009897,None,,,,,,,,,,,,,,,,,,,,,,,,,,,,,,,,,,,,,,,,,,,12004,001,2024_Jun_13_1348,nback,2021.2.3,59.74625765910863,
0-back,instructions\back-0.png,conditions\0back-p.xlsx,instructions\0-BACK.png,"(15, 8)",practice,0,2,stim\gray.png,stim\yellow.png,stim\gray.png,stim\gray.png,left,0,0,0,0,0,0,0,0,0,19,19,19,,,,,,,,,,,,,,,,,,,,,,,,,,,47.90334399999119,48.904668100061826,47.90334399999119,48.904668100061826,47.90334399999119,48.904668100061826,47.90334399999119,48.904668100061826,None,0,47.90334399999119,None,47.90334399999119,None,47.90334399999119,48.40458930004388,47.90334399999119,48.40458930004388,47.90334399999119,48.40458930004388,47.90334399999119,48.40458930004388,47.90334399999119,None,,,,,,,,,,,,,,,,,,,,,,,,,,,,,,,,,,,,,,,,,,,12004,001,2024_Jun_13_1348,nback,2021.2.3,59.74625765910863,
0-back,instructions\back-0.png,conditions\0back-p.xlsx,instructions\0-BACK.png,"(15, 8)",,,,,,,,,0,0,0,0,0,0,0,0,,,,,,,,,,,,,,,,,,,,,,,,,,,,,,,,,,,,,,,,,,,,,,,,,,,,,,,,,,,,,,,,,,,,,,,,,,,,,,,,,,,,,,,,,,,,,,,,,12004,001,2024_Jun_13_1348,nback,2021.2.3,59.74625765910863,
1-back,instructions\back-1.png,conditions\1back-p.xlsx,instructions\1-BACK.png,"(25, 15)",practice,1,1,stim\yellow.png,stim\gray.png,stim\gray.png,stim\gray.png,None,0,0,0,0,0,1,1,1,0,0,0,0,,,,,,,,,,,,,,,,,49.60680030006915,None,space,3.5193783999420702,49.60680030006915,None,53.26213470008224,57.769842999987304,57.73480670002755,None,58.16944570001215,59.17115200008266,58.16944570001215,59.17115200008266,58.16944570001215,59.17115200008266,58.16944570001215,59.17115200008266,None,1,58.16944570001215,None,58.16944570001215,None,58.16944570001215,58.67055710009299,58.16944570001215,58.67055710009299,58.16944570001215,58.67055710009299,58.16944570001215,58.67055710009299,58.16944570001215,None,,,,,,,,,,,,,,,,,,,,,,,,,,,,,,,,,,,,,,,,,,,12004,001,2024_Jun_13_1348,nback,2021.2.3,59.74625765910863,
1-back,instructions\back-1.png,conditions\1back-p.xlsx,instructions\1-BACK.png,"(25, 15)",practice,1,2,stim\gray.png,stim\yellow.png,stim\gray.png,stim\gray.png,up,0,0,0,0,0,1,1,1,0,1,1,1,,,,,,,,,,,,,,,,,,,,,,,,,,,59.65429710003082,60.65585610002745,59.65429710003082,60.65585610002745,59.65429710003082,60.65585610002745,59.65429710003082,60.65585610002745,up,1,59.65429710003082,None,59.65429710003082,None,59.65429710003082,60.15512640005909,59.65429710003082,60.15512640005909,59.65429710003082,60.15512640005909,59.65429710003082,60.15512640005909,59.65429710003082,None,0.2627868999261409,,,,,,,,,,,,,,,,,,,,,,,,,,,,,,,,,,,,,,,,,,12004,001,2024_Jun_13_1348,nback,2021.2.3,59.74625765910863,
1-back,instructions\back-1.png,conditions\1back-p.xlsx,instructions\1-BACK.png,"(25, 15)",practice,1,3,stim\gray.png,stim\gray.png,stim\yellow.png,stim\gray.png,left,0,0,0,0,0,1,1,1,0,2,2,2,,,,,,,,,,,,,,,,,,,,,,,,,,,61.1572461000178,62.15860560000874,61.1572461000178,62.15860560000874,61.1572461000178,62.15860560000874,61.1572461000178,62.15860560000874,left,1,61.1572461000178,None,61.1572461000178,None,61.1572461000178,61.65823659999296,61.1572461000178,61.65823659999296,61.1572461000178,61.65823659999296,61.1572461000178,61.65823659999296,61.1572461000178,None,0.256528600002639,,,,,,,,,,,,,,,,,,,,,,,,,,,,,,,,,,,,,,,,,,12004,001,2024_Jun_13_1348,nback,2021.2.3,59.74625765910863,
1-back,instructions\back-1.png,conditions\1back-p.xlsx,instructions\1-BACK.png,"(25, 15)",practice,1,4,stim\gray.png,stim\gray.png,stim\gray.png,stim\yellow.png,right,0,0,0,0,0,1,1,1,0,3,3,3,,,,,,,,,,,,,,,,,,,,,,,,,,,62.658710599993356,63.66122670006007,62.658710599993356,63.66122670006007,62.658710599993356,63.66122670006007,62.658710599993356,63.66122670006007,right,1,62.658710599993356,None,62.658710599993356,None,62.658710599993356,63.1597136000637,62.658710599993356,63.1597136000637,62.658710599993356,63.1597136000637,62.658710599993356,63.1597136000637,62.658710599993356,None,0.4196174000389874,,,,,,,,,,,,,,,,,,,,,,,,,,,,,,,,,,,,,,,,,,12004,001,2024_Jun_13_1348,nback,2021.2.3,59.74625765910863,
1-back,instructions\back-1.png,conditions\1back-p.xlsx,instructions\1-BACK.png,"(25, 15)",practice,1,2,stim\gray.png,stim\yellow.png,stim\gray.png,stim\gray.png,down,0,0,0,0,0,1,1,1,0,4,4,4,,,,,,,,,,,,,,,,,,,,,,,,,,,64.16085390001535,65.16332420008257,64.16085390001535,65.16332420008257,64.16085390001535,65.16332420008257,64.16085390001535,65.16332420008257,down,1,64.16085390001535,None,64.16085390001535,None,64.16085390001535,64.66326739999931,64.16085390001535,64.66326739999931,64.16085390001535,64.66326739999931,64.16085390001535,64.66326739999931,64.16085390001535,None,0.27629059995524585,,,,,,,,,,,,,,,,,,,,,,,,,,,,,,,,,,,,,,,,,,12004,001,2024_Jun_13_1348,nback,2021.2.3,59.74625765910863,
1-back,instructions\back-1.png,conditions\1back-p.xlsx,instructions\1-BACK.png,"(25, 15)",practice,1,1,stim\yellow.png,stim\gray.png,stim\gray.png,stim\gray.png,left,0,0,0,0,0,1,1,1,0,5,5,5,,,,,,,,,,,,,,,,,,,,,,,,,,,65.66325680003501,66.66555450006854,65.66325680003501,66.66555450006854,65.66325680003501,66.66555450006854,65.66325680003501,66.66555450006854,left,1,65.66325680003501,None,65.66325680003501,None,65.66325680003501,66.16425910010003,65.66325680003501,66.16425910010003,65.66325680003501,66.16425910010003,65.66325680003501,66.16425910010003,65.66325680003501,None,0.3661310999887064,,,,,,,,,,,,,,,,,,,,,,,,,,,,,,,,,,,,,,,,,,12004,001,2024_Jun_13_1348,nback,2021.2.3,59.74625765910863,
1-back,instructions\back-1.png,conditions\1back-p.xlsx,instructions\1-BACK.png,"(25, 15)",practice,1,4,stim\gray.png,stim\gray.png,stim\gray.png,stim\yellow.png,up,0,0,0,0,0,1,1,1,0,6,6,6,,,,,,,,,,,,,,,,,,,,,,,,,,,67.15008490008768,68.15122690005228,67.15008490008768,68.15122690005228,67.15008490008768,68.15122690005228,67.15008490008768,68.15122690005228,up,1,67.15008490008768,None,67.15008490008768,None,67.15008490008768,67.6497402000241,67.15008490008768,67.6497402000241,67.15008490008768,67.6497402000241,67.15008490008768,67.6497402000241,67.15008490008768,None,0.3034652000060305,,,,,,,,,,,,,,,,,,,,,,,,,,,,,,,,,,,,,,,,,,12004,001,2024_Jun_13_1348,nback,2021.2.3,59.74625765910863,
1-back,instructions\back-1.png,conditions\1back-p.xlsx,instructions\1-BACK.png,"(25, 15)",practice,1,3,stim\gray.png,stim\gray.png,stim\yellow.png,stim\gray.png,down,0,0,0,0,0,1,1,1,0,7,7,7,,,,,,,,,,,,,,,,,,,,,,,,,,,68.65118540008552,69.65315320005175,68.65118540008552,69.65315320005175,68.65118540008552,69.65315320005175,68.65118540008552,69.65315320005175,down,1,68.65118540008552,None,68.65118540008552,None,68.65118540008552,69.15190210007131,68.65118540008552,69.15190210007131,68.65118540008552,69.15190210007131,68.65118540008552,69.15190210007131,68.65118540008552,None,0.3784847999922931,,,,,,,,,,,,,,,,,,,,,,,,,,,,,,,,,,,,,,,,,,12004,001,2024_Jun_13_1348,nback,2021.2.3,59.74625765910863,
1-back,instructions\back-1.png,conditions\1back-p.xlsx,instructions\1-BACK.png,"(25, 15)",practice,1,3,stim\gray.png,stim\gray.png,stim\yellow.png,stim\gray.png,right,0,0,0,0,0,1,1,1,0,8,8,8,,,,,,,,,,,,,,,,,,,,,,,,,,,70.15418680000585,71.15497220004909,70.15418680000585,71.15497220004909,70.15418680000585,71.15497220004909,70.15418680000585,71.15497220004909,right,1,70.15418680000585,None,70.15418680000585,None,70.15418680000585,70.65408950007986,70.15418680000585,70.65408950007986,70.15418680000585,70.65408950007986,70.15418680000585,70.65408950007986,70.15418680000585,None,0.37906199996359646,,,,,,,,,,,,,,,,,,,,,,,,,,,,,,,,,,,,,,,,,,12004,001,2024_Jun_13_1348,nback,2021.2.3,59.74625765910863,
1-back,instructions\back-1.png,conditions\1back-p.xlsx,instructions\1-BACK.png,"(25, 15)",practice,1,4,stim\gray.png,stim\gray.png,stim\gray.png,stim\yellow.png,right,0,0,0,0,0,1,1,1,0,9,9,9,,,,,,,,,,,,,,,,,,,,,,,,,,,71.65581860009115,72.65790029999334,71.65581860009115,72.65790029999334,71.65581860009115,72.65790029999334,71.65581860009115,72.65790029999334,right,1,71.65581860009115,None,71.65581860009115,None,71.65581860009115,72.15769000002183,71.65581860009115,72.15769000002183,71.65581860009115,72.15769000002183,71.65581860009115,72.15769000002183,71.65581860009115,None,0.4055328000104055,,,,,,,,,,,,,,,,,,,,,,,,,,,,,,,,,,,,,,,,,,12004,001,2024_Jun_13_1348,nback,2021.2.3,59.74625765910863,
1-back,instructions\back-1.png,conditions\1back-p.xlsx,instructions\1-BACK.png,"(25, 15)",practice,1,1,stim\yellow.png,stim\gray.png,stim\gray.png,stim\gray.png,down,0,0,0,0,0,1,1,1,0,10,10,10,,,,,,,,,,,,,,,,,,,,,,,,,,,73.15943330002483,74.1594383000629,73.15943330002483,74.1594383000629,73.15943330002483,74.1594383000629,73.15943330002483,74.1594383000629,down,1,73.15943330002483,None,73.15943330002483,None,73.15943330002483,73.65896210004576,73.15943330002483,73.65896210004576,73.15943330002483,73.65896210004576,73.15943330002483,73.65896210004576,73.15943330002483,None,0.3982460000552237,,,,,,,,,,,,,,,,,,,,,,,,,,,,,,,,,,,,,,,,,,12004,001,2024_Jun_13_1348,nback,2021.2.3,59.74625765910863,
1-back,instructions\back-1.png,conditions\1back-p.xlsx,instructions\1-BACK.png,"(25, 15)",practice,1,2,stim\gray.png,stim\yellow.png,stim\gray.png,stim\gray.png,up,0,0,0,0,0,1,1,1,0,11,11,11,,,,,,,,,,,,,,,,,,,,,,,,,,,74.660355500062,75.66256960004102,74.660355500062,75.66256960004102,74.660355500062,75.66256960004102,74.660355500062,75.66256960004102,up,1,74.660355500062,None,74.660355500062,None,74.660355500062,75.16116520005744,74.660355500062,75.16116520005744,74.660355500062,75.16116520005744,74.660355500062,75.16116520005744,74.660355500062,None,0.552790499990806,,,,,,,,,,,,,,,,,,,,,,,,,,,,,,,,,,,,,,,,,,12004,001,2024_Jun_13_1348,nback,2021.2.3,59.74625765910863,
1-back,instructions\back-1.png,conditions\1back-p.xlsx,instructions\1-BACK.png,"(25, 15)",practice,1,4,stim\gray.png,stim\gray.png,stim\gray.png,stim\yellow.png,left,0,0,0,0,0,1,1,1,0,12,12,12,,,,,,,,,,,,,,,,,,,,,,,,,,,76.16248270007782,77.16397570003755,76.16248270007782,77.16397570003755,76.16248270007782,77.16397570003755,76.16248270007782,77.16397570003755,left,1,76.16248270007782,None,76.16248270007782,None,76.16248270007782,76.6635407001013,76.16248270007782,76.6635407001013,76.16248270007782,76.6635407001013,76.16248270007782,76.6635407001013,76.16248270007782,None,0.610709200031124,,,,,,,,,,,,,,,,,,,,,,,,,,,,,,,,,,,,,,,,,,12004,001,2024_Jun_13_1348,nback,2021.2.3,59.74625765910863,
1-back,instructions\back-1.png,conditions\1back-p.xlsx,instructions\1-BACK.png,"(25, 15)",practice,1,3,stim\gray.png,stim\gray.png,stim\yellow.png,stim\gray.png,down,0,0,0,0,0,1,1,1,0,13,13,13,,,,,,,,,,,,,,,,,,,,,,,,,,,77.64858440007083,78.65057669999078,77.64858440007083,78.65057669999078,77.64858440007083,78.65057669999078,77.64858440007083,78.65057669999078,down,1,77.64858440007083,None,77.64858440007083,None,77.64858440007083,78.14931580005214,77.64858440007083,78.14931580005214,77.64858440007083,78.14931580005214,77.64858440007083,78.14931580005214,77.64858440007083,None,0.5731660999590531,,,,,,,,,,,,,,,,,,,,,,,,,,,,,,,,,,,,,,,,,,12004,001,2024_Jun_13_1348,nback,2021.2.3,59.74625765910863,
1-back,instructions\back-1.png,conditions\1back-p.xlsx,instructions\1-BACK.png,"(25, 15)",practice,1,1,stim\yellow.png,stim\gray.png,stim\gray.png,stim\gray.png,right,0,0,0,0,0,1,1,1,0,14,14,14,,,,,,,,,,,,,,,,,,,,,,,,,,,79.15029690007214,80.1519179000752,79.15029690007214,80.1519179000752,79.15029690007214,80.1519179000752,79.15029690007214,80.1519179000752,right,1,79.15029690007214,None,79.15029690007214,None,79.15029690007214,79.6511381000746,79.15029690007214,79.6511381000746,79.15029690007214,79.6511381000746,79.15029690007214,79.6511381000746,79.15029690007214,None,0.5913809000048786,,,,,,,,,,,,,,,,,,,,,,,,,,,,,,,,,,,,,,,,,,12004,001,2024_Jun_13_1348,nback,2021.2.3,59.74625765910863,
1-back,instructions\back-1.png,conditions\1back-p.xlsx,instructions\1-BACK.png,"(25, 15)",practice,1,2,stim\gray.png,stim\yellow.png,stim\gray.png,stim\gray.png,up,0,0,0,0,0,1,1,1,0,15,15,15,,,,,,,,,,,,,,,,,,,,,,,,,,,80.65255160001107,81.65508769999724,80.65255160001107,81.65508769999724,80.65255160001107,81.65508769999724,80.65255160001107,81.65508769999724,up,1,80.65255160001107,None,80.65255160001107,None,80.65255160001107,81.15345770004205,80.65255160001107,81.15345770004205,80.65255160001107,81.15345770004205,80.65255160001107,81.15345770004205,80.65255160001107,None,0.6093886999879032,,,,,,,,,,,,,,,,,,,,,,,,,,,,,,,,,,,,,,,,,,12004,001,2024_Jun_13_1348,nback,2021.2.3,59.74625765910863,
1-back,instructions\back-1.png,conditions\1back-p.xlsx,instructions\1-BACK.png,"(25, 15)",practice,1,3,stim\gray.png,stim\gray.png,stim\yellow.png,stim\gray.png,left,0,0,0,0,0,1,1,1,0,16,16,16,,,,,,,,,,,,,,,,,,,,,,,,,,,82.15502170007676,83.15692610002588,82.15502170007676,83.15692610002588,82.15502170007676,83.15692610002588,82.15502170007676,83.15692610002588,left,1,82.15502170007676,None,82.15502170007676,None,82.15502170007676,82.65653370006476,82.15502170007676,82.65653370006476,82.15502170007676,82.65653370006476,82.15502170007676,82.65653370006476,82.15502170007676,None,0.458635599934496,,,,,,,,,,,,,,,,,,,,,,,,,,,,,,,,,,,,,,,,,,12004,001,2024_Jun_13_1348,nback,2021.2.3,59.74625765910863,
1-back,instructions\back-1.png,conditions\1back-p.xlsx,instructions\1-BACK.png,"(25, 15)",practice,1,1,stim\yellow.png,stim\gray.png,stim\gray.png,stim\gray.png,right,0,0,0,0,0,1,1,1,0,17,17,17,,,,,,,,,,,,,,,,,,,,,,,,,,,83.65714430005755,84.66000340005849,83.65714430005755,84.66000340005849,83.65714430005755,84.66000340005849,83.65714430005755,84.66000340005849,right,1,83.65714430005755,None,83.65714430005755,None,83.65714430005755,84.15774669998791,83.65714430005755,84.15774669998791,83.65714430005755,84.15774669998791,83.65714430005755,84.15774669998791,83.65714430005755,None,0.46028100000694394,,,,,,,,,,,,,,,,,,,,,,,,,,,,,,,,,,,,,,,,,,12004,001,2024_Jun_13_1348,nback,2021.2.3,59.74625765910863,
1-back,instructions\back-1.png,conditions\1back-p.xlsx,instructions\1-BACK.png,"(25, 15)",practice,1,4,stim\gray.png,stim\gray.png,stim\gray.png,stim\yellow.png,up,0,0,0,0,0,1,1,1,0,18,18,18,,,,,,,,,,,,,,,,,,,,,,,,,,,85.15943340002559,86.16185160004534,85.15943340002559,86.16185160004534,85.15943340002559,86.16185160004534,85.15943340002559,86.16185160004534,up,1,85.15943340002559,None,85.15943340002559,None,85.15943340002559,85.66041090001818,85.15943340002559,85.66041090001818,85.15943340002559,85.66041090001818,85.15943340002559,85.66041090001818,85.15943340002559,None,0.2784328000852838,,,,,,,,,,,,,,,,,,,,,,,,,,,,,,,,,,,,,,,,,,12004,001,2024_Jun_13_1348,nback,2021.2.3,59.74625765910863,
1-back,instructions\back-1.png,conditions\1back-p.xlsx,instructions\1-BACK.png,"(25, 15)",practice,1,2,stim\gray.png,stim\yellow.png,stim\gray.png,stim\gray.png,down,0,0,0,0,0,1,1,1,0,19,19,19,,,,,,,,,,,,,,,,,,,,,,,,,,,86.66234979999717,87.66329689999111,86.66234979999717,87.66329689999111,86.66234979999717,87.66329689999111,86.66234979999717,87.66329689999111,down,1,86.66234979999717,None,86.66234979999717,None,86.66234979999717,87.16243680007756,86.66234979999717,87.16243680007756,86.66234979999717,87.16243680007756,86.66234979999717,87.16243680007756,86.66234979999717,None,0.3512940000509843,,,,,,,,,,,,,,,,,,,,,,,,,,,,,,,,,,,,,,,,,,12004,001,2024_Jun_13_1348,nback,2021.2.3,59.74625765910863,
1-back,instructions\back-1.png,conditions\1back-p.xlsx,instructions\1-BACK.png,"(25, 15)",,,,,,,,,0,0,0,0,0,1,1,1,,,,,,,,,,,,,,,,,,,,,,,,,,,,,,,,,,,,,,,,,,,,,,,,,,,,,,,,,,,,,,,,,,,,,,,,,,,,,,,,,,,,,,,,,,,,,,,,,12004,001,2024_Jun_13_1348,nback,2021.2.3,59.74625765910863,
2-back,instructions\back-2.png,conditions\2back-p.xlsx,instructions\2-BACK.png,"(25, 15)",practice,2,1,stim\yellow.png,stim\gray.png,stim\gray.png,stim\gray.png,None,0,0,0,0,0,2,2,2,0,0,0,0,,,,,,,,,,,,,,,,,88.31455830007326,None,space,2.395456700003706,88.31455830007326,None,90.86728000000585,95.37486710003577,95.32468780002091,None,95.75912100006826,96.76098380004987,95.75912100006826,96.76098380004987,95.75912100006826,96.76098380004987,95.75912100006826,96.76098380004987,None,1,95.75912100006826,None,95.75912100006826,None,95.75912100006826,96.25970729999244,95.75912100006826,96.25970729999244,95.75912100006826,96.25970729999244,95.75912100006826,96.25970729999244,95.75912100006826,None,,,,,,,,,,,,,,,,,,,,,,,,,,,,,,,,,,,,,,,,,,,12004,001,2024_Jun_13_1348,nback,2021.2.3,59.74625765910863,
2-back,instructions\back-2.png,conditions\2back-p.xlsx,instructions\2-BACK.png,"(25, 15)",practice,2,2,stim\gray.png,stim\yellow.png,stim\gray.png,stim\gray.png,None,0,0,0,0,0,2,2,2,0,1,1,1,,,,,,,,,,,,,,,,,,,,,,,,,,,97.2443259001011,98.24577090004459,97.2443259001011,98.24577090004459,97.2443259001011,98.24577090004459,97.2443259001011,98.24577090004459,None,1,97.2443259001011,None,97.2443259001011,None,97.2443259001011,97.74507900001481,97.2443259001011,97.74507900001481,97.2443259001011,97.74507900001481,97.2443259001011,97.74507900001481,97.2443259001011,None,,,,,,,,,,,,,,,,,,,,,,,,,,,,,,,,,,,,,,,,,,,12004,001,2024_Jun_13_1348,nback,2021.2.3,59.74625765910863,
2-back,instructions\back-2.png,conditions\2back-p.xlsx,instructions\2-BACK.png,"(25, 15)",practice,2,3,stim\gray.png,stim\gray.png,stim\yellow.png,stim\gray.png,up,0,0,0,0,0,2,2,2,0,2,2,2,,,,,,,,,,,,,,,,,,,,,,,,,,,98.74664180004038,99.74782010004856,98.74664180004038,99.74782010004856,98.74664180004038,99.74782010004856,98.74664180004038,99.74782010004856,up,1,98.74664180004038,None,98.74664180004038,None,98.74664180004038,99.24807229998987,98.74664180004038,99.24807229998987,98.74664180004038,99.24807229998987,98.74664180004038,99.24807229998987,98.74664180004038,None,0.35540390003006905,,,,,,,,,,,,,,,,,,,,,,,,,,,,,,,,,,,,,,,,,,12004,001,2024_Jun_13_1348,nback,2021.2.3,59.74625765910863,
2-back,instructions\back-2.png,conditions\2back-p.xlsx,instructions\2-BACK.png,"(25, 15)",practice,2,4,stim\gray.png,stim\gray.png,stim\gray.png,stim\yellow.png,left,0,0,0,0,0,2,2,2,0,3,3,3,,,,,,,,,,,,,,,,,,,,,,,,,,,100.2487156999996,101.25040350004565,100.2487156999996,101.25040350004565,100.2487156999996,101.25040350004565,100.2487156999996,101.25040350004565,left,1,100.2487156999996,None,100.2487156999996,None,100.2487156999996,100.74967200006358,100.2487156999996,100.74967200006358,100.2487156999996,100.74967200006358,100.2487156999996,100.74967200006358,100.2487156999996,None,0.28540729999076575,,,,,,,,,,,,,,,,,,,,,,,,,,,,,,,,,,,,,,,,,,12004,001,2024_Jun_13_1348,nback,2021.2.3,59.74625765910863,
2-back,instructions\back-2.png,conditions\2back-p.xlsx,instructions\2-BACK.png,"(25, 15)",practice,2,2,stim\gray.png,stim\yellow.png,stim\gray.png,stim\gray.png,right,0,0,0,0,0,2,2,2,0,4,4,4,,,,,,,,,,,,,,,,,,,,,,,,,,,101.7510274000233,102.75292550004087,101.7510274000233,102.75292550004087,101.7510274000233,102.75292550004087,101.7510274000233,102.75292550004087,right,1,101.7510274000233,None,101.7510274000233,None,101.7510274000233,102.25315910007339,101.7510274000233,102.25315910007339,101.7510274000233,102.25315910007339,101.7510274000233,102.25315910007339,101.7510274000233,None,0.23899940005503595,,,,,,,,,,,,,,,,,,,,,,,,,,,,,,,,,,,,,,,,,,12004,001,2024_Jun_13_1348,nback,2021.2.3,59.74625765910863,
2-back,instructions\back-2.png,conditions\2back-p.xlsx,instructions\2-BACK.png,"(25, 15)",practice,2,1,stim\yellow.png,stim\gray.png,stim\gray.png,stim\gray.png,down,0,0,0,0,0,2,2,2,0,5,5,5,,,,,,,,,,,,,,,,,,,,,,,,,,,103.2533236000454,104.2549977999879,103.2533236000454,104.2549977999879,103.2533236000454,104.2549977999879,103.2533236000454,104.2549977999879,down,1,103.2533236000454,None,103.2533236000454,None,103.2533236000454,103.75398860010318,103.2533236000454,103.75398860010318,103.2533236000454,103.75398860010318,103.2533236000454,103.75398860010318,103.2533236000454,None,0.20286930003203452,,,,,,,,,,,,,,,,,,,,,,,,,,,,,,,,,,,,,,,,,,12004,001,2024_Jun_13_1348,nback,2021.2.3,59.74625765910863,
2-back,instructions\back-2.png,conditions\2back-p.xlsx,instructions\2-BACK.png,"(25, 15)",practice,2,4,stim\gray.png,stim\gray.png,stim\gray.png,stim\yellow.png,left,0,0,0,0,0,2,2,2,0,6,6,6,,,,,,,,,,,,,,,,,,,,,,,,,,,104.75543880008627,105.75732600002084,104.75543880008627,105.75732600002084,104.75543880008627,105.75732600002084,104.75543880008627,105.75732600002084,left,1,104.75543880008627,None,104.75543880008627,None,104.75543880008627,105.25645850005094,104.75543880008627,105.25645850005094,104.75543880008627,105.25645850005094,104.75543880008627,105.25645850005094,104.75543880008627,None,0.2671473999507725,,,,,,,,,,,,,,,,,,,,,,,,,,,,,,,,,,,,,,,,,,12004,001,2024_Jun_13_1348,nback,2021.2.3,59.74625765910863,
2-back,instructions\back-2.png,conditions\2back-p.xlsx,instructions\2-BACK.png,"(25, 15)",practice,2,3,stim\gray.png,stim\gray.png,stim\yellow.png,stim\gray.png,up,0,0,0,0,0,2,2,2,0,7,7,7,,,,,,,,,,,,,,,,,,,,,,,,,,,106.24122780002654,107.24362070008647,106.24122780002654,107.24362070008647,106.24122780002654,107.24362070008647,106.24122780002654,107.24362070008647,up,1,106.24122780002654,None,106.24122780002654,None,106.24122780002654,106.7419011000311,106.24122780002654,106.7419011000311,106.24122780002654,106.7419011000311,106.24122780002654,106.7419011000311,106.24122780002654,None,0.21299799997359514,,,,,,,,,,,,,,,,,,,,,,,,,,,,,,,,,,,,,,,,,,12004,001,2024_Jun_13_1348,nback,2021.2.3,59.74625765910863,
2-back,instructions\back-2.png,conditions\2back-p.xlsx,instructions\2-BACK.png,"(25, 15)",practice,2,3,stim\gray.png,stim\gray.png,stim\yellow.png,stim\gray.png,down,0,0,0,0,0,2,2,2,0,8,8,8,,,,,,,,,,,,,,,,,,,,,,,,,,,107.74397630000021,108.74590390000958,107.74397630000021,108.74590390000958,107.74397630000021,108.74590390000958,107.74397630000021,108.74590390000958,down,1,107.74397630000021,None,107.74397630000021,None,107.74397630000021,108.24415550008416,107.74397630000021,108.24415550008416,107.74397630000021,108.24415550008416,107.74397630000021,108.24415550008416,107.74397630000021,None,0.3107000000309199,,,,,,,,,,,,,,,,,,,,,,,,,,,,,,,,,,,,,,,,,,12004,001,2024_Jun_13_1348,nback,2021.2.3,59.74625765910863,
2-back,instructions\back-2.png,conditions\2back-p.xlsx,instructions\2-BACK.png,"(25, 15)",practice,2,4,stim\gray.png,stim\gray.png,stim\gray.png,stim\yellow.png,right,0,0,0,0,0,2,2,2,0,9,9,9,,,,,,,,,,,,,,,,,,,,,,,,,,,109.24557950010058,110.24725010001566,109.24557950010058,110.24725010001566,109.24557950010058,110.24725010001566,109.24557950010058,110.24725010001566,right,1,109.24557950010058,None,109.24557950010058,None,109.24557950010058,109.74656980007421,109.24557950010058,109.74656980007421,109.24557950010058,109.74656980007421,109.24557950010058,109.74656980007421,109.24557950010058,None,0.24072589993011206,,,,,,,,,,,,,,,,,,,,,,,,,,,,,,,,,,,,,,,,,,12004,001,2024_Jun_13_1348,nback,2021.2.3,59.74625765910863,
2-back,instructions\back-2.png,conditions\2back-p.xlsx,instructions\2-BACK.png,"(25, 15)",practice,2,1,stim\yellow.png,stim\gray.png,stim\gray.png,stim\gray.png,right,0,0,0,0,0,2,2,2,0,10,10,10,,,,,,,,,,,,,,,,,,,,,,,,,,,110.74816399998963,111.7505992000224,110.74816399998963,111.7505992000224,110.74816399998963,111.7505992000224,110.74816399998963,111.7505992000224,right,1,110.74816399998963,None,110.74816399998963,None,110.74816399998963,111.25032390002161,110.74816399998963,111.25032390002161,110.74816399998963,111.25032390002161,110.74816399998963,111.25032390002161,110.74816399998963,None,0.3220767999300733,,,,,,,,,,,,,,,,,,,,,,,,,,,,,,,,,,,,,,,,,,12004,001,2024_Jun_13_1348,nback,2021.2.3,59.74625765910863,
2-back,instructions\back-2.png,conditions\2back-p.xlsx,instructions\2-BACK.png,"(25, 15)",practice,2,2,stim\gray.png,stim\yellow.png,stim\gray.png,stim\gray.png,down,0,0,0,0,0,2,2,2,0,11,11,11,,,,,,,,,,,,,,,,,,,,,,,,,,,112.25013390008826,113.25253380008508,112.25013390008826,113.25253380008508,112.25013390008826,113.25253380008508,112.25013390008826,113.25253380008508,down,1,112.25013390008826,None,112.25013390008826,None,112.25013390008826,112.75098770007025,112.25013390008826,112.75098770007025,112.25013390008826,112.75098770007025,112.25013390008826,112.75098770007025,112.25013390008826,None,0.19632760004606098,,,,,,,,,,,,,,,,,,,,,,,,,,,,,,,,,,,,,,,,,,12004,001,2024_Jun_13_1348,nback,2021.2.3,59.74625765910863,
2-back,instructions\back-2.png,conditions\2back-p.xlsx,instructions\2-BACK.png,"(25, 15)",practice,2,4,stim\gray.png,stim\gray.png,stim\gray.png,stim\yellow.png,up,0,0,0,0,0,2,2,2,0,12,12,12,,,,,,,,,,,,,,,,,,,,,,,,,,,113.75305190007202,114.75396860006731,113.75305190007202,114.75396860006731,113.75305190007202,114.75396860006731,113.75305190007202,114.75396860006731,up,1,113.75305190007202,None,113.75305190007202,None,113.75305190007202,114.25345459999517,113.75305190007202,114.25345459999517,113.75305190007202,114.25345459999517,113.75305190007202,114.25345459999517,113.75305190007202,None,0.06944869994185865,,,,,,,,,,,,,,,,,,,,,,,,,,,,,,,,,,,,,,,,,,12004,001,2024_Jun_13_1348,nback,2021.2.3,59.74625765910863,
2-back,instructions\back-2.png,conditions\2back-p.xlsx,instructions\2-BACK.png,"(25, 15)",practice,2,3,stim\gray.png,stim\gray.png,stim\yellow.png,stim\gray.png,left,0,0,0,0,0,2,2,2,0,13,13,13,,,,,,,,,,,,,,,,,,,,,,,,,,,115.25484040006995,116.25630500004627,115.25484040006995,116.25630500004627,115.25484040006995,116.25630500004627,115.25484040006995,116.25630500004627,left,1,115.25484040006995,None,115.25484040006995,None,115.25484040006995,115.75633070000913,115.25484040006995,115.75633070000913,115.25484040006995,115.75633070000913,115.25484040006995,115.75633070000913,115.25484040006995,None,0.16792030003853142,,,,,,,,,,,,,,,,,,,,,,,,,,,,,,,,,,,,,,,,,,12004,001,2024_Jun_13_1348,nback,2021.2.3,59.74625765910863,
2-back,instructions\back-2.png,conditions\2back-p.xlsx,instructions\2-BACK.png,"(25, 15)",practice,2,1,stim\yellow.png,stim\gray.png,stim\gray.png,stim\gray.png,down,0,0,0,0,0,2,2,2,0,14,14,14,,,,,,,,,,,,,,,,,,,,,,,,,,,116.74047120008618,117.74198160006199,116.74047120008618,117.74198160006199,116.74047120008618,117.74198160006199,116.74047120008618,117.74198160006199,None,0,116.74047120008618,None,116.74047120008618,None,116.74047120008618,117.24113270000089,116.74047120008618,117.24113270000089,116.74047120008618,117.24113270000089,116.74047120008618,117.24113270000089,116.74047120008618,None,,,,,,,,,,,,,,,,,,,,,,,,,,,,,,,,,,,,,,,,,,,12004,001,2024_Jun_13_1348,nback,2021.2.3,59.74625765910863,
2-back,instructions\back-2.png,conditions\2back-p.xlsx,instructions\2-BACK.png,"(25, 15)",practice,2,2,stim\gray.png,stim\yellow.png,stim\gray.png,stim\gray.png,right,0,0,0,0,0,2,2,2,0,15,15,15,,,,,,,,,,,,,,,,,,,,,,,,,,,118.24241539998911,119.24482740007807,118.24241539998911,119.24482740007807,118.24241539998911,119.24482740007807,118.24241539998911,119.24482740007807,right,1,118.24241539998911,None,118.24241539998911,None,118.24241539998911,118.74349650007207,118.24241539998911,118.74349650007207,118.24241539998911,118.74349650007207,118.24241539998911,118.74349650007207,118.24241539998911,None,0.03617530001793057,,,,,,,,,,,,,,,,,,,,,,,,,,,,,,,,,,,,,,,,,,12004,001,2024_Jun_13_1348,nback,2021.2.3,59.74625765910863,
2-back,instructions\back-2.png,conditions\2back-p.xlsx,instructions\2-BACK.png,"(25, 15)",practice,2,3,stim\gray.png,stim\gray.png,stim\yellow.png,stim\gray.png,up,0,0,0,0,0,2,2,2,0,16,16,16,,,,,,,,,,,,,,,,,,,,,,,,,,,119.74494850006886,120.74739560007583,119.74494850006886,120.74739560007583,119.74494850006886,120.74739560007583,119.74494850006886,120.74739560007583,up,1,119.74494850006886,None,119.74494850006886,None,119.74494850006886,120.24547150009312,119.74494850006886,120.24547150009312,119.74494850006886,120.24547150009312,119.74494850006886,120.24547150009312,119.74494850006886,None,0.1339905000058934,,,,,,,,,,,,,,,,,,,,,,,,,,,,,,,,,,,,,,,,,,12004,001,2024_Jun_13_1348,nback,2021.2.3,59.74625765910863,
2-back,instructions\back-2.png,conditions\2back-p.xlsx,instructions\2-BACK.png,"(25, 15)",practice,2,1,stim\yellow.png,stim\gray.png,stim\gray.png,stim\gray.png,left,0,0,0,0,0,2,2,2,0,17,17,17,,,,,,,,,,,,,,,,,,,,,,,,,,,121.24721170007251,122.24959750007838,121.24721170007251,122.24959750007838,121.24721170007251,122.24959750007838,121.24721170007251,122.24959750007838,right,0,121.24721170007251,None,121.24721170007251,None,121.24721170007251,121.74786540004425,121.24721170007251,121.74786540004425,121.24721170007251,121.74786540004425,121.24721170007251,121.74786540004425,121.24721170007251,None,1.407708700047806,,,,,,,,,,,,,,,,,,,,,,,,,,,,,,,,,,,,,,,,,,12004,001,2024_Jun_13_1348,nback,2021.2.3,59.74625765910863,
2-back,instructions\back-2.png,conditions\2back-p.xlsx,instructions\2-BACK.png,"(25, 15)",practice,2,4,stim\gray.png,stim\gray.png,stim\gray.png,stim\yellow.png,right,0,0,0,0,0,2,2,2,0,18,18,18,,,,,,,,,,,,,,,,,,,,,,,,,,,122.74953240004834,123.75171209999826,122.74953240004834,123.75171209999826,122.74953240004834,123.75171209999826,122.74953240004834,123.75171209999826,up,0,122.74953240004834,None,122.74953240004834,None,122.74953240004834,123.2516072000144,122.74953240004834,123.2516072000144,122.74953240004834,123.2516072000144,122.74953240004834,123.2516072000144,122.74953240004834,None,1.4169903000583872,,,,,,,,,,,,,,,,,,,,,,,,,,,,,,,,,,,,,,,,,,12004,001,2024_Jun_13_1348,nback,2021.2.3,59.74625765910863,
2-back,instructions\back-2.png,conditions\2back-p.xlsx,instructions\2-BACK.png,"(25, 15)",practice,2,2,stim\gray.png,stim\yellow.png,stim\gray.png,stim\gray.png,up,0,0,0,0,0,2,2,2,0,19,19,19,,,,,,,,,,,,,,,,,,,,,,,,,,,124.25168600003235,125.25307350000367,124.25168600003235,125.25307350000367,124.25168600003235,125.25307350000367,124.25168600003235,125.25307350000367,down,0,124.25168600003235,None,124.25168600003235,None,124.25168600003235,124.7523438000353,124.25168600003235,124.7523438000353,124.25168600003235,124.7523438000353,124.25168600003235,124.7523438000353,124.25168600003235,None,1.2912764999782667,,,,,,,,,,,,,,,,,,,,,,,,,,,,,,,,,,,,,,,,,,12004,001,2024_Jun_13_1348,nback,2021.2.3,59.74625765910863,
2-back,instructions\back-2.png,conditions\2back-p.xlsx,instructions\2-BACK.png,"(25, 15)",,,,,,,,,0,0,0,0,0,2,2,2,,,,,,,,,,,,,,,,,,,,,,,,,,,,,,,,,,,,,,,,,,,,,,,,,,,,,,,,,,,,,,,,,,,,,,,,,,,,,,,,,,,,,,,,,,,,,,,,,12004,001,2024_Jun_13_1348,nback,2021.2.3,59.74625765910863,
,,,,,,,,,,,,,0,0,0,0,,,,,,,,,,,,,,,,,,,,,,,,,,,,,,,,,,,,,,,,,,,,,,,,,,,,,,,,,,,,125.75455090007745,None,space,2.812189200078137,125.75455090007745,None,,,,,,,,,,,,,,,,,,,,,,,,,,,,,,,,,,,,12004,001,2024_Jun_13_1348,nback,2021.2.3,59.74625765910863,
,,,,,,,,,,,,,,,,,,,,,,,,,,,,,,,,,,,,,,,,,,,,,,,,,,,,,,,,,,,,,,,,,,,,,,,,,,,,,,,,,,128.5919017000124,None,space,9.159198299981654,128.5919017000124,None,,,,,,,,,,,,,,,,,,,,,,,,,,,,,,12004,001,2024_Jun_13_1348,nback,2021.2.3,59.74625765910863,
2-back,instructions\back-2.png,conditions\20back-e.xlsx,,,experiment,2,2,stim\gray.png,stim\yellow.png,stim\gray.png,stim\gray.png,None,,,,,,,,,,,,,0,0,0,2,0,0,0,0,,,,,,,,,,,,,,,137.88879560003988,142.39692460000515,142.36340940010268,None,,,,,,,,,,,,,,,,,,,,,,,,,,,,,,,,,,,,,,None,1,142.79638210008852,None,142.79638210008852,None,142.79638210008852,143.79902780009434,142.79638210008852,143.79902780009434,142.79638210008852,143.79902780009434,142.79638210008852,143.79902780009434,142.79638210008852,143.297631500056,142.79638210008852,143.297631500056,142.79638210008852,143.297631500056,142.79638210008852,143.297631500056,142.79638210008852,None,,,,,,12004,001,2024_Jun_13_1348,nback,2021.2.3,59.74625765910863,
2-back,instructions\back-2.png,conditions\20back-e.xlsx,,,experiment,2,1,stim\yellow.png,stim\gray.png,stim\gray.png,stim\gray.png,None,,,,,,,,,,,,,0,0,0,2,0,1,1,1,,,,,,,,,,,,,,,,,,,,,,,,,,,,,,,,,,,,,,,,,,,,,,,,,,,,,,,,None,1,144.28188290004618,None,144.28188290004618,None,144.28188290004618,145.28338730009273,144.28188290004618,145.28338730009273,144.28188290004618,145.28338730009273,144.28188290004618,145.28338730009273,144.28188290004618,144.7827276000753,144.28188290004618,144.7827276000753,144.28188290004618,144.7827276000753,144.28188290004618,144.7827276000753,144.28188290004618,None,,,,,,12004,001,2024_Jun_13_1348,nback,2021.2.3,59.74625765910863,
2-back,instructions\back-2.png,conditions\20back-e.xlsx,,,experiment,2,4,stim\gray.png,stim\gray.png,stim\gray.png,stim\yellow.png,left,,,,,,,,,,,,,0,0,0,2,0,2,2,2,,,,,,,,,,,,,,,,,,,,,,,,,,,,,,,,,,,,,,,,,,,,,,,,,,,,,,,,left,1,145.78407190006692,None,145.78407190006692,None,145.78407190006692,146.7857674000552,145.78407190006692,146.7857674000552,145.78407190006692,146.7857674000552,145.78407190006692,146.7857674000552,145.78407190006692,146.28500460006762,145.78407190006692,146.28500460006762,145.78407190006692,146.28500460006762,145.78407190006692,146.28500460006762,145.78407190006692,None,0.4870769999688491,,,,,12004,001,2024_Jun_13_1348,nback,2021.2.3,59.74625765910863,
2-back,instructions\back-2.png,conditions\20back-e.xlsx,,,experiment,2,3,stim\gray.png,stim\gray.png,stim\yellow.png,stim\gray.png,up,,,,,,,,,,,,,0,0,0,2,0,3,3,3,,,,,,,,,,,,,,,,,,,,,,,,,,,,,,,,,,,,,,,,,,,,,,,,,,,,,,,,up,1,147.28668940009084,None,147.28668940009084,None,147.28668940009084,148.28807180002332,147.28668940009084,148.28807180002332,147.28668940009084,148.28807180002332,147.28668940009084,148.28807180002332,147.28668940009084,147.78700270003174,147.28668940009084,147.78700270003174,147.28668940009084,147.78700270003174,147.28668940009084,147.78700270003174,147.28668940009084,None,0.2968167000217363,,,,,12004,001,2024_Jun_13_1348,nback,2021.2.3,59.74625765910863,
2-back,instructions\back-2.png,conditions\20back-e.xlsx,,,experiment,2,1,stim\yellow.png,stim\gray.png,stim\gray.png,stim\gray.png,down,,,,,,,,,,,,,0,0,0,2,0,4,4,4,,,,,,,,,,,,,,,,,,,,,,,,,,,,,,,,,,,,,,,,,,,,,,,,,,,,,,,,right,0,148.78883590002079,None,148.78883590002079,None,148.78883590002079,149.78995270002633,148.78883590002079,149.78995270002633,148.78883590002079,149.78995270002633,148.78883590002079,149.78995270002633,148.78883590002079,149.29038440005388,148.78883590002079,149.29038440005388,148.78883590002079,149.29038440005388,148.78883590002079,149.29038440005388,148.78883590002079,None,1.435787700000219,,,,,12004,001,2024_Jun_13_1348,nback,2021.2.3,59.74625765910863,
2-back,instructions\back-2.png,conditions\20back-e.xlsx,,,experiment,2,2,stim\gray.png,stim\yellow.png,stim\gray.png,stim\gray.png,right,,,,,,,,,,,,,0,0,0,2,0,5,5,5,,,,,,,,,,,,,,,,,,,,,,,,,,,,,,,,,,,,,,,,,,,,,,,,,,,,,,,,up,0,150.29102090001106,None,150.29102090001106,None,150.29102090001106,151.2924006000394,150.29102090001106,151.2924006000394,150.29102090001106,151.2924006000394,150.29102090001106,151.2924006000394,150.29102090001106,150.79287350003142,150.29102090001106,150.79287350003142,150.29102090001106,150.79287350003142,150.29102090001106,150.79287350003142,150.29102090001106,None,1.3484736999962479,,,,,12004,001,2024_Jun_13_1348,nback,2021.2.3,59.74625765910863,
2-back,instructions\back-2.png,conditions\20back-e.xlsx,,,experiment,2,3,stim\gray.png,stim\gray.png,stim\yellow.png,stim\gray.png,up,,,,,,,,,,,,,0,0,0,2,0,6,6,6,,,,,,,,,,,,,,,,,,,,,,,,,,,,,,,,,,,,,,,,,,,,,,,,,,,,,,,,left,0,151.77659770008177,None,151.77659770008177,None,151.77659770008177,152.77804420003667,151.77659770008177,152.77804420003667,151.77659770008177,152.77804420003667,151.77659770008177,152.77804420003667,151.77659770008177,152.27782670001034,151.77659770008177,152.27782670001034,151.77659770008177,152.27782670001034,151.77659770008177,152.27782670001034,151.77659770008177,None,1.271872799959965,,,,,12004,001,2024_Jun_13_1348,nback,2021.2.3,59.74625765910863,
2-back,instructions\back-2.png,conditions\20back-e.xlsx,,,experiment,2,4,stim\gray.png,stim\gray.png,stim\gray.png,stim\yellow.png,left,,,,,,,,,,,,,0,0,0,2,0,7,7,7,,,,,,,,,,,,,,,,,,,,,,,,,,,,,,,,,,,,,,,,,,,,,,,,,,,,,,,,right,0,153.27904749999288,None,153.27904749999288,None,153.27904749999288,154.2804912000429,153.27904749999288,154.2804912000429,153.27904749999288,154.2804912000429,153.27904749999288,154.2804912000429,153.27904749999288,153.7796353000449,153.27904749999288,153.7796353000449,153.27904749999288,153.7796353000449,153.27904749999288,153.7796353000449,153.27904749999288,None,1.3128673000028357,,,,,12004,001,2024_Jun_13_1348,nback,2021.2.3,59.74625765910863,
2-back,instructions\back-2.png,conditions\20back-e.xlsx,,,experiment,2,3,stim\gray.png,stim\gray.png,stim\yellow.png,stim\gray.png,right,,,,,,,,,,,,,0,0,0,2,0,8,8,8,,,,,,,,,,,,,,,,,,,,,,,,,,,,,,,,,,,,,,,,,,,,,,,,,,,,,,,,down,0,154.7810454000719,None,154.7810454000719,None,154.7810454000719,155.78254640009254,154.7810454000719,155.78254640009254,154.7810454000719,155.78254640009254,154.7810454000719,155.78254640009254,154.7810454000719,155.28181030007545,154.7810454000719,155.28181030007545,154.7810454000719,155.28181030007545,154.7810454000719,155.28181030007545,154.7810454000719,None,1.2822699999669567,,,,,12004,001,2024_Jun_13_1348,nback,2021.2.3,59.74625765910863,
2-back,instructions\back-2.png,conditions\20back-e.xlsx,,,experiment,2,4,stim\gray.png,stim\gray.png,stim\gray.png,stim\yellow.png,down,,,,,,,,,,,,,0,0,0,2,0,9,9,9,,,,,,,,,,,,,,,,,,,,,,,,,,,,,,,,,,,,,,,,,,,,,,,,,,,,,,,,None,0,156.28308690001722,None,156.28308690001722,None,156.28308690001722,157.28552100004163,156.28308690001722,157.28552100004163,156.28308690001722,157.28552100004163,156.28308690001722,157.28552100004163,156.28308690001722,156.7844678000547,156.28308690001722,156.7844678000547,156.28308690001722,156.7844678000547,156.28308690001722,156.7844678000547,156.28308690001722,None,,,,,,12004,001,2024_Jun_13_1348,nback,2021.2.3,59.74625765910863,
2-back,instructions\back-2.png,conditions\20back-e.xlsx,,,experiment,2,1,stim\yellow.png,stim\gray.png,stim\gray.png,stim\gray.png,right,,,,,,,,,,,,,0,0,0,2,0,10,10,10,,,,,,,,,,,,,,,,,,,,,,,,,,,,,,,,,,,,,,,,,,,,,,,,,,,,,,,,down,0,157.78562760003842,None,157.78562760003842,None,157.78562760003842,158.78803420008626,157.78562760003842,158.78803420008626,157.78562760003842,158.78803420008626,157.78562760003842,158.78803420008626,157.78562760003842,158.28760680009145,157.78562760003842,158.28760680009145,157.78562760003842,158.28760680009145,157.78562760003842,158.28760680009145,157.78562760003842,None,0.5505561000900343,,,,,12004,001,2024_Jun_13_1348,nback,2021.2.3,59.74625765910863,
2-back,instructions\back-2.png,conditions\20back-e.xlsx,,,experiment,2,2,stim\gray.png,stim\yellow.png,stim\gray.png,stim\gray.png,down,,,,,,,,,,,,,0,0,0,2,0,11,11,11,,,,,,,,,,,,,,,,,,,,,,,,,,,,,,,,,,,,,,,,,,,,,,,,,,,,,,,,up,0,159.28874510002788,None,159.28874510002788,None,159.28874510002788,160.2892982000485,159.28874510002788,160.2892982000485,159.28874510002788,160.2892982000485,159.28874510002788,160.2892982000485,159.28874510002788,159.7886892000679,159.28874510002788,159.7886892000679,159.28874510002788,159.7886892000679,159.28874510002788,159.7886892000679,159.28874510002788,None,0.4228424000320956,,,,,12004,001,2024_Jun_13_1348,nback,2021.2.3,59.74625765910863,
2-back,instructions\back-2.png,conditions\20back-e.xlsx,,,experiment,2,3,stim\gray.png,stim\gray.png,stim\yellow.png,stim\gray.png,up,,,,,,,,,,,,,0,0,0,2,0,12,12,12,,,,,,,,,,,,,,,,,,,,,,,,,,,,,,,,,,,,,,,,,,,,,,,,,,,,,,,,left,0,160.78994670009706,None,160.78994670009706,None,160.78994670009706,161.79167599999346,160.78994670009706,161.79167599999346,160.78994670009706,161.79167599999346,160.78994670009706,161.79167599999346,160.78994670009706,161.29085840005428,160.78994670009706,161.29085840005428,160.78994670009706,161.29085840005428,160.78994670009706,161.29085840005428,160.78994670009706,None,0.43448840000201017,,,,,12004,001,2024_Jun_13_1348,nback,2021.2.3,59.74625765910863,
2-back,instructions\back-2.png,conditions\20back-e.xlsx,,,experiment,2,1,stim\yellow.png,stim\gray.png,stim\gray.png,stim\gray.png,left,,,,,,,,,,,,,0,0,0,2,0,13,13,13,,,,,,,,,,,,,,,,,,,,,,,,,,,,,,,,,,,,,,,,,,,,,,,,,,,,,,,,right,0,162.2756087000016,None,162.2756087000016,None,162.2756087000016,163.277178700082,162.2756087000016,163.277178700082,162.2756087000016,163.277178700082,162.2756087000016,163.277178700082,162.2756087000016,162.77734830009285,162.2756087000016,162.77734830009285,162.2756087000016,162.77734830009285,162.2756087000016,162.77734830009285,162.2756087000016,None,0.803923700004816,,,,,12004,001,2024_Jun_13_1348,nback,2021.2.3,59.74625765910863,
2-back,instructions\back-2.png,conditions\20back-e.xlsx,,,experiment,2,4,stim\gray.png,stim\gray.png,stim\gray.png,stim\yellow.png,right,,,,,,,,,,,,,0,0,0,2,0,14,14,14,,,,,,,,,,,,,,,,,,,,,,,,,,,,,,,,,,,,,,,,,,,,,,,,,,,,,,,,up,0,163.7779057000298,None,163.7779057000298,None,163.7779057000298,164.77956920000724,163.7779057000298,164.77956920000724,163.7779057000298,164.77956920000724,163.7779057000298,164.77956920000724,163.7779057000298,164.27892539999448,163.7779057000298,164.27892539999448,163.7779057000298,164.27892539999448,163.7779057000298,164.27892539999448,163.7779057000298,None,0.5655896000098437,,,,,12004,001,2024_Jun_13_1348,nback,2021.2.3,59.74625765910863,
2-back,instructions\back-2.png,conditions\20back-e.xlsx,,,experiment,2,2,stim\gray.png,stim\yellow.png,stim\gray.png,stim\gray.png,up,,,,,,,,,,,,,0,0,0,2,0,15,15,15,,,,,,,,,,,,,,,,,,,,,,,,,,,,,,,,,,,,,,,,,,,,,,,,,,,,,,,,down,0,165.2801019999897,None,165.2801019999897,None,165.2801019999897,166.28163880005013,165.2801019999897,166.28163880005013,165.2801019999897,166.28163880005013,165.2801019999897,166.28163880005013,165.2801019999897,165.781081299996,165.2801019999897,165.781081299996,165.2801019999897,165.781081299996,165.2801019999897,165.781081299996,165.2801019999897,None,0.46375339990481734,,,,,12004,001,2024_Jun_13_1348,nback,2021.2.3,59.74625765910863,
2-back,instructions\back-2.png,conditions\20back-e.xlsx,,,experiment,2,4,stim\gray.png,stim\gray.png,stim\gray.png,stim\yellow.png,down,,,,,,,,,,,,,0,0,0,2,0,16,16,16,,,,,,,,,,,,,,,,,,,,,,,,,,,,,,,,,,,,,,,,,,,,,,,,,,,,,,,,left,0,166.78252180002164,None,166.78252180002164,None,166.78252180002164,167.7866861000657,166.78252180002164,167.7866861000657,166.78252180002164,167.7866861000657,166.78252180002164,167.7866861000657,166.78252180002164,167.28332950000186,166.78252180002164,167.28332950000186,166.78252180002164,167.28332950000186,166.78252180002164,167.28332950000186,166.78252180002164,None,0.42535559996031225,,,,,12004,001,2024_Jun_13_1348,nback,2021.2.3,59.74625765910863,
2-back,instructions\back-2.png,conditions\20back-e.xlsx,,,experiment,2,3,stim\gray.png,stim\gray.png,stim\yellow.png,stim\gray.png,left,,,,,,,,,,,,,0,0,0,2,0,17,17,17,,,,,,,,,,,,,,,,,,,,,,,,,,,,,,,,,,,,,,,,,,,,,,,,,,,,,,,,down,0,168.28566270007286,None,168.28566270007286,None,168.28566270007286,169.28628550004214,168.28566270007286,169.28628550004214,168.28566270007286,169.28628550004214,168.28566270007286,169.28628550004214,168.28566270007286,168.78626610001083,168.28566270007286,168.78626610001083,168.28566270007286,168.78626610001083,168.28566270007286,168.78626610001083,168.28566270007286,None,0.5385920000262558,,,,,12004,001,2024_Jun_13_1348,nback,2021.2.3,59.74625765910863,
2-back,instructions\back-2.png,conditions\20back-e.xlsx,,,experiment,2,1,stim\yellow.png,stim\gray.png,stim\gray.png,stim\gray.png,down,,,,,,,,,,,,,0,0,0,2,0,18,18,18,,,,,,,,,,,,,,,,,,,,,,,,,,,,,,,,,,,,,,,,,,,,,,,,,,,,,,,,right,0,169.7869283000473,None,169.7869283000473,None,169.7869283000473,170.78907480009366,169.7869283000473,170.78907480009366,169.7869283000473,170.78907480009366,169.7869283000473,170.78907480009366,169.7869283000473,170.28889110009186,169.7869283000473,170.28889110009186,169.7869283000473,170.28889110009186,169.7869283000473,170.28889110009186,169.7869283000473,None,0.3577183000743389,,,,,12004,001,2024_Jun_13_1348,nback,2021.2.3,59.74625765910863,
2-back,instructions\back-2.png,conditions\20back-e.xlsx,,,experiment,2,2,stim\gray.png,stim\yellow.png,stim\gray.png,stim\gray.png,right,,,,,,,,,,,,,0,0,0,2,0,19,19,19,,,,,,,,,,,,,,,,,,,,,,,,,,,,,,,,,,,,,,,,,,,,,,,,,,,,,,,,up,0,171.28924650000408,None,171.28924650000408,None,171.28924650000408,172.29092800000217,171.28924650000408,172.29092800000217,171.28924650000408,172.29092800000217,171.28924650000408,172.29092800000217,171.28924650000408,171.79003570007626,171.28924650000408,171.79003570007626,171.28924650000408,171.79003570007626,171.28924650000408,171.79003570007626,171.28924650000408,None,0.7109431000426412,,,,,12004,001,2024_Jun_13_1348,nback,2021.2.3,59.74625765910863,
2-back,instructions\back-2.png,conditions\20back-e.xlsx,,,,,,,,,,,,,,,,,,,,,,,0,0,0,2,,,,,,,,,,,,,,,,,,,,,,,,,,,,,,,,,,,,,,,,,,,,,,,,,,,,,,,,,,,,,,,,,,,,,,,,,,,,,,,,,,,,,172.77506320003886,None,,,12004,001,2024_Jun_13_1348,nback,2021.2.3,59.74625765910863,
1-back,instructions\back-1.png,conditions\11back-e.xlsx,,,experiment,1,3,stim\gray.png,stim\gray.png,stim\yellow.png,stim\gray.png,None,,,,,,,,,,,,,0,1,1,5,0,0,0,0,,,,,,,,,,,,,,,173.89345430000685,178.40167769999243,178.36736180004664,None,,,,,,,,,,,,,,,,,,,,,,,,,,,,,,,,,,,,,,None,1,178.80181080009788,None,178.80181080009788,None,178.80181080009788,179.80299350002315,178.80181080009788,179.80299350002315,178.80181080009788,179.80299350002315,178.80181080009788,179.80299350002315,178.80181080009788,179.30244030000176,178.80181080009788,179.30244030000176,178.80181080009788,179.30244030000176,178.80181080009788,179.30244030000176,178.80181080009788,None,,,,,,12004,001,2024_Jun_13_1348,nback,2021.2.3,59.74625765910863,
1-back,instructions\back-1.png,conditions\11back-e.xlsx,,,experiment,1,1,stim\yellow.png,stim\gray.png,stim\gray.png,stim\gray.png,right,,,,,,,,,,,,,0,1,1,5,0,1,1,1,,,,,,,,,,,,,,,,,,,,,,,,,,,,,,,,,,,,,,,,,,,,,,,,,,,,,,,,right,1,180.28563420008868,None,180.28563420008868,None,180.28563420008868,181.28864630009048,180.28563420008868,181.28864630009048,180.28563420008868,181.28864630009048,180.28563420008868,181.28864630009048,180.28563420008868,180.78699160006363,180.28563420008868,180.78699160006363,180.28563420008868,180.78699160006363,180.28563420008868,180.78699160006363,180.28563420008868,None,0.5467414000304416,,,,,12004,001,2024_Jun_13_1348,nback,2021.2.3,59.74625765910863,
1-back,instructions\back-1.png,conditions\11back-e.xlsx,,,experiment,1,4,stim\gray.png,stim\gray.png,stim\gray.png,stim\yellow.png,up,,,,,,,,,,,,,0,1,1,5,0,2,2,2,,,,,,,,,,,,,,,,,,,,,,,,,,,,,,,,,,,,,,,,,,,,,,,,,,,,,,,,up,1,181.7882602000609,None,181.7882602000609,None,181.7882602000609,182.79030710004736,181.7882602000609,182.79030710004736,181.7882602000609,182.79030710004736,181.7882602000609,182.79030710004736,181.7882602000609,182.29045490000863,181.7882602000609,182.29045490000863,181.7882602000609,182.29045490000863,181.7882602000609,182.29045490000863,181.7882602000609,None,0.35680119995959103,,,,,12004,001,2024_Jun_13_1348,nback,2021.2.3,59.74625765910863,
1-back,instructions\back-1.png,conditions\11back-e.xlsx,,,experiment,1,2,stim\gray.png,stim\yellow.png,stim\gray.png,stim\gray.png,down,,,,,,,,,,,,,0,1,1,5,0,3,3,3,,,,,,,,,,,,,,,,,,,,,,,,,,,,,,,,,,,,,,,,,,,,,,,,,,,,,,,,down,1,183.29068560001906,None,183.29068560001906,None,183.29068560001906,184.29212200001348,183.29068560001906,184.29212200001348,183.29068560001906,184.29212200001348,183.29068560001906,184.29212200001348,183.29068560001906,183.79172590002418,183.29068560001906,183.79172590002418,183.29068560001906,183.79172590002418,183.29068560001906,183.79172590002418,183.29068560001906,None,0.6456550000002608,,,,,12004,001,2024_Jun_13_1348,nback,2021.2.3,59.74625765910863,
1-back,instructions\back-1.png,conditions\11back-e.xlsx,,,experiment,1,1,stim\yellow.png,stim\gray.png,stim\gray.png,stim\gray.png,left,,,,,,,,,,,,,0,1,1,5,0,4,4,4,,,,,,,,,,,,,,,,,,,,,,,,,,,,,,,,,,,,,,,,,,,,,,,,,,,,,,,,left,1,184.77635840000585,None,184.77635840000585,None,184.77635840000585,185.77986750006676,184.77635840000585,185.77986750006676,184.77635840000585,185.77986750006676,184.77635840000585,185.77986750006676,184.77635840000585,185.27705600007903,184.77635840000585,185.27705600007903,184.77635840000585,185.27705600007903,184.77635840000585,185.27705600007903,184.77635840000585,None,0.3523827000753954,,,,,12004,001,2024_Jun_13_1348,nback,2021.2.3,59.74625765910863,
1-back,instructions\back-1.png,conditions\11back-e.xlsx,,,experiment,1,2,stim\gray.png,stim\yellow.png,stim\gray.png,stim\gray.png,up,,,,,,,,,,,,,0,1,1,5,0,5,5,5,,,,,,,,,,,,,,,,,,,,,,,,,,,,,,,,,,,,,,,,,,,,,,,,,,,,,,,,up,1,186.27845710003749,None,186.27845710003749,None,186.27845710003749,187.2800516000716,186.27845710003749,187.2800516000716,186.27845710003749,187.2800516000716,186.27845710003749,187.2800516000716,186.27845710003749,186.7797318000812,186.27845710003749,186.7797318000812,186.27845710003749,186.7797318000812,186.27845710003749,186.7797318000812,186.27845710003749,None,0.09828519995789975,,,,,12004,001,2024_Jun_13_1348,nback,2021.2.3,59.74625765910863,
1-back,instructions\back-1.png,conditions\11back-e.xlsx,,,experiment,1,3,stim\gray.png,stim\gray.png,stim\yellow.png,stim\gray.png,left,,,,,,,,,,,,,0,1,1,5,0,6,6,6,,,,,,,,,,,,,,,,,,,,,,,,,,,,,,,,,,,,,,,,,,,,,,,,,,,,,,,,left,1,187.78076290001627,None,187.78076290001627,None,187.78076290001627,188.78323570010252,187.78076290001627,188.78323570010252,187.78076290001627,188.78323570010252,187.78076290001627,188.78323570010252,187.78076290001627,188.2817499000812,187.78076290001627,188.2817499000812,187.78076290001627,188.2817499000812,187.78076290001627,188.2817499000812,187.78076290001627,None,0.40360219997819513,,,,,12004,001,2024_Jun_13_1348,nback,2021.2.3,59.74625765910863,
1-back,instructions\back-1.png,conditions\11back-e.xlsx,,,experiment,1,4,stim\gray.png,stim\gray.png,stim\gray.png,stim\yellow.png,right,,,,,,,,,,,,,0,1,1,5,0,7,7,7,,,,,,,,,,,,,,,,,,,,,,,,,,,,,,,,,,,,,,,,,,,,,,,,,,,,,,,,right,1,189.28303510008845,None,189.28303510008845,None,189.28303510008845,190.28459699999075,189.28303510008845,190.28459699999075,189.28303510008845,190.28459699999075,189.28303510008845,190.28459699999075,189.28303510008845,189.78401689999737,189.28303510008845,189.78401689999737,189.28303510008845,189.78401689999737,189.28303510008845,189.78401689999737,189.28303510008845,None,0.41345769993495196,,,,,12004,001,2024_Jun_13_1348,nback,2021.2.3,59.74625765910863,
1-back,instructions\back-1.png,conditions\11back-e.xlsx,,,experiment,1,4,stim\gray.png,stim\gray.png,stim\gray.png,stim\yellow.png,down,,,,,,,,,,,,,0,1,1,5,0,8,8,8,,,,,,,,,,,,,,,,,,,,,,,,,,,,,,,,,,,,,,,,,,,,,,,,,,,,,,,,down,1,190.78530780004803,None,190.78530780004803,None,190.78530780004803,191.78666810004506,190.78530780004803,191.78666810004506,190.78530780004803,191.78666810004506,190.78530780004803,191.78666810004506,190.78530780004803,191.28606020007282,190.78530780004803,191.28606020007282,190.78530780004803,191.28606020007282,190.78530780004803,191.28606020007282,190.78530780004803,None,0.4151932999957353,,,,,12004,001,2024_Jun_13_1348,nback,2021.2.3,59.74625765910863,
1-back,instructions\back-1.png,conditions\11back-e.xlsx,,,experiment,1,3,stim\gray.png,stim\gray.png,stim\yellow.png,stim\gray.png,down,,,,,,,,,,,,,0,1,1,5,0,9,9,9,,,,,,,,,,,,,,,,,,,,,,,,,,,,,,,,,,,,,,,,,,,,,,,,,,,,,,,,down,1,192.28759250009898,None,192.28759250009898,None,192.28759250009898,193.28979210008401,192.28759250009898,193.28979210008401,192.28759250009898,193.28979210008401,192.28759250009898,193.28979210008401,192.28759250009898,192.78853300004266,192.28759250009898,192.78853300004266,192.28759250009898,192.78853300004266,192.28759250009898,192.78853300004266,192.28759250009898,None,0.3779787999810651,,,,,12004,001,2024_Jun_13_1348,nback,2021.2.3,59.74625765910863,
1-back,instructions\back-1.png,conditions\11back-e.xlsx,,,experiment,1,1,stim\yellow.png,stim\gray.png,stim\gray.png,stim\gray.png,right,,,,,,,,,,,,,0,1,1,5,0,10,10,10,,,,,,,,,,,,,,,,,,,,,,,,,,,,,,,,,,,,,,,,,,,,,,,,,,,,,,,,right,1,193.78990950004663,None,193.78990950004663,None,193.78990950004663,194.79201239999384,193.78990950004663,194.79201239999384,193.78990950004663,194.79201239999384,193.78990950004663,194.79201239999384,193.78990950004663,194.29060460010078,193.78990950004663,194.29060460010078,193.78990950004663,194.29060460010078,193.78990950004663,194.29060460010078,193.78990950004663,None,0.4268071000697091,,,,,12004,001,2024_Jun_13_1348,nback,2021.2.3,59.74625765910863,
1-back,instructions\back-1.png,conditions\11back-e.xlsx,,,experiment,1,2,stim\gray.png,stim\yellow.png,stim\gray.png,stim\gray.png,up,,,,,,,,,,,,,0,1,1,5,0,11,11,11,,,,,,,,,,,,,,,,,,,,,,,,,,,,,,,,,,,,,,,,,,,,,,,,,,,,,,,,up,1,195.27540939999744,None,195.27540939999744,None,195.27540939999744,196.27795400004834,195.27540939999744,196.27795400004834,195.27540939999744,196.27795400004834,195.27540939999744,196.27795400004834,195.27540939999744,195.77637650002725,195.27540939999744,195.77637650002725,195.27540939999744,195.77637650002725,195.27540939999744,195.77637650002725,195.27540939999744,None,0.518004999961704,,,,,12004,001,2024_Jun_13_1348,nback,2021.2.3,59.74625765910863,
1-back,instructions\back-1.png,conditions\11back-e.xlsx,,,experiment,1,3,stim\gray.png,stim\gray.png,stim\yellow.png,stim\gray.png,left,,,,,,,,,,,,,0,1,1,5,0,12,12,12,,,,,,,,,,,,,,,,,,,,,,,,,,,,,,,,,,,,,,,,,,,,,,,,,,,,,,,,left,1,196.77775710006244,None,196.77775710006244,None,196.77775710006244,197.77988670009654,196.77775710006244,197.77988670009654,196.77775710006244,197.77988670009654,196.77775710006244,197.77988670009654,196.77775710006244,197.27947480010334,196.77775710006244,197.27947480010334,196.77775710006244,197.27947480010334,196.77775710006244,197.27947480010334,196.77775710006244,None,0.46311529993545264,,,,,12004,001,2024_Jun_13_1348,nback,2021.2.3,59.74625765910863,
1-back,instructions\back-1.png,conditions\11back-e.xlsx,,,experiment,1,4,stim\gray.png,stim\gray.png,stim\gray.png,stim\yellow.png,right,,,,,,,,,,,,,0,1,1,5,0,13,13,13,,,,,,,,,,,,,,,,,,,,,,,,,,,,,,,,,,,,,,,,,,,,,,,,,,,,,,,,right,1,198.27994670008775,None,198.27994670008775,None,198.27994670008775,199.28223540005274,198.27994670008775,199.28223540005274,198.27994670008775,199.28223540005274,198.27994670008775,199.28223540005274,198.27994670008775,198.78170630009845,198.27994670008775,198.78170630009845,198.27994670008775,198.78170630009845,198.27994670008775,198.78170630009845,198.27994670008775,None,0.45713779993820935,,,,,12004,001,2024_Jun_13_1348,nback,2021.2.3,59.74625765910863,
1-back,instructions\back-1.png,conditions\11back-e.xlsx,,,experiment,1,1,stim\yellow.png,stim\gray.png,stim\gray.png,stim\gray.png,down,,,,,,,,,,,,,0,1,1,5,0,14,14,14,,,,,,,,,,,,,,,,,,,,,,,,,,,,,,,,,,,,,,,,,,,,,,,,,,,,,,,,down,1,199.7823232000228,None,199.7823232000228,None,199.7823232000228,200.7845692000119,199.7823232000228,200.7845692000119,199.7823232000228,200.7845692000119,199.7823232000228,200.7845692000119,199.7823232000228,200.28316890005954,199.7823232000228,200.28316890005954,199.7823232000228,200.28316890005954,199.7823232000228,200.28316890005954,199.7823232000228,None,0.48239319992717355,,,,,12004,001,2024_Jun_13_1348,nback,2021.2.3,59.74625765910863,
1-back,instructions\back-1.png,conditions\11back-e.xlsx,,,experiment,1,2,stim\gray.png,stim\yellow.png,stim\gray.png,stim\gray.png,up,,,,,,,,,,,,,0,1,1,5,0,15,15,15,,,,,,,,,,,,,,,,,,,,,,,,,,,,,,,,,,,,,,,,,,,,,,,,,,,,,,,,up,1,201.2854173000669,None,201.2854173000669,None,201.2854173000669,202.28751150006428,201.2854173000669,202.28751150006428,201.2854173000669,202.28751150006428,201.2854173000669,202.28751150006428,201.2854173000669,201.78524310002103,201.2854173000669,201.78524310002103,201.2854173000669,201.78524310002103,201.2854173000669,201.78524310002103,201.2854173000669,None,0.3872037000255659,,,,,12004,001,2024_Jun_13_1348,nback,2021.2.3,59.74625765910863,
1-back,instructions\back-1.png,conditions\11back-e.xlsx,,,experiment,1,2,stim\gray.png,stim\yellow.png,stim\gray.png,stim\gray.png,left,,,,,,,,,,,,,0,1,1,5,0,16,16,16,,,,,,,,,,,,,,,,,,,,,,,,,,,,,,,,,,,,,,,,,,,,,,,,,,,,,,,,left,1,202.7867606000509,None,202.7867606000509,None,202.7867606000509,203.78919849998783,202.7867606000509,203.78919849998783,202.7867606000509,203.78919849998783,202.7867606000509,203.78919849998783,202.7867606000509,203.2881223000586,202.7867606000509,203.2881223000586,202.7867606000509,203.2881223000586,202.7867606000509,203.2881223000586,202.7867606000509,None,0.3902532000793144,,,,,12004,001,2024_Jun_13_1348,nback,2021.2.3,59.74625765910863,
1-back,instructions\back-1.png,conditions\11back-e.xlsx,,,experiment,1,1,stim\yellow.png,stim\gray.png,stim\gray.png,stim\gray.png,left,,,,,,,,,,,,,0,1,1,5,0,17,17,17,,,,,,,,,,,,,,,,,,,,,,,,,,,,,,,,,,,,,,,,,,,,,,,,,,,,,,,,left,1,204.2888915000949,None,204.2888915000949,None,204.2888915000949,205.29095370008145,204.2888915000949,205.29095370008145,204.2888915000949,205.29095370008145,204.2888915000949,205.29095370008145,204.2888915000949,204.79073710006196,204.2888915000949,204.79073710006196,204.2888915000949,204.79073710006196,204.2888915000949,204.79073710006196,204.2888915000949,None,0.3600848999340087,,,,,12004,001,2024_Jun_13_1348,nback,2021.2.3,59.74625765910863,
1-back,instructions\back-1.png,conditions\11back-e.xlsx,,,experiment,1,4,stim\gray.png,stim\gray.png,stim\gray.png,stim\yellow.png,up,,,,,,,,,,,,,0,1,1,5,0,18,18,18,,,,,,,,,,,,,,,,,,,,,,,,,,,,,,,,,,,,,,,,,,,,,,,,,,,,,,,,up,1,205.7919647000963,None,205.7919647000963,None,205.7919647000963,206.79293190001044,205.7919647000963,206.79293190001044,205.7919647000963,206.79293190001044,205.7919647000963,206.79293190001044,205.7919647000963,206.29204530001152,205.7919647000963,206.29204530001152,205.7919647000963,206.29204530001152,205.7919647000963,206.29204530001152,205.7919647000963,None,0.3610065000830218,,,,,12004,001,2024_Jun_13_1348,nback,2021.2.3,59.74625765910863,
1-back,instructions\back-1.png,conditions\11back-e.xlsx,,,experiment,1,3,stim\gray.png,stim\gray.png,stim\yellow.png,stim\gray.png,down,,,,,,,,,,,,,0,1,1,5,0,19,19,19,,,,,,,,,,,,,,,,,,,,,,,,,,,,,,,,,,,,,,,,,,,,,,,,,,,,,,,,down,1,207.27823749999516,None,207.27823749999516,None,207.27823749999516,208.27911200001836,207.27823749999516,208.27911200001836,207.27823749999516,208.27911200001836,207.27823749999516,208.27911200001836,207.27823749999516,207.77768230007496,207.27823749999516,207.77768230007496,207.27823749999516,207.77768230007496,207.27823749999516,207.77768230007496,207.27823749999516,None,0.43540169997140765,,,,,12004,001,2024_Jun_13_1348,nback,2021.2.3,59.74625765910863,
1-back,instructions\back-1.png,conditions\11back-e.xlsx,,,,,,,,,,,,,,,,,,,,,,,0,1,1,5,,,,,,,,,,,,,,,,,,,,,,,,,,,,,,,,,,,,,,,,,,,,,,,,,,,,,,,,,,,,,,,,,,,,,,,,,,,,,,,,,,,,,208.78005540010054,None,,,12004,001,2024_Jun_13_1348,nback,2021.2.3,59.74625765910863,
1-back,instructions\back-1.png,conditions\10back-e.xlsx,,,experiment,1,3,stim\gray.png,stim\gray.png,stim\yellow.png,stim\gray.png,None,,,,,,,,,,,,,0,2,2,1,0,0,0,0,,,,,,,,,,,,,,,209.8974686000729,214.4048506000545,214.37223570002243,None,,,,,,,,,,,,,,,,,,,,,,,,,,,,,,,,,,,,,,None,1,214.8052748000482,None,214.8052748000482,None,214.8052748000482,215.80663010000717,214.8052748000482,215.80663010000717,214.8052748000482,215.80663010000717,214.8052748000482,215.80663010000717,214.8052748000482,215.3057307000272,214.8052748000482,215.3057307000272,214.8052748000482,215.3057307000272,214.8052748000482,215.3057307000272,214.8052748000482,None,,,,,,12004,001,2024_Jun_13_1348,nback,2021.2.3,59.74625765910863,
1-back,instructions\back-1.png,conditions\10back-e.xlsx,,,experiment,1,4,stim\gray.png,stim\gray.png,stim\gray.png,stim\yellow.png,right,,,,,,,,,,,,,0,2,2,1,0,1,1,1,,,,,,,,,,,,,,,,,,,,,,,,,,,,,,,,,,,,,,,,,,,,,,,,,,,,,,,,right,1,216.2905481000198,None,216.2905481000198,None,216.2905481000198,217.29176400008146,216.2905481000198,217.29176400008146,216.2905481000198,217.29176400008146,216.2905481000198,217.29176400008146,216.2905481000198,216.79143330000807,216.2905481000198,216.79143330000807,216.2905481000198,216.79143330000807,216.2905481000198,216.79143330000807,216.2905481000198,None,0.8234826999250799,,,,,12004,001,2024_Jun_13_1348,nback,2021.2.3,59.74625765910863,
1-back,instructions\back-1.png,conditions\10back-e.xlsx,,,experiment,1,4,stim\gray.png,stim\gray.png,stim\gray.png,stim\yellow.png,down,,,,,,,,,,,,,0,2,2,1,0,2,2,2,,,,,,,,,,,,,,,,,,,,,,,,,,,,,,,,,,,,,,,,,,,,,,,,,,,,,,,,down,1,217.7761135000037,None,217.7761135000037,None,217.7761135000037,218.77853480004705,217.7761135000037,218.77853480004705,217.7761135000037,218.77853480004705,217.7761135000037,218.77853480004705,217.7761135000037,218.27759160008281,217.7761135000037,218.27759160008281,217.7761135000037,218.27759160008281,217.7761135000037,218.27759160008281,217.7761135000037,None,0.545238499995321,,,,,12004,001,2024_Jun_13_1348,nback,2021.2.3,59.74625765910863,
1-back,instructions\back-1.png,conditions\10back-e.xlsx,,,experiment,1,2,stim\gray.png,stim\yellow.png,stim\gray.png,stim\gray.png,down,,,,,,,,,,,,,0,2,2,1,0,3,3,3,,,,,,,,,,,,,,,,,,,,,,,,,,,,,,,,,,,,,,,,,,,,,,,,,,,,,,,,down,1,219.2784351001028,None,219.2784351001028,None,219.2784351001028,220.28102710004896,219.2784351001028,220.28102710004896,219.2784351001028,220.28102710004896,219.2784351001028,220.28102710004896,219.2784351001028,219.77978940005414,219.2784351001028,219.77978940005414,219.2784351001028,219.77978940005414,219.2784351001028,219.77978940005414,219.2784351001028,None,0.3789934000233188,,,,,12004,001,2024_Jun_13_1348,nback,2021.2.3,59.74625765910863,
1-back,instructions\back-1.png,conditions\10back-e.xlsx,,,experiment,1,1,stim\yellow.png,stim\gray.png,stim\gray.png,stim\gray.png,left,,,,,,,,,,,,,0,2,2,1,0,4,4,4,,,,,,,,,,,,,,,,,,,,,,,,,,,,,,,,,,,,,,,,,,,,,,,,,,,,,,,,left,1,220.7813276000088,None,220.7813276000088,None,220.7813276000088,221.7825792999938,220.7813276000088,221.7825792999938,220.7813276000088,221.7825792999938,220.7813276000088,221.7825792999938,220.7813276000088,221.28254070004914,220.7813276000088,221.28254070004914,220.7813276000088,221.28254070004914,220.7813276000088,221.28254070004914,220.7813276000088,None,0.46004829998128116,,,,,12004,001,2024_Jun_13_1348,nback,2021.2.3,59.74625765910863,
1-back,instructions\back-1.png,conditions\10back-e.xlsx,,,experiment,1,2,stim\gray.png,stim\yellow.png,stim\gray.png,stim\gray.png,up,,,,,,,,,,,,,0,2,2,1,0,5,5,5,,,,,,,,,,,,,,,,,,,,,,,,,,,,,,,,,,,,,,,,,,,,,,,,,,,,,,,,up,1,222.28278680006042,None,222.28278680006042,None,222.28278680006042,223.28530900005717,222.28278680006042,223.28530900005717,222.28278680006042,223.28530900005717,222.28278680006042,223.28530900005717,222.28278680006042,222.78462600009516,222.28278680006042,222.78462600009516,222.28278680006042,222.78462600009516,222.28278680006042,222.78462600009516,222.28278680006042,None,0.4948496000142768,,,,,12004,001,2024_Jun_13_1348,nback,2021.2.3,59.74625765910863,
1-back,instructions\back-1.png,conditions\10back-e.xlsx,,,experiment,1,3,stim\gray.png,stim\gray.png,stim\yellow.png,stim\gray.png,left,,,,,,,,,,,,,0,2,2,1,0,6,6,6,,,,,,,,,,,,,,,,,,,,,,,,,,,,,,,,,,,,,,,,,,,,,,,,,,,,,,,,left,1,223.78565750003327,None,223.78565750003327,None,223.78565750003327,224.78746790008154,223.78565750003327,224.78746790008154,223.78565750003327,224.78746790008154,223.78565750003327,224.78746790008154,223.78565750003327,224.28563840000425,223.78565750003327,224.28563840000425,223.78565750003327,224.28563840000425,223.78565750003327,224.28563840000425,223.78565750003327,None,0.3037866000086069,,,,,12004,001,2024_Jun_13_1348,nback,2021.2.3,59.74625765910863,
1-back,instructions\back-1.png,conditions\10back-e.xlsx,,,experiment,1,4,stim\gray.png,stim\gray.png,stim\gray.png,stim\yellow.png,right,,,,,,,,,,,,,0,2,2,1,0,7,7,7,,,,,,,,,,,,,,,,,,,,,,,,,,,,,,,,,,,,,,,,,,,,,,,,,,,,,,,,right,1,225.28927090007346,None,225.28927090007346,None,225.28927090007346,226.2888160001021,225.28927090007346,226.2888160001021,225.28927090007346,226.2888160001021,225.28927090007346,226.2888160001021,225.28927090007346,225.80480869999155,225.28927090007346,225.80480869999155,225.28927090007346,225.80480869999155,225.28927090007346,225.80480869999155,225.28927090007346,None,0.24821310001425445,,,,,12004,001,2024_Jun_13_1348,nback,2021.2.3,59.74625765910863,
1-back,instructions\back-1.png,conditions\10back-e.xlsx,,,experiment,1,1,stim\yellow.png,stim\gray.png,stim\gray.png,stim\gray.png,down,,,,,,,,,,,,,0,2,2,1,0,8,8,8,,,,,,,,,,,,,,,,,,,,,,,,,,,,,,,,,,,,,,,,,,,,,,,,,,,,,,,,down,1,226.7895669999998,None,226.7895669999998,None,226.7895669999998,227.79161250009201,226.7895669999998,227.79161250009201,226.7895669999998,227.79161250009201,226.7895669999998,227.79161250009201,226.7895669999998,227.2907528000651,226.7895669999998,227.2907528000651,226.7895669999998,227.2907528000651,226.7895669999998,227.2907528000651,226.7895669999998,None,0.18026309995912015,,,,,12004,001,2024_Jun_13_1348,nback,2021.2.3,59.74625765910863,
1-back,instructions\back-1.png,conditions\10back-e.xlsx,,,experiment,1,3,stim\gray.png,stim\gray.png,stim\yellow.png,stim\gray.png,up,,,,,,,,,,,,,0,2,2,1,0,9,9,9,,,,,,,,,,,,,,,,,,,,,,,,,,,,,,,,,,,,,,,,,,,,,,,,,,,,,,,,up,1,228.29172670003027,None,228.29172670003027,None,228.29172670003027,229.293447400094,228.29172670003027,229.293447400094,228.29172670003027,229.293447400094,228.29172670003027,229.293447400094,228.29172670003027,228.7936562000541,228.29172670003027,228.7936562000541,228.29172670003027,228.7936562000541,228.29172670003027,228.7936562000541,228.29172670003027,None,0.2697162999538705,,,,,12004,001,2024_Jun_13_1348,nback,2021.2.3,59.74625765910863,
1-back,instructions\back-1.png,conditions\10back-e.xlsx,,,experiment,1,1,stim\yellow.png,stim\gray.png,stim\gray.png,stim\gray.png,right,,,,,,,,,,,,,0,2,2,1,0,10,10,10,,,,,,,,,,,,,,,,,,,,,,,,,,,,,,,,,,,,,,,,,,,,,,,,,,,,,,,,right,1,229.77738370001316,None,229.77738370001316,None,229.77738370001316,230.77954260003753,229.77738370001316,230.77954260003753,229.77738370001316,230.77954260003753,229.77738370001316,230.77954260003753,229.77738370001316,230.27840730000753,229.77738370001316,230.27840730000753,229.77738370001316,230.27840730000753,229.77738370001316,230.27840730000753,229.77738370001316,None,0.32837249990552664,,,,,12004,001,2024_Jun_13_1348,nback,2021.2.3,59.74625765910863,
1-back,instructions\back-1.png,conditions\10back-e.xlsx,,,experiment,1,2,stim\gray.png,stim\yellow.png,stim\gray.png,stim\gray.png,up,,,,,,,,,,,,,0,2,2,1,0,11,11,11,,,,,,,,,,,,,,,,,,,,,,,,,,,,,,,,,,,,,,,,,,,,,,,,,,,,,,,,up,1,231.2797961999895,None,231.2797961999895,None,231.2797961999895,232.28187500010245,231.2797961999895,232.28187500010245,231.2797961999895,232.28187500010245,231.2797961999895,232.28187500010245,231.2797961999895,231.78082270000596,231.2797961999895,231.78082270000596,231.2797961999895,231.78082270000596,231.2797961999895,231.78082270000596,231.2797961999895,None,0.45796120003797114,,,,,12004,001,2024_Jun_13_1348,nback,2021.2.3,59.74625765910863,
1-back,instructions\back-1.png,conditions\10back-e.xlsx,,,experiment,1,4,stim\gray.png,stim\gray.png,stim\gray.png,stim\yellow.png,left,,,,,,,,,,,,,0,2,2,1,0,12,12,12,,,,,,,,,,,,,,,,,,,,,,,,,,,,,,,,,,,,,,,,,,,,,,,,,,,,,,,,left,1,232.78207750001457,None,232.78207750001457,None,232.78207750001457,233.78395519999322,232.78207750001457,233.78395519999322,232.78207750001457,233.78395519999322,232.78207750001457,233.78395519999322,232.78207750001457,233.28383800003212,232.78207750001457,233.28383800003212,232.78207750001457,233.28383800003212,232.78207750001457,233.28383800003212,232.78207750001457,None,0.3238629000261426,,,,,12004,001,2024_Jun_13_1348,nback,2021.2.3,59.74625765910863,
1-back,instructions\back-1.png,conditions\10back-e.xlsx,,,experiment,1,3,stim\gray.png,stim\gray.png,stim\yellow.png,stim\gray.png,down,,,,,,,,,,,,,0,2,2,1,0,13,13,13,,,,,,,,,,,,,,,,,,,,,,,,,,,,,,,,,,,,,,,,,,,,,,,,,,,,,,,,down,1,234.28429040010087,None,234.28429040010087,None,234.28429040010087,235.28576210001484,234.28429040010087,235.28576210001484,234.28429040010087,235.28576210001484,234.28429040010087,235.28576210001484,234.28429040010087,234.78494969999883,234.28429040010087,234.78494969999883,234.28429040010087,234.78494969999883,234.28429040010087,234.78494969999883,234.28429040010087,None,0.4217713000252843,,,,,12004,001,2024_Jun_13_1348,nback,2021.2.3,59.74625765910863,
1-back,instructions\back-1.png,conditions\10back-e.xlsx,,,experiment,1,1,stim\yellow.png,stim\gray.png,stim\gray.png,stim\gray.png,right,,,,,,,,,,,,,0,2,2,1,0,14,14,14,,,,,,,,,,,,,,,,,,,,,,,,,,,,,,,,,,,,,,,,,,,,,,,,,,,,,,,,right,1,235.7866807000246,None,235.7866807000246,None,235.7866807000246,236.78909440001007,235.7866807000246,236.78909440001007,235.7866807000246,236.78909440001007,235.7866807000246,236.78909440001007,235.7866807000246,236.2886382000288,235.7866807000246,236.2886382000288,235.7866807000246,236.2886382000288,235.7866807000246,236.2886382000288,235.7866807000246,None,0.4231603000080213,,,,,12004,001,2024_Jun_13_1348,nback,2021.2.3,59.74625765910863,
1-back,instructions\back-1.png,conditions\10back-e.xlsx,,,experiment,1,2,stim\gray.png,stim\yellow.png,stim\gray.png,stim\gray.png,up,,,,,,,,,,,,,0,2,2,1,0,15,15,15,,,,,,,,,,,,,,,,,,,,,,,,,,,,,,,,,,,,,,,,,,,,,,,,,,,,,,,,up,1,237.28873740008567,None,237.28873740008567,None,237.28873740008567,238.29136510007083,237.28873740008567,238.29136510007083,237.28873740008567,238.29136510007083,237.28873740008567,238.29136510007083,237.28873740008567,237.78958109999076,237.28873740008567,237.78958109999076,237.28873740008567,237.78958109999076,237.28873740008567,237.78958109999076,237.28873740008567,None,0.3132131000747904,,,,,12004,001,2024_Jun_13_1348,nback,2021.2.3,59.74625765910863,
1-back,instructions\back-1.png,conditions\10back-e.xlsx,,,experiment,1,3,stim\gray.png,stim\gray.png,stim\yellow.png,stim\gray.png,left,,,,,,,,,,,,,0,2,2,1,0,16,16,16,,,,,,,,,,,,,,,,,,,,,,,,,,,,,,,,,,,,,,,,,,,,,,,,,,,,,,,,left,1,238.7743723000167,None,238.7743723000167,None,238.7743723000167,239.77688330004457,238.7743723000167,239.77688330004457,238.7743723000167,239.77688330004457,238.7743723000167,239.77688330004457,238.7743723000167,239.2759712000843,238.7743723000167,239.2759712000843,238.7743723000167,239.2759712000843,238.7743723000167,239.2759712000843,238.7743723000167,None,0.3879757000831887,,,,,12004,001,2024_Jun_13_1348,nback,2021.2.3,59.74625765910863,
1-back,instructions\back-1.png,conditions\10back-e.xlsx,,,experiment,1,2,stim\gray.png,stim\yellow.png,stim\gray.png,stim\gray.png,right,,,,,,,,,,,,,0,2,2,1,0,17,17,17,,,,,,,,,,,,,,,,,,,,,,,,,,,,,,,,,,,,,,,,,,,,,,,,,,,,,,,,right,1,240.27650979999453,None,240.27650979999453,None,240.27650979999453,241.278203300084,240.27650979999453,241.278203300084,240.27650979999453,241.278203300084,240.27650979999453,241.278203300084,240.27650979999453,240.77831560000777,240.27650979999453,240.77831560000777,240.27650979999453,240.77831560000777,240.27650979999453,240.77831560000777,240.27650979999453,None,0.46979539992753416,,,,,12004,001,2024_Jun_13_1348,nback,2021.2.3,59.74625765910863,
1-back,instructions\back-1.png,conditions\10back-e.xlsx,,,experiment,1,1,stim\yellow.png,stim\gray.png,stim\gray.png,stim\gray.png,left,,,,,,,,,,,,,0,2,2,1,0,18,18,18,,,,,,,,,,,,,,,,,,,,,,,,,,,,,,,,,,,,,,,,,,,,,,,,,,,,,,,,left,1,241.77972460002638,None,241.77972460002638,None,241.77972460002638,242.78116320003755,241.77972460002638,242.78116320003755,241.77972460002638,242.78116320003755,241.77972460002638,242.78116320003755,241.77972460002638,242.27984010009095,241.77972460002638,242.27984010009095,241.77972460002638,242.27984010009095,241.77972460002638,242.27984010009095,241.77972460002638,None,0.3988015999784693,,,,,12004,001,2024_Jun_13_1348,nback,2021.2.3,59.74625765910863,
1-back,instructions\back-1.png,conditions\10back-e.xlsx,,,experiment,1,4,stim\gray.png,stim\gray.png,stim\gray.png,stim\yellow.png,up,,,,,,,,,,,,,0,2,2,1,0,19,19,19,,,,,,,,,,,,,,,,,,,,,,,,,,,,,,,,,,,,,,,,,,,,,,,,,,,,,,,,up,1,243.28246740007307,None,243.28246740007307,None,243.28246740007307,244.28267570002936,243.28246740007307,244.28267570002936,243.28246740007307,244.28267570002936,243.28246740007307,244.28267570002936,243.28246740007307,243.78253540000878,243.28246740007307,243.78253540000878,243.28246740007307,243.78253540000878,243.28246740007307,243.78253540000878,243.28246740007307,None,0.35176449990831316,,,,,12004,001,2024_Jun_13_1348,nback,2021.2.3,59.74625765910863,
1-back,instructions\back-1.png,conditions\10back-e.xlsx,,,,,,,,,,,,,,,,,,,,,,,0,2,2,1,,,,,,,,,,,,,,,,,,,,,,,,,,,,,,,,,,,,,,,,,,,,,,,,,,,,,,,,,,,,,,,,,,,,,,,,,,,,,,,,,,,,,244.78350990009494,None,,,12004,001,2024_Jun_13_1348,nback,2021.2.3,59.74625765910863,
0-back,instructions\back-0.png,conditions\00back-e.xlsx,,,experiment,0,3,stim\gray.png,stim\gray.png,stim\yellow.png,stim\gray.png,right,,,,,,,,,,,,,0,3,3,0,0,0,0,0,,,,,,,,,,,,,,,245.90298400004394,250.40861360006966,250.3750352000352,None,,,,,,,,,,,,,,,,,,,,,,,,,,,,,,,,,,,,,,right,1,250.79335200006608,None,250.79335200006608,None,250.79335200006608,251.7948432000121,250.79335200006608,251.7948432000121,250.79335200006608,251.7948432000121,250.79335200006608,251.7948432000121,250.79335200006608,251.29329930001404,250.79335200006608,251.29329930001404,250.79335200006608,251.29329930001404,250.79335200006608,251.29329930001404,250.79335200006608,None,0.5370063000591472,,,,,12004,001,2024_Jun_13_1348,nback,2021.2.3,59.74625765910863,
0-back,instructions\back-0.png,conditions\00back-e.xlsx,,,experiment,0,4,stim\gray.png,stim\gray.png,stim\gray.png,stim\yellow.png,down,,,,,,,,,,,,,0,3,3,0,0,1,1,1,,,,,,,,,,,,,,,,,,,,,,,,,,,,,,,,,,,,,,,,,,,,,,,,,,,,,,,,down,1,252.2781497000251,None,252.2781497000251,None,252.2781497000251,253.27973840001505,252.2781497000251,253.27973840001505,252.2781497000251,253.27973840001505,252.2781497000251,253.27973840001505,252.2781497000251,252.77889850002248,252.2781497000251,252.77889850002248,252.2781497000251,252.77889850002248,252.2781497000251,252.77889850002248,252.2781497000251,None,0.5723081000614911,,,,,12004,001,2024_Jun_13_1348,nback,2021.2.3,59.74625765910863,
0-back,instructions\back-0.png,conditions\00back-e.xlsx,,,experiment,0,1,stim\yellow.png,stim\gray.png,stim\gray.png,stim\gray.png,up,,,,,,,,,,,,,0,3,3,0,0,2,2,2,,,,,,,,,,,,,,,,,,,,,,,,,,,,,,,,,,,,,,,,,,,,,,,,,,,,,,,,up,1,253.78101760009304,None,253.78101760009304,None,253.78101760009304,254.7831814000383,253.78101760009304,254.7831814000383,253.78101760009304,254.7831814000383,253.78101760009304,254.7831814000383,253.78101760009304,254.28117830003612,253.78101760009304,254.28117830003612,253.78101760009304,254.28117830003612,253.78101760009304,254.28117830003612,253.78101760009304,None,0.3178174999775365,,,,,12004,001,2024_Jun_13_1348,nback,2021.2.3,59.74625765910863,
0-back,instructions\back-0.png,conditions\00back-e.xlsx,,,experiment,0,2,stim\gray.png,stim\yellow.png,stim\gray.png,stim\gray.png,left,,,,,,,,,,,,,0,3,3,0,0,3,3,3,,,,,,,,,,,,,,,,,,,,,,,,,,,,,,,,,,,,,,,,,,,,,,,,,,,,,,,,left,1,255.28346330008935,None,255.28346330008935,None,255.28346330008935,256.2841541999951,255.28346330008935,256.2841541999951,255.28346330008935,256.2841541999951,255.28346330008935,256.2841541999951,255.28346330008935,255.7836030999897,255.28346330008935,255.7836030999897,255.28346330008935,255.7836030999897,255.28346330008935,255.7836030999897,255.28346330008935,None,0.3999820000026375,,,,,12004,001,2024_Jun_13_1348,nback,2021.2.3,59.74625765910863,
0-back,instructions\back-0.png,conditions\00back-e.xlsx,,,experiment,0,2,stim\gray.png,stim\yellow.png,stim\gray.png,stim\gray.png,left,,,,,,,,,,,,,0,3,3,0,0,4,4,4,,,,,,,,,,,,,,,,,,,,,,,,,,,,,,,,,,,,,,,,,,,,,,,,,,,,,,,,left,1,256.7850365000777,None,256.7850365000777,None,256.7850365000777,257.78668630006723,256.7850365000777,257.78668630006723,256.7850365000777,257.78668630006723,256.7850365000777,257.78668630006723,256.7850365000777,257.2865021000616,256.7850365000777,257.2865021000616,256.7850365000777,257.2865021000616,256.7850365000777,257.2865021000616,256.7850365000777,None,0.4338323000119999,,,,,12004,001,2024_Jun_13_1348,nback,2021.2.3,59.74625765910863,
0-back,instructions\back-0.png,conditions\00back-e.xlsx,,,experiment,0,1,stim\yellow.png,stim\gray.png,stim\gray.png,stim\gray.png,up,,,,,,,,,,,,,0,3,3,0,0,5,5,5,,,,,,,,,,,,,,,,,,,,,,,,,,,,,,,,,,,,,,,,,,,,,,,,,,,,,,,,up,1,258.28716850001365,None,258.28716850001365,None,258.28716850001365,259.29099300003145,258.28716850001365,259.29099300003145,258.28716850001365,259.29099300003145,258.28716850001365,259.29099300003145,258.28716850001365,258.787960799993,258.28716850001365,258.787960799993,258.28716850001365,258.787960799993,258.28716850001365,258.787960799993,258.28716850001365,None,0.32330299995373935,,,,,12004,001,2024_Jun_13_1348,nback,2021.2.3,59.74625765910863,
0-back,instructions\back-0.png,conditions\00back-e.xlsx,,,experiment,0,4,stim\gray.png,stim\gray.png,stim\gray.png,stim\yellow.png,down,,,,,,,,,,,,,0,3,3,0,0,6,6,6,,,,,,,,,,,,,,,,,,,,,,,,,,,,,,,,,,,,,,,,,,,,,,,,,,,,,,,,down,1,259.78949420002755,None,259.78949420002755,None,259.78949420002755,260.7909470000304,259.78949420002755,260.7909470000304,259.78949420002755,260.7909470000304,259.78949420002755,260.7909470000304,259.78949420002755,260.29098030005116,259.78949420002755,260.29098030005116,259.78949420002755,260.29098030005116,259.78949420002755,260.29098030005116,259.78949420002755,None,0.6290301000699401,,,,,12004,001,2024_Jun_13_1348,nback,2021.2.3,59.74625765910863,
0-back,instructions\back-0.png,conditions\00back-e.xlsx,,,experiment,0,3,stim\gray.png,stim\gray.png,stim\yellow.png,stim\gray.png,right,,,,,,,,,,,,,0,3,3,0,0,7,7,7,,,,,,,,,,,,,,,,,,,,,,,,,,,,,,,,,,,,,,,,,,,,,,,,,,,,,,,,right,1,261.29177670006175,None,261.29177670006175,None,261.29177670006175,262.29375180008356,261.29177670006175,262.29375180008356,261.29177670006175,262.29375180008356,261.29177670006175,262.29375180008356,261.29177670006175,261.7928055000957,261.29177670006175,261.7928055000957,261.29177670006175,261.7928055000957,261.29177670006175,261.7928055000957,261.29177670006175,None,0.375626299995929,,,,,12004,001,2024_Jun_13_1348,nback,2021.2.3,59.74625765910863,
0-back,instructions\back-0.png,conditions\00back-e.xlsx,,,experiment,0,4,stim\gray.png,stim\gray.png,stim\gray.png,stim\yellow.png,down,,,,,,,,,,,,,0,3,3,0,0,8,8,8,,,,,,,,,,,,,,,,,,,,,,,,,,,,,,,,,,,,,,,,,,,,,,,,,,,,,,,,down,1,262.7783921000082,None,262.7783921000082,None,262.7783921000082,263.77950679999776,262.7783921000082,263.77950679999776,262.7783921000082,263.77950679999776,262.7783921000082,263.77950679999776,262.7783921000082,263.27816660003737,262.7783921000082,263.27816660003737,262.7783921000082,263.27816660003737,262.7783921000082,263.27816660003737,262.7783921000082,None,0.6082630000310019,,,,,12004,001,2024_Jun_13_1348,nback,2021.2.3,59.74625765910863,
0-back,instructions\back-0.png,conditions\00back-e.xlsx,,,experiment,0,3,stim\gray.png,stim\gray.png,stim\yellow.png,stim\gray.png,right,,,,,,,,,,,,,0,3,3,0,0,9,9,9,,,,,,,,,,,,,,,,,,,,,,,,,,,,,,,,,,,,,,,,,,,,,,,,,,,,,,,,right,1,264.2795504000969,None,264.2795504000969,None,264.2795504000969,265.281102500041,264.2795504000969,265.281102500041,264.2795504000969,265.281102500041,264.2795504000969,265.281102500041,264.2795504000969,264.7812125000637,264.2795504000969,264.7812125000637,264.2795504000969,264.7812125000637,264.2795504000969,264.7812125000637,264.2795504000969,None,0.4588980000698939,,,,,12004,001,2024_Jun_13_1348,nback,2021.2.3,59.74625765910863,
0-back,instructions\back-0.png,conditions\00back-e.xlsx,,,experiment,0,1,stim\yellow.png,stim\gray.png,stim\gray.png,stim\gray.png,up,,,,,,,,,,,,,0,3,3,0,0,10,10,10,,,,,,,,,,,,,,,,,,,,,,,,,,,,,,,,,,,,,,,,,,,,,,,,,,,,,,,,up,1,265.7818000999978,None,265.7818000999978,None,265.7818000999978,266.7840192000149,265.7818000999978,266.7840192000149,265.7818000999978,266.7840192000149,265.7818000999978,266.7840192000149,265.7818000999978,266.28263560007326,265.7818000999978,266.28263560007326,265.7818000999978,266.28263560007326,265.7818000999978,266.28263560007326,265.7818000999978,None,0.28485419997014105,,,,,12004,001,2024_Jun_13_1348,nback,2021.2.3,59.74625765910863,
0-back,instructions\back-0.png,conditions\00back-e.xlsx,,,experiment,0,2,stim\gray.png,stim\yellow.png,stim\gray.png,stim\gray.png,left,,,,,,,,,,,,,0,3,3,0,0,11,11,11,,,,,,,,,,,,,,,,,,,,,,,,,,,,,,,,,,,,,,,,,,,,,,,,,,,,,,,,left,1,267.2840406000614,None,267.2840406000614,None,267.2840406000614,268.28627800010145,267.2840406000614,268.28627800010145,267.2840406000614,268.28627800010145,267.2840406000614,268.28627800010145,267.2840406000614,267.7849281000672,267.2840406000614,267.7849281000672,267.2840406000614,267.7849281000672,267.2840406000614,267.7849281000672,267.2840406000614,None,0.31120769993867725,,,,,12004,001,2024_Jun_13_1348,nback,2021.2.3,59.74625765910863,
0-back,instructions\back-0.png,conditions\00back-e.xlsx,,,experiment,0,3,stim\gray.png,stim\gray.png,stim\yellow.png,stim\gray.png,right,,,,,,,,,,,,,0,3,3,0,0,12,12,12,,,,,,,,,,,,,,,,,,,,,,,,,,,,,,,,,,,,,,,,,,,,,,,,,,,,,,,,right,1,268.7863873000024,None,268.7863873000024,None,268.7863873000024,269.7890156999929,268.7863873000024,269.7890156999929,268.7863873000024,269.7890156999929,268.7863873000024,269.7890156999929,268.7863873000024,269.2875518000219,268.7863873000024,269.2875518000219,268.7863873000024,269.2875518000219,268.7863873000024,269.2875518000219,268.7863873000024,None,0.34441909997258335,,,,,12004,001,2024_Jun_13_1348,nback,2021.2.3,59.74625765910863,
0-back,instructions\back-0.png,conditions\00back-e.xlsx,,,experiment,0,1,stim\yellow.png,stim\gray.png,stim\gray.png,stim\gray.png,up,,,,,,,,,,,,,0,3,3,0,0,13,13,13,,,,,,,,,,,,,,,,,,,,,,,,,,,,,,,,,,,,,,,,,,,,,,,,,,,,,,,,up,1,270.28851179999765,None,270.28851179999765,None,270.28851179999765,271.2904770000605,270.28851179999765,271.2904770000605,270.28851179999765,271.2904770000605,270.28851179999765,271.2904770000605,270.28851179999765,270.78991799999494,270.28851179999765,270.78991799999494,270.28851179999765,270.78991799999494,270.28851179999765,270.78991799999494,270.28851179999765,None,0.34653479990083724,,,,,12004,001,2024_Jun_13_1348,nback,2021.2.3,59.74625765910863,
0-back,instructions\back-0.png,conditions\00back-e.xlsx,,,experiment,0,4,stim\gray.png,stim\gray.png,stim\gray.png,stim\yellow.png,down,,,,,,,,,,,,,0,3,3,0,0,14,14,14,,,,,,,,,,,,,,,,,,,,,,,,,,,,,,,,,,,,,,,,,,,,,,,,,,,,,,,,down,1,271.7907615000149,None,271.7907615000149,None,271.7907615000149,272.7931238000747,271.7907615000149,272.7931238000747,271.7907615000149,272.7931238000747,271.7907615000149,272.7931238000747,271.7907615000149,272.2922407001024,271.7907615000149,272.2922407001024,271.7907615000149,272.2922407001024,271.7907615000149,272.2922407001024,271.7907615000149,None,0.49212299997452646,,,,,12004,001,2024_Jun_13_1348,nback,2021.2.3,59.74625765910863,
0-back,instructions\back-0.png,conditions\00back-e.xlsx,,,experiment,0,2,stim\gray.png,stim\yellow.png,stim\gray.png,stim\gray.png,left,,,,,,,,,,,,,0,3,3,0,0,15,15,15,,,,,,,,,,,,,,,,,,,,,,,,,,,,,,,,,,,,,,,,,,,,,,,,,,,,,,,,left,1,273.2765376000898,None,273.2765376000898,None,273.2765376000898,274.2779909000965,273.2765376000898,274.2779909000965,273.2765376000898,274.2779909000965,273.2765376000898,274.2779909000965,273.2765376000898,273.77784820005763,273.2765376000898,273.77784820005763,273.2765376000898,273.77784820005763,273.2765376000898,273.77784820005763,273.2765376000898,None,0.5184461999451742,,,,,12004,001,2024_Jun_13_1348,nback,2021.2.3,59.74625765910863,
0-back,instructions\back-0.png,conditions\00back-e.xlsx,,,experiment,0,1,stim\yellow.png,stim\gray.png,stim\gray.png,stim\gray.png,up,,,,,,,,,,,,,0,3,3,0,0,16,16,16,,,,,,,,,,,,,,,,,,,,,,,,,,,,,,,,,,,,,,,,,,,,,,,,,,,,,,,,up,1,274.7796082000714,None,274.7796082000714,None,274.7796082000714,275.7802254999988,274.7796082000714,275.7802254999988,274.7796082000714,275.7802254999988,274.7796082000714,275.7802254999988,274.7796082000714,275.2794595999876,274.7796082000714,275.2794595999876,274.7796082000714,275.2794595999876,274.7796082000714,275.2794595999876,274.7796082000714,None,0.28704490000382066,,,,,12004,001,2024_Jun_13_1348,nback,2021.2.3,59.74625765910863,
0-back,instructions\back-0.png,conditions\00back-e.xlsx,,,experiment,0,2,stim\gray.png,stim\yellow.png,stim\gray.png,stim\gray.png,left,,,,,,,,,,,,,0,3,3,0,0,17,17,17,,,,,,,,,,,,,,,,,,,,,,,,,,,,,,,,,,,,,,,,,,,,,,,,,,,,,,,,left,1,276.2809323000256,None,276.2809323000256,None,276.2809323000256,277.28217720007524,276.2809323000256,277.28217720007524,276.2809323000256,277.28217720007524,276.2809323000256,277.28217720007524,276.2809323000256,276.7829232000513,276.2809323000256,276.7829232000513,276.2809323000256,276.7829232000513,276.2809323000256,276.7829232000513,276.2809323000256,None,0.6100796000100672,,,,,12004,001,2024_Jun_13_1348,nback,2021.2.3,59.74625765910863,
