backseq,backinstr,backfile,instruction,size_in,Trialtype,back,number,P1,P2,P3,P4,corrAns,trials_practice.thisRepN,trials_practice.thisTrialN,trials_practice.thisN,trials_practice.thisIndex,trials.thisRepN,trials.thisTrialN,trials.thisN,trials.thisIndex,trials_3.thisRepN,trials_3.thisTrialN,trials_3.thisN,trials_3.thisIndex,trials_2.thisRepN,trials_2.thisTrialN,trials_2.thisN,trials_2.thisIndex,trials_4.thisRepN,trials_4.thisTrialN,trials_4.thisN,trials_4.thisIndex,image.started,image.stopped,image_2.started,image_2.stopped,key_resp.keys,key_resp.rt,key_resp.started,key_resp.stopped,image_3.started,image_3.stopped,key_resp_2.keys,key_resp_2.rt,key_resp_2.started,key_resp_2.stopped,image_4.started,image_4.stopped,text.started,text.stopped,H1.started,H1.stopped,H2.started,H2.stopped,H3.started,H3.stopped,H4.started,H4.stopped,key_resp_3.keys,key_resp_3.corr,key_resp_3.rt,key_resp_3.started,key_resp_3.stopped,text_4.started,text_4.stopped,F1.started,F1.stopped,F2.started,F2.stopped,F3.started,F3.stopped,F4.started,F4.stopped,image_7.started,image_7.stopped,text_5.started,text_5.stopped,key_resp_6.keys,key_resp_6.rt,key_resp_6.started,key_resp_6.stopped,image_5.started,image_5.stopped,key_resp_4.keys,key_resp_4.rt,key_resp_4.started,key_resp_4.stopped,key_resp_5.keys,key_resp_5.corr,key_resp_5.started,key_resp_5.stopped,text_3.started,text_3.stopped,H1_2.started,H1_2.stopped,H2_2.started,H2_2.stopped,H3_2.started,H3_2.stopped,H4_2.started,H4_2.stopped,F1_2.started,F1_2.stopped,F2_2.started,F2_2.stopped,F3_2.started,F3_2.stopped,F4_2.started,F4_2.stopped,image_8.started,image_8.stopped,key_resp_5.rt,text_2.started,text_2.stopped,image_6.started,image_6.stopped,participant,session,date,expName,psychopyVersion,frameRate,
,,,,,,,,,,,,,,,,,,,,,,,,,,,,,,,,,16.43429759994615,None,17.370272999978624,None,space,2.8534337999881245,17.370272999978624,None,,,,,,,,,,,,,,,,,,,,,,,,,,,,,,,,,,,,,,,,,,,,,,,,,,,,,,,,,,,,,,,,,,,,,,,,,,,,,12002,001,2024_Jun_02_1812,nback,2021.2.3,59.580659421210505,
0-back,instructions\back-0.png,conditions\0back-p.xlsx,instructions\0-BACK.png,"(15, 8)",practice,0,1,stim\yellow.png,stim\gray.png,stim\gray.png,stim\gray.png,up,0,0,0,0,0,0,0,0,0,0,0,0,,,,,,,,,,,,,,,,,20.32338209997397,None,space,4.209432800009381,20.32338209997397,None,24.780308199988212,29.288185099954717,29.221159699955024,None,29.654412199975923,30.656830799998716,29.654412199975923,30.656830799998716,29.654412199975923,30.656830799998716,29.654412199975923,30.656830799998716,up,1,0.6556098000146449,29.654412199975923,None,29.654412199975923,None,29.654412199975923,30.156154199969023,29.654412199975923,30.156154199969023,29.654412199975923,30.156154199969023,29.654412199975923,30.156154199969023,29.654412199975923,None,,,,,,,,,,,,,,,,,,,,,,,,,,,,,,,,,,,,,,,,,,12002,001,2024_Jun_02_1812,nback,2021.2.3,59.580659421210505,
0-back,instructions\back-0.png,conditions\0back-p.xlsx,instructions\0-BACK.png,"(15, 8)",practice,0,2,stim\gray.png,stim\yellow.png,stim\gray.png,stim\gray.png,left,0,0,0,0,0,0,0,0,0,1,1,1,,,,,,,,,,,,,,,,,,,,,,,,,,,31.073676299944054,32.075027099985164,31.073676299944054,32.075027099985164,31.073676299944054,32.075027099985164,31.073676299944054,32.075027099985164,left,1,0.5250911000184715,31.073676299944054,None,31.073676299944054,None,31.073676299944054,31.574870399956126,31.073676299944054,31.574870399956126,31.073676299944054,31.574870399956126,31.073676299944054,31.574870399956126,31.073676299944054,None,,,,,,,,,,,,,,,,,,,,,,,,,,,,,,,,,,,,,,,,,,12002,001,2024_Jun_02_1812,nback,2021.2.3,59.580659421210505,
0-back,instructions\back-0.png,conditions\0back-p.xlsx,instructions\0-BACK.png,"(15, 8)",practice,0,3,stim\gray.png,stim\gray.png,stim\yellow.png,stim\gray.png,right,0,0,0,0,0,0,0,0,0,2,2,2,,,,,,,,,,,,,,,,,,,,,,,,,,,32.55843169998843,33.561350199976005,32.55843169998843,33.561350199976005,32.55843169998843,33.561350199976005,32.55843169998843,33.561350199976005,right,1,0.37663990003056824,32.55843169998843,None,32.55843169998843,None,32.55843169998843,33.0597116999561,32.55843169998843,33.0597116999561,32.55843169998843,33.0597116999561,32.55843169998843,33.0597116999561,32.55843169998843,None,,,,,,,,,,,,,,,,,,,,,,,,,,,,,,,,,,,,,,,,,,12002,001,2024_Jun_02_1812,nback,2021.2.3,59.580659421210505,
0-back,instructions\back-0.png,conditions\0back-p.xlsx,instructions\0-BACK.png,"(15, 8)",practice,0,4,stim\gray.png,stim\gray.png,stim\gray.png,stim\yellow.png,down,0,0,0,0,0,0,0,0,0,3,3,3,,,,,,,,,,,,,,,,,,,,,,,,,,,34.06109629996354,35.062573299976066,34.06109629996354,35.062573299976066,34.06109629996354,35.062573299976066,34.06109629996354,35.062573299976066,down,1,0.4173068000236526,34.06109629996354,None,34.06109629996354,None,34.06109629996354,34.562881499994546,34.06109629996354,34.562881499994546,34.06109629996354,34.562881499994546,34.06109629996354,34.562881499994546,34.06109629996354,None,,,,,,,,,,,,,,,,,,,,,,,,,,,,,,,,,,,,,,,,,,12002,001,2024_Jun_02_1812,nback,2021.2.3,59.580659421210505,
0-back,instructions\back-0.png,conditions\0back-p.xlsx,instructions\0-BACK.png,"(15, 8)",practice,0,2,stim\gray.png,stim\yellow.png,stim\gray.png,stim\gray.png,left,0,0,0,0,0,0,0,0,0,4,4,4,,,,,,,,,,,,,,,,,,,,,,,,,,,35.56301529996563,36.565629399963655,35.56301529996563,36.565629399963655,35.56301529996563,36.565629399963655,35.56301529996563,36.565629399963655,left,1,0.41998329997295514,35.56301529996563,None,35.56301529996563,None,35.56301529996563,36.0641521999496,35.56301529996563,36.0641521999496,35.56301529996563,36.0641521999496,35.56301529996563,36.0641521999496,35.56301529996563,None,,,,,,,,,,,,,,,,,,,,,,,,,,,,,,,,,,,,,,,,,,12002,001,2024_Jun_02_1812,nback,2021.2.3,59.580659421210505,
0-back,instructions\back-0.png,conditions\0back-p.xlsx,instructions\0-BACK.png,"(15, 8)",practice,0,1,stim\yellow.png,stim\gray.png,stim\gray.png,stim\gray.png,up,0,0,0,0,0,0,0,0,0,5,5,5,,,,,,,,,,,,,,,,,,,,,,,,,,,37.06547219998902,38.06718439998804,37.06547219998902,38.06718439998804,37.06547219998902,38.06718439998804,37.06547219998902,38.06718439998804,up,1,0.4285826999694109,37.06547219998902,None,37.06547219998902,None,37.06547219998902,37.567368099989835,37.06547219998902,37.567368099989835,37.06547219998902,37.567368099989835,37.06547219998902,37.567368099989835,37.06547219998902,None,,,,,,,,,,,,,,,,,,,,,,,,,,,,,,,,,,,,,,,,,,12002,001,2024_Jun_02_1812,nback,2021.2.3,59.580659421210505,
0-back,instructions\back-0.png,conditions\0back-p.xlsx,instructions\0-BACK.png,"(15, 8)",practice,0,4,stim\gray.png,stim\gray.png,stim\gray.png,stim\yellow.png,down,0,0,0,0,0,0,0,0,0,6,6,6,,,,,,,,,,,,,,,,,,,,,,,,,,,38.56762039999012,39.57033649994992,38.56762039999012,39.57033649994992,38.56762039999012,39.57033649994992,38.56762039999012,39.57033649994992,down,1,0.3904481999925338,38.56762039999012,None,38.56762039999012,None,38.56762039999012,39.06855149997864,38.56762039999012,39.06855149997864,38.56762039999012,39.06855149997864,38.56762039999012,39.06855149997864,38.56762039999012,None,,,,,,,,,,,,,,,,,,,,,,,,,,,,,,,,,,,,,,,,,,12002,001,2024_Jun_02_1812,nback,2021.2.3,59.580659421210505,
0-back,instructions\back-0.png,conditions\0back-p.xlsx,instructions\0-BACK.png,"(15, 8)",practice,0,3,stim\gray.png,stim\gray.png,stim\yellow.png,stim\gray.png,right,0,0,0,0,0,0,0,0,0,7,7,7,,,,,,,,,,,,,,,,,,,,,,,,,,,40.07160969998222,41.07218559994362,40.07160969998222,41.07218559994362,40.07160969998222,41.07218559994362,40.07160969998222,41.07218559994362,right,1,0.25458129995968193,40.07160969998222,None,40.07160969998222,None,40.07160969998222,40.57176789996447,40.07160969998222,40.57176789996447,40.07160969998222,40.57176789996447,40.07160969998222,40.57176789996447,40.07160969998222,None,,,,,,,,,,,,,,,,,,,,,,,,,,,,,,,,,,,,,,,,,,12002,001,2024_Jun_02_1812,nback,2021.2.3,59.580659421210505,
0-back,instructions\back-0.png,conditions\0back-p.xlsx,instructions\0-BACK.png,"(15, 8)",practice,0,3,stim\gray.png,stim\gray.png,stim\yellow.png,stim\gray.png,right,0,0,0,0,0,0,0,0,0,8,8,8,,,,,,,,,,,,,,,,,,,,,,,,,,,41.55544099997496,42.55827259999933,41.55544099997496,42.55827259999933,41.55544099997496,42.55827259999933,41.55544099997496,42.55827259999933,right,1,0.2986930000479333,41.55544099997496,None,41.55544099997496,None,41.55544099997496,42.05745169997681,41.55544099997496,42.05745169997681,41.55544099997496,42.05745169997681,41.55544099997496,42.05745169997681,41.55544099997496,None,,,,,,,,,,,,,,,,,,,,,,,,,,,,,,,,,,,,,,,,,,12002,001,2024_Jun_02_1812,nback,2021.2.3,59.580659421210505,
0-back,instructions\back-0.png,conditions\0back-p.xlsx,instructions\0-BACK.png,"(15, 8)",practice,0,4,stim\gray.png,stim\gray.png,stim\gray.png,stim\yellow.png,down,0,0,0,0,0,0,0,0,0,9,9,9,,,,,,,,,,,,,,,,,,,,,,,,,,,43.07561349996831,44.076488799997605,43.07561349996831,44.076488799997605,43.07561349996831,44.076488799997605,43.07561349996831,44.076488799997605,down,1,0.4835579000064172,43.07561349996831,None,43.07561349996831,None,43.07561349996831,43.57642869994743,43.07561349996831,43.57642869994743,43.07561349996831,43.57642869994743,43.07561349996831,43.57642869994743,43.07561349996831,None,,,,,,,,,,,,,,,,,,,,,,,,,,,,,,,,,,,,,,,,,,12002,001,2024_Jun_02_1812,nback,2021.2.3,59.580659421210505,
0-back,instructions\back-0.png,conditions\0back-p.xlsx,instructions\0-BACK.png,"(15, 8)",practice,0,1,stim\yellow.png,stim\gray.png,stim\gray.png,stim\gray.png,up,0,0,0,0,0,0,0,0,0,10,10,10,,,,,,,,,,,,,,,,,,,,,,,,,,,44.559870400000364,45.56278549996205,44.559870400000364,45.56278549996205,44.559870400000364,45.56278549996205,44.559870400000364,45.56278549996205,up,1,0.3509308000211604,44.559870400000364,None,44.559870400000364,None,44.559870400000364,45.06230399996275,44.559870400000364,45.06230399996275,44.559870400000364,45.06230399996275,44.559870400000364,45.06230399996275,44.559870400000364,None,,,,,,,,,,,,,,,,,,,,,,,,,,,,,,,,,,,,,,,,,,12002,001,2024_Jun_02_1812,nback,2021.2.3,59.580659421210505,
0-back,instructions\back-0.png,conditions\0back-p.xlsx,instructions\0-BACK.png,"(15, 8)",practice,0,2,stim\gray.png,stim\yellow.png,stim\gray.png,stim\gray.png,left,0,0,0,0,0,0,0,0,0,11,11,11,,,,,,,,,,,,,,,,,,,,,,,,,,,46.06233619997511,47.064671899948735,46.06233619997511,47.064671899948735,46.06233619997511,47.064671899948735,46.06233619997511,47.064671899948735,left,1,0.36809180001728237,46.06233619997511,None,46.06233619997511,None,46.06233619997511,46.563185499981046,46.06233619997511,46.563185499981046,46.06233619997511,46.563185499981046,46.06233619997511,46.563185499981046,46.06233619997511,None,,,,,,,,,,,,,,,,,,,,,,,,,,,,,,,,,,,,,,,,,,12002,001,2024_Jun_02_1812,nback,2021.2.3,59.580659421210505,
0-back,instructions\back-0.png,conditions\0back-p.xlsx,instructions\0-BACK.png,"(15, 8)",practice,0,4,stim\gray.png,stim\gray.png,stim\gray.png,stim\yellow.png,down,0,0,0,0,0,0,0,0,0,12,12,12,,,,,,,,,,,,,,,,,,,,,,,,,,,47.56459119997453,48.56725309998728,47.56459119997453,48.56725309998728,47.56459119997453,48.56725309998728,47.56459119997453,48.56725309998728,down,1,0.369822800043039,47.56459119997453,None,47.56459119997453,None,47.56459119997453,48.06695839995518,47.56459119997453,48.06695839995518,47.56459119997453,48.06695839995518,47.56459119997453,48.06695839995518,47.56459119997453,None,,,,,,,,,,,,,,,,,,,,,,,,,,,,,,,,,,,,,,,,,,12002,001,2024_Jun_02_1812,nback,2021.2.3,59.580659421210505,
0-back,instructions\back-0.png,conditions\0back-p.xlsx,instructions\0-BACK.png,"(15, 8)",practice,0,3,stim\gray.png,stim\gray.png,stim\yellow.png,stim\gray.png,right,0,0,0,0,0,0,0,0,0,13,13,13,,,,,,,,,,,,,,,,,,,,,,,,,,,49.06687719997717,50.06867029995192,49.06687719997717,50.06867029995192,49.06687719997717,50.06867029995192,49.06687719997717,50.06867029995192,right,1,0.37182830000529066,49.06687719997717,None,49.06687719997717,None,49.06687719997717,49.568297099962365,49.06687719997717,49.568297099962365,49.06687719997717,49.568297099962365,49.06687719997717,49.568297099962365,49.06687719997717,None,,,,,,,,,,,,,,,,,,,,,,,,,,,,,,,,,,,,,,,,,,12002,001,2024_Jun_02_1812,nback,2021.2.3,59.580659421210505,
0-back,instructions\back-0.png,conditions\0back-p.xlsx,instructions\0-BACK.png,"(15, 8)",practice,0,1,stim\yellow.png,stim\gray.png,stim\gray.png,stim\gray.png,up,0,0,0,0,0,0,0,0,0,14,14,14,,,,,,,,,,,,,,,,,,,,,,,,,,,50.55259449995356,51.555191499996,50.55259449995356,51.555191499996,50.55259449995356,51.555191499996,50.55259449995356,51.555191499996,up,1,0.35064520000014454,50.55259449995356,None,50.55259449995356,None,50.55259449995356,51.05426819995046,50.55259449995356,51.05426819995046,50.55259449995356,51.05426819995046,50.55259449995356,51.05426819995046,50.55259449995356,None,,,,,,,,,,,,,,,,,,,,,,,,,,,,,,,,,,,,,,,,,,12002,001,2024_Jun_02_1812,nback,2021.2.3,59.580659421210505,
0-back,instructions\back-0.png,conditions\0back-p.xlsx,instructions\0-BACK.png,"(15, 8)",practice,0,2,stim\gray.png,stim\yellow.png,stim\gray.png,stim\gray.png,left,0,0,0,0,0,0,0,0,0,15,15,15,,,,,,,,,,,,,,,,,,,,,,,,,,,52.05449619999854,53.057323699991684,52.05449619999854,53.057323699991684,52.05449619999854,53.057323699991684,52.05449619999854,53.057323699991684,left,1,0.296007200027816,52.05449619999854,None,52.05449619999854,None,52.05449619999854,52.55610509996768,52.05449619999854,52.55610509996768,52.05449619999854,52.55610509996768,52.05449619999854,52.55610509996768,52.05449619999854,None,,,,,,,,,,,,,,,,,,,,,,,,,,,,,,,,,,,,,,,,,,12002,001,2024_Jun_02_1812,nback,2021.2.3,59.580659421210505,
0-back,instructions\back-0.png,conditions\0back-p.xlsx,instructions\0-BACK.png,"(15, 8)",practice,0,3,stim\gray.png,stim\gray.png,stim\yellow.png,stim\gray.png,right,0,0,0,0,0,0,0,0,0,16,16,16,,,,,,,,,,,,,,,,,,,,,,,,,,,53.55754919996252,54.559719799959566,53.55754919996252,54.559719799959566,53.55754919996252,54.559719799959566,53.55754919996252,54.559719799959566,right,1,0.36079749994678423,53.55754919996252,None,53.55754919996252,None,53.55754919996252,54.05821529997047,53.55754919996252,54.05821529997047,53.55754919996252,54.05821529997047,53.55754919996252,54.05821529997047,53.55754919996252,None,,,,,,,,,,,,,,,,,,,,,,,,,,,,,,,,,,,,,,,,,,12002,001,2024_Jun_02_1812,nback,2021.2.3,59.580659421210505,
0-back,instructions\back-0.png,conditions\0back-p.xlsx,instructions\0-BACK.png,"(15, 8)",practice,0,1,stim\yellow.png,stim\gray.png,stim\gray.png,stim\gray.png,up,0,0,0,0,0,0,0,0,0,17,17,17,,,,,,,,,,,,,,,,,,,,,,,,,,,55.05898349999916,56.06096819997765,55.05898349999916,56.06096819997765,55.05898349999916,56.06096819997765,55.05898349999916,56.06096819997765,up,1,0.32342770003015175,55.05898349999916,None,55.05898349999916,None,55.05898349999916,55.56115259998478,55.05898349999916,55.56115259998478,55.05898349999916,55.56115259998478,55.05898349999916,55.56115259998478,55.05898349999916,None,,,,,,,,,,,,,,,,,,,,,,,,,,,,,,,,,,,,,,,,,,12002,001,2024_Jun_02_1812,nback,2021.2.3,59.580659421210505,
0-back,instructions\back-0.png,conditions\0back-p.xlsx,instructions\0-BACK.png,"(15, 8)",practice,0,4,stim\gray.png,stim\gray.png,stim\gray.png,stim\yellow.png,down,0,0,0,0,0,0,0,0,0,18,18,18,,,,,,,,,,,,,,,,,,,,,,,,,,,56.56162999995286,57.56360599998152,56.56162999995286,57.56360599998152,56.56162999995286,57.56360599998152,56.56162999995286,57.56360599998152,down,1,0.3417494000168517,56.56162999995286,None,56.56162999995286,None,56.56162999995286,57.06234589999076,56.56162999995286,57.06234589999076,56.56162999995286,57.06234589999076,56.56162999995286,57.06234589999076,56.56162999995286,None,,,,,,,,,,,,,,,,,,,,,,,,,,,,,,,,,,,,,,,,,,12002,001,2024_Jun_02_1812,nback,2021.2.3,59.580659421210505,
0-back,instructions\back-0.png,conditions\0back-p.xlsx,instructions\0-BACK.png,"(15, 8)",practice,0,2,stim\gray.png,stim\yellow.png,stim\gray.png,stim\gray.png,left,0,0,0,0,0,0,0,0,0,19,19,19,,,,,,,,,,,,,,,,,,,,,,,,,,,58.06368299998576,59.06660199997714,58.06368299998576,59.06660199997714,58.06368299998576,59.06660199997714,58.06368299998576,59.06660199997714,left,1,0.31108100002165884,58.06368299998576,None,58.06368299998576,None,58.06368299998576,58.56559469999047,58.06368299998576,58.56559469999047,58.06368299998576,58.56559469999047,58.06368299998576,58.56559469999047,58.06368299998576,None,,,,,,,,,,,,,,,,,,,,,,,,,,,,,,,,,,,,,,,,,,12002,001,2024_Jun_02_1812,nback,2021.2.3,59.580659421210505,
0-back,instructions\back-0.png,conditions\0back-p.xlsx,instructions\0-BACK.png,"(15, 8)",,,,,,,,,0,0,0,0,0,0,0,0,,,,,,,,,,,,,,,,,,,,,,,,,,,,,,,,,,,,,,,,,,,,,,,,,,,,,,,,,,,,,,,,,,,,,,,,,,,,,,,,,,,,,,,,,,,,,,,,,12002,001,2024_Jun_02_1812,nback,2021.2.3,59.580659421210505,
1-back,instructions\back-1.png,conditions\1back-p.xlsx,instructions\1-BACK.png,"(25, 15)",practice,1,1,stim\yellow.png,stim\gray.png,stim\gray.png,stim\gray.png,None,0,0,0,0,0,1,1,1,0,0,0,0,,,,,,,,,,,,,,,,,59.850222799985204,None,space,3.5705209000152536,59.850222799985204,None,63.67158959998051,68.18015949998517,68.16338289994746,None,68.49630509997951,69.49905869999202,68.49630509997951,69.49905869999202,68.49630509997951,69.49905869999202,68.49630509997951,69.49905869999202,None,1,,68.49630509997951,None,68.49630509997951,None,68.49630509997951,68.99791519995779,68.49630509997951,68.99791519995779,68.49630509997951,68.99791519995779,68.49630509997951,68.99791519995779,68.49630509997951,None,,,,,,,,,,,,,,,,,,,,,,,,,,,,,,,,,,,,,,,,,,12002,001,2024_Jun_02_1812,nback,2021.2.3,59.580659421210505,
1-back,instructions\back-1.png,conditions\1back-p.xlsx,instructions\1-BACK.png,"(25, 15)",practice,1,2,stim\gray.png,stim\yellow.png,stim\gray.png,stim\gray.png,up,0,0,0,0,0,1,1,1,0,1,1,1,,,,,,,,,,,,,,,,,,,,,,,,,,,69.94819809996989,70.9510036999709,69.94819809996989,70.9510036999709,69.94819809996989,70.9510036999709,69.94819809996989,70.9510036999709,up,1,0.4831316000199877,69.94819809996989,None,69.94819809996989,None,69.94819809996989,70.45042689994443,69.94819809996989,70.45042689994443,69.94819809996989,70.45042689994443,69.94819809996989,70.45042689994443,69.94819809996989,None,,,,,,,,,,,,,,,,,,,,,,,,,,,,,,,,,,,,,,,,,,12002,001,2024_Jun_02_1812,nback,2021.2.3,59.580659421210505,
1-back,instructions\back-1.png,conditions\1back-p.xlsx,instructions\1-BACK.png,"(25, 15)",practice,1,3,stim\gray.png,stim\gray.png,stim\yellow.png,stim\gray.png,left,0,0,0,0,0,1,1,1,0,2,2,2,,,,,,,,,,,,,,,,,,,,,,,,,,,71.45062249997864,72.4534152999986,71.45062249997864,72.4534152999986,71.45062249997864,72.4534152999986,71.45062249997864,72.4534152999986,left,1,0.3806881000055,71.45062249997864,None,71.45062249997864,None,71.45062249997864,71.95216200000141,71.45062249997864,71.95216200000141,71.45062249997864,71.95216200000141,71.45062249997864,71.95216200000141,71.45062249997864,None,,,,,,,,,,,,,,,,,,,,,,,,,,,,,,,,,,,,,,,,,,12002,001,2024_Jun_02_1812,nback,2021.2.3,59.580659421210505,
1-back,instructions\back-1.png,conditions\1back-p.xlsx,instructions\1-BACK.png,"(25, 15)",practice,1,4,stim\gray.png,stim\gray.png,stim\gray.png,stim\yellow.png,right,0,0,0,0,0,1,1,1,0,3,3,3,,,,,,,,,,,,,,,,,,,,,,,,,,,72.95266999996966,73.95523809996666,72.95266999996966,73.95523809996666,72.95266999996966,73.95523809996666,72.95266999996966,73.95523809996666,right,1,0.3512923999805935,72.95266999996966,None,72.95266999996966,None,72.95266999996966,73.45494569995208,72.95266999996966,73.45494569995208,72.95266999996966,73.45494569995208,72.95266999996966,73.45494569995208,72.95266999996966,None,,,,,,,,,,,,,,,,,,,,,,,,,,,,,,,,,,,,,,,,,,12002,001,2024_Jun_02_1812,nback,2021.2.3,59.580659421210505,
1-back,instructions\back-1.png,conditions\1back-p.xlsx,instructions\1-BACK.png,"(25, 15)",practice,1,2,stim\gray.png,stim\yellow.png,stim\gray.png,stim\gray.png,down,0,0,0,0,0,1,1,1,0,4,4,4,,,,,,,,,,,,,,,,,,,,,,,,,,,74.45505109999795,75.45686639996711,74.45505109999795,75.45686639996711,74.45505109999795,75.45686639996711,74.45505109999795,75.45686639996711,down,1,0.24010110000381246,74.45505109999795,None,74.45505109999795,None,74.45505109999795,74.9567949999473,74.45505109999795,74.9567949999473,74.45505109999795,74.9567949999473,74.45505109999795,74.9567949999473,74.45505109999795,None,,,,,,,,,,,,,,,,,,,,,,,,,,,,,,,,,,,,,,,,,,12002,001,2024_Jun_02_1812,nback,2021.2.3,59.580659421210505,
1-back,instructions\back-1.png,conditions\1back-p.xlsx,instructions\1-BACK.png,"(25, 15)",practice,1,1,stim\yellow.png,stim\gray.png,stim\gray.png,stim\gray.png,left,0,0,0,0,0,1,1,1,0,5,5,5,,,,,,,,,,,,,,,,,,,,,,,,,,,75.957198899996,76.95953419996658,75.957198899996,76.95953419996658,75.957198899996,76.95953419996658,75.957198899996,76.95953419996658,left,1,0.2903821000363678,75.957198899996,None,75.957198899996,None,75.957198899996,76.4592911999789,75.957198899996,76.4592911999789,75.957198899996,76.4592911999789,75.957198899996,76.4592911999789,75.957198899996,None,,,,,,,,,,,,,,,,,,,,,,,,,,,,,,,,,,,,,,,,,,12002,001,2024_Jun_02_1812,nback,2021.2.3,59.580659421210505,
1-back,instructions\back-1.png,conditions\1back-p.xlsx,instructions\1-BACK.png,"(25, 15)",practice,1,4,stim\gray.png,stim\gray.png,stim\gray.png,stim\yellow.png,up,0,0,0,0,0,1,1,1,0,6,6,6,,,,,,,,,,,,,,,,,,,,,,,,,,,77.4428876999882,78.44562159996713,77.4428876999882,78.44562159996713,77.4428876999882,78.44562159996713,77.4428876999882,78.44562159996713,up,1,0.2767227999866009,77.4428876999882,None,77.4428876999882,None,77.4428876999882,77.94488509994699,77.4428876999882,77.94488509994699,77.4428876999882,77.94488509994699,77.4428876999882,77.94488509994699,77.4428876999882,None,,,,,,,,,,,,,,,,,,,,,,,,,,,,,,,,,,,,,,,,,,12002,001,2024_Jun_02_1812,nback,2021.2.3,59.580659421210505,
1-back,instructions\back-1.png,conditions\1back-p.xlsx,instructions\1-BACK.png,"(25, 15)",practice,1,3,stim\gray.png,stim\gray.png,stim\yellow.png,stim\gray.png,down,0,0,0,0,0,1,1,1,0,7,7,7,,,,,,,,,,,,,,,,,,,,,,,,,,,78.94525859999703,79.94684729998698,78.94525859999703,79.94684729998698,78.94525859999703,79.94684729998698,78.94525859999703,79.94684729998698,down,1,0.34265340003184974,78.94525859999703,None,78.94525859999703,None,78.94525859999703,79.44614529999672,78.94525859999703,79.44614529999672,78.94525859999703,79.44614529999672,78.94525859999703,79.44614529999672,78.94525859999703,None,,,,,,,,,,,,,,,,,,,,,,,,,,,,,,,,,,,,,,,,,,12002,001,2024_Jun_02_1812,nback,2021.2.3,59.580659421210505,
1-back,instructions\back-1.png,conditions\1back-p.xlsx,instructions\1-BACK.png,"(25, 15)",practice,1,3,stim\gray.png,stim\gray.png,stim\yellow.png,stim\gray.png,right,0,0,0,0,0,1,1,1,0,8,8,8,,,,,,,,,,,,,,,,,,,,,,,,,,,80.44749079999747,81.45031979994383,80.44749079999747,81.45031979994383,80.44749079999747,81.45031979994383,80.44749079999747,81.45031979994383,right,1,0.2483733000117354,80.44749079999747,None,80.44749079999747,None,80.44749079999747,80.9493260999443,80.44749079999747,80.9493260999443,80.44749079999747,80.9493260999443,80.44749079999747,80.9493260999443,80.44749079999747,None,,,,,,,,,,,,,,,,,,,,,,,,,,,,,,,,,,,,,,,,,,12002,001,2024_Jun_02_1812,nback,2021.2.3,59.580659421210505,
1-back,instructions\back-1.png,conditions\1back-p.xlsx,instructions\1-BACK.png,"(25, 15)",practice,1,4,stim\gray.png,stim\gray.png,stim\gray.png,stim\yellow.png,right,0,0,0,0,0,1,1,1,0,9,9,9,,,,,,,,,,,,,,,,,,,,,,,,,,,81.94955799996387,82.9519575999584,81.94955799996387,82.9519575999584,81.94955799996387,82.9519575999584,81.94955799996387,82.9519575999584,right,1,0.2982365000061691,81.94955799996387,None,81.94955799996387,None,81.94955799996387,82.45170129998587,81.94955799996387,82.45170129998587,81.94955799996387,82.45170129998587,81.94955799996387,82.45170129998587,81.94955799996387,None,,,,,,,,,,,,,,,,,,,,,,,,,,,,,,,,,,,,,,,,,,12002,001,2024_Jun_02_1812,nback,2021.2.3,59.580659421210505,
1-back,instructions\back-1.png,conditions\1back-p.xlsx,instructions\1-BACK.png,"(25, 15)",practice,1,1,stim\yellow.png,stim\gray.png,stim\gray.png,stim\gray.png,down,0,0,0,0,0,1,1,1,0,10,10,10,,,,,,,,,,,,,,,,,,,,,,,,,,,83.45183669996914,84.45389979996253,83.45183669996914,84.45389979996253,83.45183669996914,84.45389979996253,83.45183669996914,84.45389979996253,down,1,0.21945499995490536,83.45183669996914,None,83.45183669996914,None,83.45183669996914,83.95409889996517,83.45183669996914,83.95409889996517,83.45183669996914,83.95409889996517,83.45183669996914,83.95409889996517,83.45183669996914,None,,,,,,,,,,,,,,,,,,,,,,,,,,,,,,,,,,,,,,,,,,12002,001,2024_Jun_02_1812,nback,2021.2.3,59.580659421210505,
1-back,instructions\back-1.png,conditions\1back-p.xlsx,instructions\1-BACK.png,"(25, 15)",practice,1,2,stim\gray.png,stim\yellow.png,stim\gray.png,stim\gray.png,up,0,0,0,0,0,1,1,1,0,11,11,11,,,,,,,,,,,,,,,,,,,,,,,,,,,84.95407439995324,85.95707669999683,84.95407439995324,85.95707669999683,84.95407439995324,85.95707669999683,84.95407439995324,85.95707669999683,up,1,0.30996400001458824,84.95407439995324,None,84.95407439995324,None,84.95407439995324,85.45573659997899,84.95407439995324,85.45573659997899,84.95407439995324,85.45573659997899,84.95407439995324,85.45573659997899,84.95407439995324,None,,,,,,,,,,,,,,,,,,,,,,,,,,,,,,,,,,,,,,,,,,12002,001,2024_Jun_02_1812,nback,2021.2.3,59.580659421210505,
1-back,instructions\back-1.png,conditions\1back-p.xlsx,instructions\1-BACK.png,"(25, 15)",practice,1,4,stim\gray.png,stim\gray.png,stim\gray.png,stim\yellow.png,left,0,0,0,0,0,1,1,1,0,12,12,12,,,,,,,,,,,,,,,,,,,,,,,,,,,86.45669249998173,87.45914189994801,86.45669249998173,87.45914189994801,86.45669249998173,87.45914189994801,86.45669249998173,87.45914189994801,left,1,0.19960980000905693,86.45669249998173,None,86.45669249998173,None,86.45669249998173,86.95867799996631,86.45669249998173,86.95867799996631,86.45669249998173,86.95867799996631,86.45669249998173,86.95867799996631,86.45669249998173,None,,,,,,,,,,,,,,,,,,,,,,,,,,,,,,,,,,,,,,,,,,12002,001,2024_Jun_02_1812,nback,2021.2.3,59.580659421210505,
1-back,instructions\back-1.png,conditions\1back-p.xlsx,instructions\1-BACK.png,"(25, 15)",practice,1,3,stim\gray.png,stim\gray.png,stim\yellow.png,stim\gray.png,down,0,0,0,0,0,1,1,1,0,13,13,13,,,,,,,,,,,,,,,,,,,,,,,,,,,87.94203629996628,88.94494659994962,87.94203629996628,88.94494659994962,87.94203629996628,88.94494659994962,87.94203629996628,88.94494659994962,down,1,0.18585260002873838,87.94203629996628,None,87.94203629996628,None,87.94203629996628,88.44408699998166,87.94203629996628,88.44408699998166,87.94203629996628,88.44408699998166,87.94203629996628,88.44408699998166,87.94203629996628,None,,,,,,,,,,,,,,,,,,,,,,,,,,,,,,,,,,,,,,,,,,12002,001,2024_Jun_02_1812,nback,2021.2.3,59.580659421210505,
1-back,instructions\back-1.png,conditions\1back-p.xlsx,instructions\1-BACK.png,"(25, 15)",practice,1,1,stim\yellow.png,stim\gray.png,stim\gray.png,stim\gray.png,right,0,0,0,0,0,1,1,1,0,14,14,14,,,,,,,,,,,,,,,,,,,,,,,,,,,89.44428909994895,90.44727059995057,89.44428909994895,90.44727059995057,89.44428909994895,90.44727059995057,89.44428909994895,90.44727059995057,right,1,0.3232521999743767,89.44428909994895,None,89.44428909994895,None,89.44428909994895,89.9454045999446,89.44428909994895,89.9454045999446,89.44428909994895,89.9454045999446,89.44428909994895,89.9454045999446,89.44428909994895,None,,,,,,,,,,,,,,,,,,,,,,,,,,,,,,,,,,,,,,,,,,12002,001,2024_Jun_02_1812,nback,2021.2.3,59.580659421210505,
1-back,instructions\back-1.png,conditions\1back-p.xlsx,instructions\1-BACK.png,"(25, 15)",practice,1,2,stim\gray.png,stim\yellow.png,stim\gray.png,stim\gray.png,up,0,0,0,0,0,1,1,1,0,15,15,15,,,,,,,,,,,,,,,,,,,,,,,,,,,90.94650489999913,91.94934529997408,90.94650489999913,91.94934529997408,90.94650489999913,91.94934529997408,90.94650489999913,91.94934529997408,up,1,0.1892752000130713,90.94650489999913,None,90.94650489999913,None,90.94650489999913,91.44858309999108,90.94650489999913,91.44858309999108,90.94650489999913,91.44858309999108,90.94650489999913,91.44858309999108,90.94650489999913,None,,,,,,,,,,,,,,,,,,,,,,,,,,,,,,,,,,,,,,,,,,12002,001,2024_Jun_02_1812,nback,2021.2.3,59.580659421210505,
1-back,instructions\back-1.png,conditions\1back-p.xlsx,instructions\1-BACK.png,"(25, 15)",practice,1,3,stim\gray.png,stim\gray.png,stim\yellow.png,stim\gray.png,left,0,0,0,0,0,1,1,1,0,16,16,16,,,,,,,,,,,,,,,,,,,,,,,,,,,92.44968439999502,93.45065689994954,92.44968439999502,93.45065689994954,92.44968439999502,93.45065689994954,92.44968439999502,93.45065689994954,right,0,1.4462447000551037,92.44968439999502,None,92.44968439999502,None,92.44968439999502,92.95084849995328,92.44968439999502,92.95084849995328,92.44968439999502,92.95084849995328,92.44968439999502,92.95084849995328,92.44968439999502,None,,,,,,,,,,,,,,,,,,,,,,,,,,,,,,,,,,,,,,,,,,12002,001,2024_Jun_02_1812,nback,2021.2.3,59.580659421210505,
1-back,instructions\back-1.png,conditions\1back-p.xlsx,instructions\1-BACK.png,"(25, 15)",practice,1,1,stim\yellow.png,stim\gray.png,stim\gray.png,stim\gray.png,right,0,0,0,0,0,1,1,1,0,17,17,17,,,,,,,,,,,,,,,,,,,,,,,,,,,93.95120609999867,94.95337889995426,93.95120609999867,94.95337889995426,93.95120609999867,94.95337889995426,93.95120609999867,94.95337889995426,None,0,,93.95120609999867,None,93.95120609999867,None,93.95120609999867,94.453158099961,93.95120609999867,94.453158099961,93.95120609999867,94.453158099961,93.95120609999867,94.453158099961,93.95120609999867,None,,,,,,,,,,,,,,,,,,,,,,,,,,,,,,,,,,,,,,,,,,12002,001,2024_Jun_02_1812,nback,2021.2.3,59.580659421210505,
1-back,instructions\back-1.png,conditions\1back-p.xlsx,instructions\1-BACK.png,"(25, 15)",practice,1,4,stim\gray.png,stim\gray.png,stim\gray.png,stim\yellow.png,up,0,0,0,0,0,1,1,1,0,18,18,18,,,,,,,,,,,,,,,,,,,,,,,,,,,95.45341939997161,96.45631239999784,95.45341939997161,96.45631239999784,95.45341939997161,96.45631239999784,95.45341939997161,96.45631239999784,up,1,0.5541587000479922,95.45341939997161,None,95.45341939997161,None,95.45341939997161,95.95513599994592,95.45341939997161,95.95513599994592,95.45341939997161,95.95513599994592,95.45341939997161,95.95513599994592,95.45341939997161,None,,,,,,,,,,,,,,,,,,,,,,,,,,,,,,,,,,,,,,,,,,12002,001,2024_Jun_02_1812,nback,2021.2.3,59.580659421210505,
1-back,instructions\back-1.png,conditions\1back-p.xlsx,instructions\1-BACK.png,"(25, 15)",practice,1,2,stim\gray.png,stim\yellow.png,stim\gray.png,stim\gray.png,down,0,0,0,0,0,1,1,1,0,19,19,19,,,,,,,,,,,,,,,,,,,,,,,,,,,96.95569059997797,97.95851619995665,96.95569059997797,97.95851619995665,96.95569059997797,97.95851619995665,96.95569059997797,97.95851619995665,down,1,0.4689633999951184,96.95569059997797,None,96.95569059997797,None,96.95569059997797,97.45802249998087,96.95569059997797,97.45802249998087,96.95569059997797,97.45802249998087,96.95569059997797,97.45802249998087,96.95569059997797,None,,,,,,,,,,,,,,,,,,,,,,,,,,,,,,,,,,,,,,,,,,12002,001,2024_Jun_02_1812,nback,2021.2.3,59.580659421210505,
1-back,instructions\back-1.png,conditions\1back-p.xlsx,instructions\1-BACK.png,"(25, 15)",,,,,,,,,0,0,0,0,0,1,1,1,,,,,,,,,,,,,,,,,,,,,,,,,,,,,,,,,,,,,,,,,,,,,,,,,,,,,,,,,,,,,,,,,,,,,,,,,,,,,,,,,,,,,,,,,,,,,,,,,12002,001,2024_Jun_02_1812,nback,2021.2.3,59.580659421210505,
2-back,instructions\back-2.png,conditions\2back-p.xlsx,instructions\2-BACK.png,"(25, 15)",practice,2,1,stim\yellow.png,stim\gray.png,stim\gray.png,stim\gray.png,None,0,0,0,0,0,2,2,2,0,0,0,0,,,,,,,,,,,,,,,,,98.72525599994697,None,space,2.8252489999867976,98.72525599994697,None,101.81329149997327,106.32053889997769,106.25433659995906,None,106.63837669999339,107.63934249995509,106.63837669999339,107.63934249995509,106.63837669999339,107.63934249995509,106.63837669999339,107.63934249995509,None,1,,106.63837669999339,None,106.63837669999339,None,106.63837669999339,107.1388394999667,106.63837669999339,107.1388394999667,106.63837669999339,107.1388394999667,106.63837669999339,107.1388394999667,106.63837669999339,None,,,,,,,,,,,,,,,,,,,,,,,,,,,,,,,,,,,,,,,,,,12002,001,2024_Jun_02_1812,nback,2021.2.3,59.580659421210505,
2-back,instructions\back-2.png,conditions\2back-p.xlsx,instructions\2-BACK.png,"(25, 15)",practice,2,2,stim\gray.png,stim\yellow.png,stim\gray.png,stim\gray.png,None,0,0,0,0,0,2,2,2,0,1,1,1,,,,,,,,,,,,,,,,,,,,,,,,,,,108.10656979994383,109.10818009998184,108.10656979994383,109.10818009998184,108.10656979994383,109.10818009998184,108.10656979994383,109.10818009998184,None,1,,108.10656979994383,None,108.10656979994383,None,108.10656979994383,108.60756599996239,108.10656979994383,108.60756599996239,108.10656979994383,108.60756599996239,108.10656979994383,108.60756599996239,108.10656979994383,None,,,,,,,,,,,,,,,,,,,,,,,,,,,,,,,,,,,,,,,,,,12002,001,2024_Jun_02_1812,nback,2021.2.3,59.580659421210505,
2-back,instructions\back-2.png,conditions\2back-p.xlsx,instructions\2-BACK.png,"(25, 15)",practice,2,3,stim\gray.png,stim\gray.png,stim\yellow.png,stim\gray.png,up,0,0,0,0,0,2,2,2,0,2,2,2,,,,,,,,,,,,,,,,,,,,,,,,,,,109.60986559995217,110.61083520000102,109.60986559995217,110.61083520000102,109.60986559995217,110.61083520000102,109.60986559995217,110.61083520000102,up,1,0.29407780000474304,109.60986559995217,None,109.60986559995217,None,109.60986559995217,110.10901289997855,109.60986559995217,110.10901289997855,109.60986559995217,110.10901289997855,109.60986559995217,110.10901289997855,109.60986559995217,None,,,,,,,,,,,,,,,,,,,,,,,,,,,,,,,,,,,,,,,,,,12002,001,2024_Jun_02_1812,nback,2021.2.3,59.580659421210505,
2-back,instructions\back-2.png,conditions\2back-p.xlsx,instructions\2-BACK.png,"(25, 15)",practice,2,4,stim\gray.png,stim\gray.png,stim\gray.png,stim\yellow.png,left,0,0,0,0,0,2,2,2,0,3,3,3,,,,,,,,,,,,,,,,,,,,,,,,,,,111.09356089995708,112.09541479998734,111.09356089995708,112.09541479998734,111.09356089995708,112.09541479998734,111.09356089995708,112.09541479998734,left,1,0.26738219999242574,111.09356089995708,None,111.09356089995708,None,111.09356089995708,111.59564129996579,111.09356089995708,111.59564129996579,111.09356089995708,111.59564129996579,111.09356089995708,111.59564129996579,111.09356089995708,None,,,,,,,,,,,,,,,,,,,,,,,,,,,,,,,,,,,,,,,,,,12002,001,2024_Jun_02_1812,nback,2021.2.3,59.580659421210505,
2-back,instructions\back-2.png,conditions\2back-p.xlsx,instructions\2-BACK.png,"(25, 15)",practice,2,2,stim\gray.png,stim\yellow.png,stim\gray.png,stim\gray.png,right,0,0,0,0,0,2,2,2,0,4,4,4,,,,,,,,,,,,,,,,,,,,,,,,,,,112.59591089998139,113.59872589999577,112.59591089998139,113.59872589999577,112.59591089998139,113.59872589999577,112.59591089998139,113.59872589999577,right,1,0.3403411000035703,112.59591089998139,None,112.59591089998139,None,112.59591089998139,113.09761529997922,112.59591089998139,113.09761529997922,112.59591089998139,113.09761529997922,112.59591089998139,113.09761529997922,112.59591089998139,None,,,,,,,,,,,,,,,,,,,,,,,,,,,,,,,,,,,,,,,,,,12002,001,2024_Jun_02_1812,nback,2021.2.3,59.580659421210505,
2-back,instructions\back-2.png,conditions\2back-p.xlsx,instructions\2-BACK.png,"(25, 15)",practice,2,1,stim\yellow.png,stim\gray.png,stim\gray.png,stim\gray.png,down,0,0,0,0,0,2,2,2,0,5,5,5,,,,,,,,,,,,,,,,,,,,,,,,,,,114.11656399996718,115.11772989999736,114.11656399996718,115.11772989999736,114.11656399996718,115.11772989999736,114.11656399996718,115.11772989999736,down,1,0.3480464000022039,114.11656399996718,None,114.11656399996718,None,114.11656399996718,114.61675529996864,114.11656399996718,114.61675529996864,114.11656399996718,114.61675529996864,114.11656399996718,114.61675529996864,114.11656399996718,None,,,,,,,,,,,,,,,,,,,,,,,,,,,,,,,,,,,,,,,,,,12002,001,2024_Jun_02_1812,nback,2021.2.3,59.580659421210505,
2-back,instructions\back-2.png,conditions\2back-p.xlsx,instructions\2-BACK.png,"(25, 15)",practice,2,4,stim\gray.png,stim\gray.png,stim\gray.png,stim\yellow.png,left,0,0,0,0,0,2,2,2,0,6,6,6,,,,,,,,,,,,,,,,,,,,,,,,,,,115.5836179999751,116.58684039994841,115.5836179999751,116.58684039994841,115.5836179999751,116.58684039994841,115.5836179999751,116.58684039994841,left,1,0.38495470001362264,115.5836179999751,None,115.5836179999751,None,115.5836179999751,116.08566889999202,115.5836179999751,116.08566889999202,115.5836179999751,116.08566889999202,115.5836179999751,116.08566889999202,115.5836179999751,None,,,,,,,,,,,,,,,,,,,,,,,,,,,,,,,,,,,,,,,,,,12002,001,2024_Jun_02_1812,nback,2021.2.3,59.580659421210505,
2-back,instructions\back-2.png,conditions\2back-p.xlsx,instructions\2-BACK.png,"(25, 15)",practice,2,3,stim\gray.png,stim\gray.png,stim\yellow.png,stim\gray.png,up,0,0,0,0,0,2,2,2,0,7,7,7,,,,,,,,,,,,,,,,,,,,,,,,,,,117.10453439998673,118.10458349995315,117.10453439998673,118.10458349995315,117.10453439998673,118.10458349995315,117.10453439998673,118.10458349995315,up,1,0.28781639999942854,117.10453439998673,None,117.10453439998673,None,117.10453439998673,117.60465949994978,117.10453439998673,117.60465949994978,117.10453439998673,117.60465949994978,117.10453439998673,117.60465949994978,117.10453439998673,None,,,,,,,,,,,,,,,,,,,,,,,,,,,,,,,,,,,,,,,,,,12002,001,2024_Jun_02_1812,nback,2021.2.3,59.580659421210505,
2-back,instructions\back-2.png,conditions\2back-p.xlsx,instructions\2-BACK.png,"(25, 15)",practice,2,3,stim\gray.png,stim\gray.png,stim\yellow.png,stim\gray.png,down,0,0,0,0,0,2,2,2,0,8,8,8,,,,,,,,,,,,,,,,,,,,,,,,,,,118.58839439996518,119.59107249998488,118.58839439996518,119.59107249998488,118.58839439996518,119.59107249998488,118.58839439996518,119.59107249998488,down,1,0.37220449995948,118.58839439996518,None,118.58839439996518,None,118.58839439996518,119.08971069997642,118.58839439996518,119.08971069997642,118.58839439996518,119.08971069997642,118.58839439996518,119.08971069997642,118.58839439996518,None,,,,,,,,,,,,,,,,,,,,,,,,,,,,,,,,,,,,,,,,,,12002,001,2024_Jun_02_1812,nback,2021.2.3,59.580659421210505,
2-back,instructions\back-2.png,conditions\2back-p.xlsx,instructions\2-BACK.png,"(25, 15)",practice,2,4,stim\gray.png,stim\gray.png,stim\gray.png,stim\yellow.png,right,0,0,0,0,0,2,2,2,0,9,9,9,,,,,,,,,,,,,,,,,,,,,,,,,,,120.09062409994658,121.09295249998104,120.09062409994658,121.09295249998104,120.09062409994658,121.09295249998104,120.09062409994658,121.09295249998104,right,1,0.3342203000211157,120.09062409994658,None,120.09062409994658,None,120.09062409994658,120.59258369996678,120.09062409994658,120.59258369996678,120.09062409994658,120.59258369996678,120.09062409994658,120.59258369996678,120.09062409994658,None,,,,,,,,,,,,,,,,,,,,,,,,,,,,,,,,,,,,,,,,,,12002,001,2024_Jun_02_1812,nback,2021.2.3,59.580659421210505,
2-back,instructions\back-2.png,conditions\2back-p.xlsx,instructions\2-BACK.png,"(25, 15)",practice,2,1,stim\yellow.png,stim\gray.png,stim\gray.png,stim\gray.png,right,0,0,0,0,0,2,2,2,0,10,10,10,,,,,,,,,,,,,,,,,,,,,,,,,,,121.59296229999745,122.59557619999396,121.59296229999745,122.59557619999396,121.59296229999745,122.59557619999396,121.59296229999745,122.59557619999396,right,1,0.31124730000738055,121.59296229999745,None,121.59296229999745,None,121.59296229999745,122.09491229994455,121.59296229999745,122.09491229994455,121.59296229999745,122.09491229994455,121.59296229999745,122.09491229994455,121.59296229999745,None,,,,,,,,,,,,,,,,,,,,,,,,,,,,,,,,,,,,,,,,,,12002,001,2024_Jun_02_1812,nback,2021.2.3,59.580659421210505,
2-back,instructions\back-2.png,conditions\2back-p.xlsx,instructions\2-BACK.png,"(25, 15)",practice,2,2,stim\gray.png,stim\yellow.png,stim\gray.png,stim\gray.png,down,0,0,0,0,0,2,2,2,0,11,11,11,,,,,,,,,,,,,,,,,,,,,,,,,,,123.09496899996884,124.09793189994525,123.09496899996884,124.09793189994525,123.09496899996884,124.09793189994525,123.09496899996884,124.09793189994525,down,1,0.32174660003511235,123.09496899996884,None,123.09496899996884,None,123.09496899996884,123.59694540000055,123.09496899996884,123.59694540000055,123.09496899996884,123.59694540000055,123.09496899996884,123.59694540000055,123.09496899996884,None,,,,,,,,,,,,,,,,,,,,,,,,,,,,,,,,,,,,,,,,,,12002,001,2024_Jun_02_1812,nback,2021.2.3,59.580659421210505,
2-back,instructions\back-2.png,conditions\2back-p.xlsx,instructions\2-BACK.png,"(25, 15)",practice,2,4,stim\gray.png,stim\gray.png,stim\gray.png,stim\yellow.png,up,0,0,0,0,0,2,2,2,0,12,12,12,,,,,,,,,,,,,,,,,,,,,,,,,,,124.59724409994669,125.60004449996632,124.59724409994669,125.60004449996632,124.59724409994669,125.60004449996632,124.59724409994669,125.60004449996632,up,1,0.33931710000615567,124.59724409994669,None,124.59724409994669,None,124.59724409994669,125.09901179996086,124.59724409994669,125.09901179996086,124.59724409994669,125.09901179996086,124.59724409994669,125.09901179996086,124.59724409994669,None,,,,,,,,,,,,,,,,,,,,,,,,,,,,,,,,,,,,,,,,,,12002,001,2024_Jun_02_1812,nback,2021.2.3,59.580659421210505,
2-back,instructions\back-2.png,conditions\2back-p.xlsx,instructions\2-BACK.png,"(25, 15)",practice,2,3,stim\gray.png,stim\gray.png,stim\yellow.png,stim\gray.png,left,0,0,0,0,0,2,2,2,0,13,13,13,,,,,,,,,,,,,,,,,,,,,,,,,,,126.09958589996677,127.10189900000114,126.09958589996677,127.10189900000114,126.09958589996677,127.10189900000114,126.09958589996677,127.10189900000114,left,1,0.2530104999896139,126.09958589996677,None,126.09958589996677,None,126.09958589996677,126.60156939999433,126.09958589996677,126.60156939999433,126.09958589996677,126.60156939999433,126.09958589996677,126.60156939999433,126.09958589996677,None,,,,,,,,,,,,,,,,,,,,,,,,,,,,,,,,,,,,,,,,,,12002,001,2024_Jun_02_1812,nback,2021.2.3,59.580659421210505,
2-back,instructions\back-2.png,conditions\2back-p.xlsx,instructions\2-BACK.png,"(25, 15)",practice,2,1,stim\yellow.png,stim\gray.png,stim\gray.png,stim\gray.png,down,0,0,0,0,0,2,2,2,0,14,14,14,,,,,,,,,,,,,,,,,,,,,,,,,,,127.58590219996404,128.58802169997944,127.58590219996404,128.58802169997944,127.58590219996404,128.58802169997944,127.58590219996404,128.58802169997944,down,1,0.24643270001979545,127.58590219996404,None,127.58590219996404,None,127.58590219996404,128.08720569999423,127.58590219996404,128.08720569999423,127.58590219996404,128.08720569999423,127.58590219996404,128.08720569999423,127.58590219996404,None,,,,,,,,,,,,,,,,,,,,,,,,,,,,,,,,,,,,,,,,,,12002,001,2024_Jun_02_1812,nback,2021.2.3,59.580659421210505,
2-back,instructions\back-2.png,conditions\2back-p.xlsx,instructions\2-BACK.png,"(25, 15)",practice,2,2,stim\gray.png,stim\yellow.png,stim\gray.png,stim\gray.png,right,0,0,0,0,0,2,2,2,0,15,15,15,,,,,,,,,,,,,,,,,,,,,,,,,,,129.0878566999454,130.089190699975,129.0878566999454,130.089190699975,129.0878566999454,130.089190699975,129.0878566999454,130.089190699975,right,1,0.20092939998721704,129.0878566999454,None,129.0878566999454,None,129.0878566999454,129.58906979998574,129.0878566999454,129.58906979998574,129.0878566999454,129.58906979998574,129.0878566999454,129.58906979998574,129.0878566999454,None,,,,,,,,,,,,,,,,,,,,,,,,,,,,,,,,,,,,,,,,,,12002,001,2024_Jun_02_1812,nback,2021.2.3,59.580659421210505,
2-back,instructions\back-2.png,conditions\2back-p.xlsx,instructions\2-BACK.png,"(25, 15)",practice,2,3,stim\gray.png,stim\gray.png,stim\yellow.png,stim\gray.png,up,0,0,0,0,0,2,2,2,0,16,16,16,,,,,,,,,,,,,,,,,,,,,,,,,,,130.58980429999065,131.59197059995495,130.58980429999065,131.59197059995495,130.58980429999065,131.59197059995495,130.58980429999065,131.59197059995495,up,1,0.3067562999785878,130.58980429999065,None,130.58980429999065,None,130.58980429999065,131.09143779997248,130.58980429999065,131.09143779997248,130.58980429999065,131.09143779997248,130.58980429999065,131.09143779997248,130.58980429999065,None,,,,,,,,,,,,,,,,,,,,,,,,,,,,,,,,,,,,,,,,,,12002,001,2024_Jun_02_1812,nback,2021.2.3,59.580659421210505,
2-back,instructions\back-2.png,conditions\2back-p.xlsx,instructions\2-BACK.png,"(25, 15)",practice,2,1,stim\yellow.png,stim\gray.png,stim\gray.png,stim\gray.png,left,0,0,0,0,0,2,2,2,0,17,17,17,,,,,,,,,,,,,,,,,,,,,,,,,,,132.09201299998676,133.09363299998222,132.09201299998676,133.09363299998222,132.09201299998676,133.09363299998222,132.09201299998676,133.09363299998222,left,1,0.33302980003645644,132.09201299998676,None,132.09201299998676,None,132.09201299998676,132.59343289997196,132.09201299998676,132.59343289997196,132.09201299998676,132.59343289997196,132.09201299998676,132.59343289997196,132.09201299998676,None,,,,,,,,,,,,,,,,,,,,,,,,,,,,,,,,,,,,,,,,,,12002,001,2024_Jun_02_1812,nback,2021.2.3,59.580659421210505,
2-back,instructions\back-2.png,conditions\2back-p.xlsx,instructions\2-BACK.png,"(25, 15)",practice,2,4,stim\gray.png,stim\gray.png,stim\gray.png,stim\yellow.png,right,0,0,0,0,0,2,2,2,0,18,18,18,,,,,,,,,,,,,,,,,,,,,,,,,,,133.6123298999737,134.61365849996218,133.6123298999737,134.61365849996218,133.6123298999737,134.61365849996218,133.6123298999737,134.61365849996218,right,1,0.22827080002753064,133.6123298999737,None,133.6123298999737,None,133.6123298999737,134.1130387999583,133.6123298999737,134.1130387999583,133.6123298999737,134.1130387999583,133.6123298999737,134.1130387999583,133.6123298999737,None,,,,,,,,,,,,,,,,,,,,,,,,,,,,,,,,,,,,,,,,,,12002,001,2024_Jun_02_1812,nback,2021.2.3,59.580659421210505,
2-back,instructions\back-2.png,conditions\2back-p.xlsx,instructions\2-BACK.png,"(25, 15)",practice,2,2,stim\gray.png,stim\yellow.png,stim\gray.png,stim\gray.png,up,0,0,0,0,0,2,2,2,0,19,19,19,,,,,,,,,,,,,,,,,,,,,,,,,,,135.0964841999812,136.09918619995005,135.0964841999812,136.09918619995005,135.0964841999812,136.09918619995005,135.0964841999812,136.09918619995005,up,1,0.1930617000325583,135.0964841999812,None,135.0964841999812,None,135.0964841999812,135.5984639999806,135.0964841999812,135.5984639999806,135.0964841999812,135.5984639999806,135.0964841999812,135.5984639999806,135.0964841999812,None,,,,,,,,,,,,,,,,,,,,,,,,,,,,,,,,,,,,,,,,,,12002,001,2024_Jun_02_1812,nback,2021.2.3,59.580659421210505,
2-back,instructions\back-2.png,conditions\2back-p.xlsx,instructions\2-BACK.png,"(25, 15)",,,,,,,,,0,0,0,0,0,2,2,2,,,,,,,,,,,,,,,,,,,,,,,,,,,,,,,,,,,,,,,,,,,,,,,,,,,,,,,,,,,,,,,,,,,,,,,,,,,,,,,,,,,,,,,,,,,,,,,,,12002,001,2024_Jun_02_1812,nback,2021.2.3,59.580659421210505,
,,,,,,,,,,,,,0,0,0,0,,,,,,,,,,,,,,,,,,,,,,,,,,,,,,,,,,,,,,,,,,,,,,,,,,,,,,,,,,,,136.59989129996393,None,space,35.248750199971255,136.59989129996393,None,,,,,,,,,,,,,,,,,,,,,,,,,,,,,,,,,,,,12002,001,2024_Jun_02_1812,nback,2021.2.3,59.580659421210505,
,,,,,,,,,,,,,,,,,,,,,,,,,,,,,,,,,,,,,,,,,,,,,,,,,,,,,,,,,,,,,,,,,,,,,,,,,,,,,,,,,,171.86905839998508,None,space,3.09754069999326,171.86905839998508,None,,,,,,,,,,,,,,,,,,,,,,,,,,,,,,12002,001,2024_Jun_02_1812,nback,2021.2.3,59.580659421210505,
1-back,instructions\back-1.png,conditions\12back-e.xlsx,,,experiment,1,2,stim\gray.png,stim\yellow.png,stim\gray.png,stim\gray.png,None,,,,,,,,,,,,,0,0,0,6,0,0,0,0,,,,,,,,,,,,,,,175.17460859997664,179.68117779999739,179.6316758999601,None,,,,,,,,,,,,,,,,,,,,,,,,,,,,,,,,,,,,,,None,1,180.04790739994496,None,180.04790739994496,None,180.04790739994496,181.04945219994988,180.04790739994496,181.04945219994988,180.04790739994496,181.04945219994988,180.04790739994496,181.04945219994988,180.04790739994496,180.5497149999719,180.04790739994496,180.5497149999719,180.04790739994496,180.5497149999719,180.04790739994496,180.5497149999719,180.04790739994496,None,,,,,,12002,001,2024_Jun_02_1812,nback,2021.2.3,59.580659421210505,
1-back,instructions\back-1.png,conditions\12back-e.xlsx,,,experiment,1,3,stim\gray.png,stim\gray.png,stim\yellow.png,stim\gray.png,left,,,,,,,,,,,,,0,0,0,6,0,1,1,1,,,,,,,,,,,,,,,,,,,,,,,,,,,,,,,,,,,,,,,,,,,,,,,,,,,,,,,,left,1,181.49967910000123,None,181.49967910000123,None,181.49967910000123,182.50164659996517,181.49967910000123,182.50164659996517,181.49967910000123,182.50164659996517,181.49967910000123,182.50164659996517,181.49967910000123,182.00173719995655,181.49967910000123,182.00173719995655,181.49967910000123,182.00173719995655,181.49967910000123,182.00173719995655,181.49967910000123,None,0.3983482000185177,,,,,12002,001,2024_Jun_02_1812,nback,2021.2.3,59.580659421210505,
1-back,instructions\back-1.png,conditions\12back-e.xlsx,,,experiment,1,4,stim\gray.png,stim\gray.png,stim\gray.png,stim\yellow.png,right,,,,,,,,,,,,,0,0,0,6,0,2,2,2,,,,,,,,,,,,,,,,,,,,,,,,,,,,,,,,,,,,,,,,,,,,,,,,,,,,,,,,right,1,183.02012429997558,None,183.02012429997558,None,183.02012429997558,184.02092489995994,183.02012429997558,184.02092489995994,183.02012429997558,184.02092489995994,183.02012429997558,184.02092489995994,183.02012429997558,183.52008709998336,183.02012429997558,183.52008709998336,183.02012429997558,183.52008709998336,183.02012429997558,183.52008709998336,183.02012429997558,None,0.34202670003287494,,,,,12002,001,2024_Jun_02_1812,nback,2021.2.3,59.580659421210505,
1-back,instructions\back-1.png,conditions\12back-e.xlsx,,,experiment,1,3,stim\gray.png,stim\gray.png,stim\yellow.png,stim\gray.png,down,,,,,,,,,,,,,0,0,0,6,0,3,3,3,,,,,,,,,,,,,,,,,,,,,,,,,,,,,,,,,,,,,,,,,,,,,,,,,,,,,,,,down,1,184.50475049996749,None,184.50475049996749,None,184.50475049996749,185.50709309999365,184.50475049996749,185.50709309999365,184.50475049996749,185.50709309999365,184.50475049996749,185.50709309999365,184.50475049996749,185.00633599999128,184.50475049996749,185.00633599999128,184.50475049996749,185.00633599999128,184.50475049996749,185.00633599999128,184.50475049996749,None,0.32167600002139807,,,,,12002,001,2024_Jun_02_1812,nback,2021.2.3,59.580659421210505,
1-back,instructions\back-1.png,conditions\12back-e.xlsx,,,experiment,1,1,stim\yellow.png,stim\gray.png,stim\gray.png,stim\gray.png,right,,,,,,,,,,,,,0,0,0,6,0,4,4,4,,,,,,,,,,,,,,,,,,,,,,,,,,,,,,,,,,,,,,,,,,,,,,,,,,,,,,,,right,1,186.00668659998337,None,186.00668659998337,None,186.00668659998337,187.00898079999024,186.00668659998337,187.00898079999024,186.00668659998337,187.00898079999024,186.00668659998337,187.00898079999024,186.00668659998337,186.5084649999626,186.00668659998337,186.5084649999626,186.00668659998337,186.5084649999626,186.00668659998337,186.5084649999626,186.00668659998337,None,0.2762574999942444,,,,,12002,001,2024_Jun_02_1812,nback,2021.2.3,59.580659421210505,
1-back,instructions\back-1.png,conditions\12back-e.xlsx,,,experiment,1,2,stim\gray.png,stim\yellow.png,stim\gray.png,stim\gray.png,up,,,,,,,,,,,,,0,0,0,6,0,5,5,5,,,,,,,,,,,,,,,,,,,,,,,,,,,,,,,,,,,,,,,,,,,,,,,,,,,,,,,,up,1,187.50964049994946,None,187.50964049994946,None,187.50964049994946,188.51153329998488,187.50964049994946,188.51153329998488,187.50964049994946,188.51153329998488,187.50964049994946,188.51153329998488,187.50964049994946,188.0103730999981,187.50964049994946,188.0103730999981,187.50964049994946,188.0103730999981,187.50964049994946,188.0103730999981,187.50964049994946,None,0.26847860001726076,,,,,12002,001,2024_Jun_02_1812,nback,2021.2.3,59.580659421210505,
1-back,instructions\back-1.png,conditions\12back-e.xlsx,,,experiment,1,2,stim\gray.png,stim\yellow.png,stim\gray.png,stim\gray.png,left,,,,,,,,,,,,,0,0,0,6,0,6,6,6,,,,,,,,,,,,,,,,,,,,,,,,,,,,,,,,,,,,,,,,,,,,,,,,,,,,,,,,left,1,188.99440899997717,None,188.99440899997717,None,188.99440899997717,189.9975086999475,188.99440899997717,189.9975086999475,188.99440899997717,189.9975086999475,188.99440899997717,189.9975086999475,188.99440899997717,189.4962564999587,188.99440899997717,189.4962564999587,188.99440899997717,189.4962564999587,188.99440899997717,189.4962564999587,188.99440899997717,None,0.24820309999631718,,,,,12002,001,2024_Jun_02_1812,nback,2021.2.3,59.580659421210505,
1-back,instructions\back-1.png,conditions\12back-e.xlsx,,,experiment,1,4,stim\gray.png,stim\gray.png,stim\gray.png,stim\yellow.png,left,,,,,,,,,,,,,0,0,0,6,0,7,7,7,,,,,,,,,,,,,,,,,,,,,,,,,,,,,,,,,,,,,,,,,,,,,,,,,,,,,,,,left,1,190.496840399981,None,190.496840399981,None,190.496840399981,191.49965709995013,190.496840399981,191.49965709995013,190.496840399981,191.49965709995013,190.496840399981,191.49965709995013,190.496840399981,190.99865989998216,190.496840399981,190.99865989998216,190.496840399981,190.99865989998216,190.496840399981,190.99865989998216,190.496840399981,None,0.3613238999969326,,,,,12002,001,2024_Jun_02_1812,nback,2021.2.3,59.580659421210505,
1-back,instructions\back-1.png,conditions\12back-e.xlsx,,,experiment,1,1,stim\yellow.png,stim\gray.png,stim\gray.png,stim\gray.png,down,,,,,,,,,,,,,0,0,0,6,0,8,8,8,,,,,,,,,,,,,,,,,,,,,,,,,,,,,,,,,,,,,,,,,,,,,,,,,,,,,,,,down,1,192.01753789995564,None,192.01753789995564,None,192.01753789995564,193.01735129998997,192.01753789995564,193.01735129998997,192.01753789995564,193.01735129998997,192.01753789995564,193.01735129998997,192.01753789995564,192.51700549997622,192.01753789995564,192.51700549997622,192.01753789995564,192.51700549997622,192.01753789995564,192.51700549997622,192.01753789995564,None,0.24151069996878505,,,,,12002,001,2024_Jun_02_1812,nback,2021.2.3,59.580659421210505,
1-back,instructions\back-1.png,conditions\12back-e.xlsx,,,experiment,1,3,stim\gray.png,stim\gray.png,stim\yellow.png,stim\gray.png,up,,,,,,,,,,,,,0,0,0,6,0,9,9,9,,,,,,,,,,,,,,,,,,,,,,,,,,,,,,,,,,,,,,,,,,,,,,,,,,,,,,,,up,1,193.501176699996,None,193.501176699996,None,193.501176699996,194.50402539997594,193.501176699996,194.50402539997594,193.501176699996,194.50402539997594,193.501176699996,194.50402539997594,193.501176699996,194.00301019998733,193.501176699996,194.00301019998733,193.501176699996,194.00301019998733,193.501176699996,194.00301019998733,193.501176699996,None,0.2774863999802619,,,,,12002,001,2024_Jun_02_1812,nback,2021.2.3,59.580659421210505,
1-back,instructions\back-1.png,conditions\12back-e.xlsx,,,experiment,1,4,stim\gray.png,stim\gray.png,stim\gray.png,stim\yellow.png,right,,,,,,,,,,,,,0,0,0,6,0,10,10,10,,,,,,,,,,,,,,,,,,,,,,,,,,,,,,,,,,,,,,,,,,,,,,,,,,,,,,,,right,1,195.0221497999737,None,195.0221497999737,None,195.0221497999737,196.0229316999903,195.0221497999737,196.0229316999903,195.0221497999737,196.0229316999903,195.0221497999737,196.0229316999903,195.0221497999737,195.52230989997042,195.0221497999737,195.52230989997042,195.0221497999737,195.52230989997042,195.0221497999737,195.52230989997042,195.0221497999737,None,0.30013139999937266,,,,,12002,001,2024_Jun_02_1812,nback,2021.2.3,59.580659421210505,
1-back,instructions\back-1.png,conditions\12back-e.xlsx,,,experiment,1,3,stim\gray.png,stim\gray.png,stim\yellow.png,stim\gray.png,down,,,,,,,,,,,,,0,0,0,6,0,11,11,11,,,,,,,,,,,,,,,,,,,,,,,,,,,,,,,,,,,,,,,,,,,,,,,,,,,,,,,,down,1,196.50564479996683,None,196.50564479996683,None,196.50564479996683,197.50854589999653,196.50564479996683,197.50854589999653,196.50564479996683,197.50854589999653,196.50564479996683,197.50854589999653,196.50564479996683,197.00806019996526,196.50564479996683,197.00806019996526,196.50564479996683,197.00806019996526,196.50564479996683,197.00806019996526,196.50564479996683,None,0.264914300001692,,,,,12002,001,2024_Jun_02_1812,nback,2021.2.3,59.580659421210505,
1-back,instructions\back-1.png,conditions\12back-e.xlsx,,,experiment,1,1,stim\yellow.png,stim\gray.png,stim\gray.png,stim\gray.png,left,,,,,,,,,,,,,0,0,0,6,0,12,12,12,,,,,,,,,,,,,,,,,,,,,,,,,,,,,,,,,,,,,,,,,,,,,,,,,,,,,,,,right,0,198.00804679997964,None,198.00804679997964,None,198.00804679997964,199.0100739999907,198.00804679997964,199.0100739999907,198.00804679997964,199.0100739999907,198.00804679997964,199.0100739999907,198.00804679997964,198.50963459996274,198.00804679997964,198.50963459996274,198.00804679997964,198.50963459996274,198.00804679997964,198.50963459996274,198.00804679997964,None,0.3308461999986321,,,,,12002,001,2024_Jun_02_1812,nback,2021.2.3,59.580659421210505,
1-back,instructions\back-1.png,conditions\12back-e.xlsx,,,experiment,1,4,stim\gray.png,stim\gray.png,stim\gray.png,stim\yellow.png,up,,,,,,,,,,,,,0,0,0,6,0,13,13,13,,,,,,,,,,,,,,,,,,,,,,,,,,,,,,,,,,,,,,,,,,,,,,,,,,,,,,,,up,1,199.51215769996634,None,199.51215769996634,None,199.51215769996634,200.51257909997366,199.51215769996634,200.51257909997366,199.51215769996634,200.51257909997366,199.51215769996634,200.51257909997366,199.51215769996634,200.01228939997964,199.51215769996634,200.01228939997964,199.51215769996634,200.01228939997964,199.51215769996634,200.01228939997964,199.51215769996634,None,0.2583550999988802,,,,,12002,001,2024_Jun_02_1812,nback,2021.2.3,59.580659421210505,
1-back,instructions\back-1.png,conditions\12back-e.xlsx,,,experiment,1,1,stim\yellow.png,stim\gray.png,stim\gray.png,stim\gray.png,down,,,,,,,,,,,,,0,0,0,6,0,14,14,14,,,,,,,,,,,,,,,,,,,,,,,,,,,,,,,,,,,,,,,,,,,,,,,,,,,,,,,,down,1,200.9958771999809,None,200.9958771999809,None,200.9958771999809,201.99864749994595,200.9958771999809,201.99864749994595,200.9958771999809,201.99864749994595,200.9958771999809,201.99864749994595,200.9958771999809,201.49784629995702,200.9958771999809,201.49784629995702,200.9958771999809,201.49784629995702,200.9958771999809,201.49784629995702,200.9958771999809,None,0.2869312000111677,,,,,12002,001,2024_Jun_02_1812,nback,2021.2.3,59.580659421210505,
1-back,instructions\back-1.png,conditions\12back-e.xlsx,,,experiment,1,2,stim\gray.png,stim\yellow.png,stim\gray.png,stim\gray.png,up,,,,,,,,,,,,,0,0,0,6,0,15,15,15,,,,,,,,,,,,,,,,,,,,,,,,,,,,,,,,,,,,,,,,,,,,,,,,,,,,,,,,up,1,202.51583409996238,None,202.51583409996238,None,202.51583409996238,203.51760829996783,202.51583409996238,203.51760829996783,202.51583409996238,203.51760829996783,202.51583409996238,203.51760829996783,202.51583409996238,203.01699679996818,202.51583409996238,203.01699679996818,202.51583409996238,203.01699679996818,202.51583409996238,203.01699679996818,202.51583409996238,None,0.2787081999704242,,,,,12002,001,2024_Jun_02_1812,nback,2021.2.3,59.580659421210505,
1-back,instructions\back-1.png,conditions\12back-e.xlsx,,,experiment,1,1,stim\yellow.png,stim\gray.png,stim\gray.png,stim\gray.png,left,,,,,,,,,,,,,0,0,0,6,0,16,16,16,,,,,,,,,,,,,,,,,,,,,,,,,,,,,,,,,,,,,,,,,,,,,,,,,,,,,,,,left,1,204.00042569998186,None,204.00042569998186,None,204.00042569998186,205.00319209997542,204.00042569998186,205.00319209997542,204.00042569998186,205.00319209997542,204.00042569998186,205.00319209997542,204.00042569998186,204.50229969999054,204.00042569998186,204.50229969999054,204.00042569998186,204.50229969999054,204.00042569998186,204.50229969999054,204.00042569998186,None,0.20243140001548454,,,,,12002,001,2024_Jun_02_1812,nback,2021.2.3,59.580659421210505,
1-back,instructions\back-1.png,conditions\12back-e.xlsx,,,experiment,1,3,stim\gray.png,stim\gray.png,stim\yellow.png,stim\gray.png,up,,,,,,,,,,,,,0,0,0,6,0,17,17,17,,,,,,,,,,,,,,,,,,,,,,,,,,,,,,,,,,,,,,,,,,,,,,,,,,,,,,,,up,1,205.5026769999531,None,205.5026769999531,None,205.5026769999531,206.5060432999744,205.5026769999531,206.5060432999744,205.5026769999531,206.5060432999744,205.5026769999531,206.5060432999744,205.5026769999531,206.00470109999878,205.5026769999531,206.00470109999878,205.5026769999531,206.00470109999878,205.5026769999531,206.00470109999878,205.5026769999531,None,0.324032399978023,,,,,12002,001,2024_Jun_02_1812,nback,2021.2.3,59.580659421210505,
1-back,instructions\back-1.png,conditions\12back-e.xlsx,,,experiment,1,2,stim\gray.png,stim\yellow.png,stim\gray.png,stim\gray.png,right,,,,,,,,,,,,,0,0,0,6,0,18,18,18,,,,,,,,,,,,,,,,,,,,,,,,,,,,,,,,,,,,,,,,,,,,,,,,,,,,,,,,right,1,207.00474509998458,None,207.00474509998458,None,207.00474509998458,208.00749979994725,207.00474509998458,208.00749979994725,207.00474509998458,208.00749979994725,207.00474509998458,208.00749979994725,207.00474509998458,207.50697749998653,207.00474509998458,207.50697749998653,207.00474509998458,207.50697749998653,207.00474509998458,207.50697749998653,207.00474509998458,None,0.2861782000400126,,,,,12002,001,2024_Jun_02_1812,nback,2021.2.3,59.580659421210505,
1-back,instructions\back-1.png,conditions\12back-e.xlsx,,,experiment,1,4,stim\gray.png,stim\gray.png,stim\gray.png,stim\yellow.png,left,,,,,,,,,,,,,0,0,0,6,0,19,19,19,,,,,,,,,,,,,,,,,,,,,,,,,,,,,,,,,,,,,,,,,,,,,,,,,,,,,,,,left,1,208.525628399977,None,208.525628399977,None,208.525628399977,209.5267328999471,208.525628399977,209.5267328999471,208.525628399977,209.5267328999471,208.525628399977,209.5267328999471,208.525628399977,209.0258725999738,208.525628399977,209.0258725999738,208.525628399977,209.0258725999738,208.525628399977,209.0258725999738,208.525628399977,None,0.1895663000177592,,,,,12002,001,2024_Jun_02_1812,nback,2021.2.3,59.580659421210505,
1-back,instructions\back-1.png,conditions\12back-e.xlsx,,,,,,,,,,,,,,,,,,,,,,,0,0,0,6,,,,,,,,,,,,,,,,,,,,,,,,,,,,,,,,,,,,,,,,,,,,,,,,,,,,,,,,,,,,,,,,,,,,,,,,,,,,,,,,,,,,,210.0107480000006,None,,,12002,001,2024_Jun_02_1812,nback,2021.2.3,59.580659421210505,
2-back,instructions\back-2.png,conditions\20back-e.xlsx,,,experiment,2,2,stim\gray.png,stim\yellow.png,stim\gray.png,stim\gray.png,None,,,,,,,,,,,,,0,1,1,2,0,0,0,0,,,,,,,,,,,,,,,211.1614870999474,215.6692848999519,215.63556019996759,None,,,,,,,,,,,,,,,,,,,,,,,,,,,,,,,,,,,,,,None,1,216.0520052999491,None,216.0520052999491,None,216.0520052999491,217.05475619999925,216.0520052999491,217.05475619999925,216.0520052999491,217.05475619999925,216.0520052999491,217.05475619999925,216.0520052999491,216.55346849997295,216.0520052999491,216.55346849997295,216.0520052999491,216.55346849997295,216.0520052999491,216.55346849997295,216.0520052999491,None,,,,,,12002,001,2024_Jun_02_1812,nback,2021.2.3,59.580659421210505,
2-back,instructions\back-2.png,conditions\20back-e.xlsx,,,experiment,2,1,stim\yellow.png,stim\gray.png,stim\gray.png,stim\gray.png,None,,,,,,,,,,,,,0,1,1,2,0,1,1,1,,,,,,,,,,,,,,,,,,,,,,,,,,,,,,,,,,,,,,,,,,,,,,,,,,,,,,,,None,1,217.50552839995362,None,217.50552839995362,None,217.50552839995362,218.50677079998422,217.50552839995362,218.50677079998422,217.50552839995362,218.50677079998422,217.50552839995362,218.50677079998422,217.50552839995362,218.00606139999582,217.50552839995362,218.00606139999582,217.50552839995362,218.00606139999582,217.50552839995362,218.00606139999582,217.50552839995362,None,,,,,,12002,001,2024_Jun_02_1812,nback,2021.2.3,59.580659421210505,
2-back,instructions\back-2.png,conditions\20back-e.xlsx,,,experiment,2,4,stim\gray.png,stim\gray.png,stim\gray.png,stim\yellow.png,left,,,,,,,,,,,,,0,1,1,2,0,2,2,2,,,,,,,,,,,,,,,,,,,,,,,,,,,,,,,,,,,,,,,,,,,,,,,,,,,,,,,,left,1,219.00721579999663,None,219.00721579999663,None,219.00721579999663,220.00906639994355,219.00721579999663,220.00906639994355,219.00721579999663,220.00906639994355,219.00721579999663,220.00906639994355,219.00721579999663,219.50841369997943,219.00721579999663,219.50841369997943,219.00721579999663,219.50841369997943,219.00721579999663,219.50841369997943,219.00721579999663,None,0.3246017000055872,,,,,12002,001,2024_Jun_02_1812,nback,2021.2.3,59.580659421210505,
2-back,instructions\back-2.png,conditions\20back-e.xlsx,,,experiment,2,3,stim\gray.png,stim\gray.png,stim\yellow.png,stim\gray.png,up,,,,,,,,,,,,,0,1,1,2,0,3,3,3,,,,,,,,,,,,,,,,,,,,,,,,,,,,,,,,,,,,,,,,,,,,,,,,,,,,,,,,up,1,220.52676799998153,None,220.52676799998153,None,220.52676799998153,221.5281475999509,220.52676799998153,221.5281475999509,220.52676799998153,221.5281475999509,220.52676799998153,221.5281475999509,220.52676799998153,221.02708079997683,220.52676799998153,221.02708079997683,220.52676799998153,221.02708079997683,220.52676799998153,221.02708079997683,220.52676799998153,None,0.31720099999802187,,,,,12002,001,2024_Jun_02_1812,nback,2021.2.3,59.580659421210505,
2-back,instructions\back-2.png,conditions\20back-e.xlsx,,,experiment,2,1,stim\yellow.png,stim\gray.png,stim\gray.png,stim\gray.png,down,,,,,,,,,,,,,0,1,1,2,0,4,4,4,,,,,,,,,,,,,,,,,,,,,,,,,,,,,,,,,,,,,,,,,,,,,,,,,,,,,,,,down,1,221.994336499949,None,221.994336499949,None,221.994336499949,222.99701709998772,221.994336499949,222.99701709998772,221.994336499949,222.99701709998772,221.994336499949,222.99701709998772,221.994336499949,222.4961283999728,221.994336499949,222.4961283999728,221.994336499949,222.4961283999728,221.994336499949,222.4961283999728,221.994336499949,None,0.3607139000087045,,,,,12002,001,2024_Jun_02_1812,nback,2021.2.3,59.580659421210505,
2-back,instructions\back-2.png,conditions\20back-e.xlsx,,,experiment,2,2,stim\gray.png,stim\yellow.png,stim\gray.png,stim\gray.png,right,,,,,,,,,,,,,0,1,1,2,0,5,5,5,,,,,,,,,,,,,,,,,,,,,,,,,,,,,,,,,,,,,,,,,,,,,,,,,,,,,,,,right,1,223.4964662999846,None,223.4964662999846,None,223.4964662999846,224.49847409996437,223.4964662999846,224.49847409996437,223.4964662999846,224.49847409996437,223.4964662999846,224.49847409996437,223.4964662999846,223.99833889998263,223.4964662999846,223.99833889998263,223.4964662999846,223.99833889998263,223.4964662999846,223.99833889998263,223.4964662999846,None,0.2747271000407636,,,,,12002,001,2024_Jun_02_1812,nback,2021.2.3,59.580659421210505,
2-back,instructions\back-2.png,conditions\20back-e.xlsx,,,experiment,2,3,stim\gray.png,stim\gray.png,stim\yellow.png,stim\gray.png,up,,,,,,,,,,,,,0,1,1,2,0,6,6,6,,,,,,,,,,,,,,,,,,,,,,,,,,,,,,,,,,,,,,,,,,,,,,,,,,,,,,,,up,1,224.99880169995595,None,224.99880169995595,None,224.99880169995595,226.00140249996912,224.99880169995595,226.00140249996912,224.99880169995595,226.00140249996912,224.99880169995595,226.00140249996912,224.99880169995595,225.5006338999956,224.99880169995595,225.5006338999956,224.99880169995595,225.5006338999956,224.99880169995595,225.5006338999956,224.99880169995595,None,0.3243811000138521,,,,,12002,001,2024_Jun_02_1812,nback,2021.2.3,59.580659421210505,
2-back,instructions\back-2.png,conditions\20back-e.xlsx,,,experiment,2,4,stim\gray.png,stim\gray.png,stim\gray.png,stim\yellow.png,left,,,,,,,,,,,,,0,1,1,2,0,7,7,7,,,,,,,,,,,,,,,,,,,,,,,,,,,,,,,,,,,,,,,,,,,,,,,,,,,,,,,,left,1,226.51897699997062,None,226.51897699997062,None,226.51897699997062,227.52046709996648,226.51897699997062,227.52046709996648,226.51897699997062,227.52046709996648,226.51897699997062,227.52046709996648,226.51897699997062,227.01937669998733,226.51897699997062,227.01937669998733,226.51897699997062,227.01937669998733,226.51897699997062,227.01937669998733,226.51897699997062,None,0.3250355999916792,,,,,12002,001,2024_Jun_02_1812,nback,2021.2.3,59.580659421210505,
2-back,instructions\back-2.png,conditions\20back-e.xlsx,,,experiment,2,3,stim\gray.png,stim\gray.png,stim\yellow.png,stim\gray.png,right,,,,,,,,,,,,,0,1,1,2,0,8,8,8,,,,,,,,,,,,,,,,,,,,,,,,,,,,,,,,,,,,,,,,,,,,,,,,,,,,,,,,right,1,228.00327349995496,None,228.00327349995496,None,228.00327349995496,229.0057677999721,228.00327349995496,229.0057677999721,228.00327349995496,229.0057677999721,228.00327349995496,229.0057677999721,228.00327349995496,228.50480449997121,228.00327349995496,228.50480449997121,228.00327349995496,228.50480449997121,228.00327349995496,228.50480449997121,228.00327349995496,None,0.3119738000095822,,,,,12002,001,2024_Jun_02_1812,nback,2021.2.3,59.580659421210505,
2-back,instructions\back-2.png,conditions\20back-e.xlsx,,,experiment,2,4,stim\gray.png,stim\gray.png,stim\gray.png,stim\yellow.png,down,,,,,,,,,,,,,0,1,1,2,0,9,9,9,,,,,,,,,,,,,,,,,,,,,,,,,,,,,,,,,,,,,,,,,,,,,,,,,,,,,,,,down,1,229.50539969996316,None,229.50539969996316,None,229.50539969996316,230.50739599997178,229.50539969996316,230.50739599997178,229.50539969996316,230.50739599997178,229.50539969996316,230.50739599997178,229.50539969996316,230.00767599995015,229.50539969996316,230.00767599995015,229.50539969996316,230.00767599995015,229.50539969996316,230.00767599995015,229.50539969996316,None,0.2507595000206493,,,,,12002,001,2024_Jun_02_1812,nback,2021.2.3,59.580659421210505,
2-back,instructions\back-2.png,conditions\20back-e.xlsx,,,experiment,2,1,stim\yellow.png,stim\gray.png,stim\gray.png,stim\gray.png,right,,,,,,,,,,,,,0,1,1,2,0,10,10,10,,,,,,,,,,,,,,,,,,,,,,,,,,,,,,,,,,,,,,,,,,,,,,,,,,,,,,,,right,1,231.0084292999818,None,231.0084292999818,None,231.0084292999818,232.01049799995963,231.0084292999818,232.01049799995963,231.0084292999818,232.01049799995963,231.0084292999818,232.01049799995963,231.0084292999818,231.50887749996036,231.0084292999818,231.50887749996036,231.0084292999818,231.50887749996036,231.0084292999818,231.50887749996036,231.0084292999818,None,0.3390229999786243,,,,,12002,001,2024_Jun_02_1812,nback,2021.2.3,59.580659421210505,
2-back,instructions\back-2.png,conditions\20back-e.xlsx,,,experiment,2,2,stim\gray.png,stim\yellow.png,stim\gray.png,stim\gray.png,down,,,,,,,,,,,,,0,1,1,2,0,11,11,11,,,,,,,,,,,,,,,,,,,,,,,,,,,,,,,,,,,,,,,,,,,,,,,,,,,,,,,,down,1,232.49345569999423,None,232.49345569999423,None,232.49345569999423,233.4961363999755,232.49345569999423,233.4961363999755,232.49345569999423,233.4961363999755,232.49345569999423,233.4961363999755,232.49345569999423,232.99512809998123,232.49345569999423,232.99512809998123,232.49345569999423,232.99512809998123,232.49345569999423,232.99512809998123,232.49345569999423,None,0.3185358000337146,,,,,12002,001,2024_Jun_02_1812,nback,2021.2.3,59.580659421210505,
2-back,instructions\back-2.png,conditions\20back-e.xlsx,,,experiment,2,3,stim\gray.png,stim\gray.png,stim\yellow.png,stim\gray.png,up,,,,,,,,,,,,,0,1,1,2,0,12,12,12,,,,,,,,,,,,,,,,,,,,,,,,,,,,,,,,,,,,,,,,,,,,,,,,,,,,,,,,up,1,233.99567779997597,None,233.99567779997597,None,233.99567779997597,234.99832349998178,233.99567779997597,234.99832349998178,233.99567779997597,234.99832349998178,233.99567779997597,234.99832349998178,233.99567779997597,234.49769829999423,233.99567779997597,234.49769829999423,233.99567779997597,234.49769829999423,233.99567779997597,234.49769829999423,233.99567779997597,None,0.2796682000043802,,,,,12002,001,2024_Jun_02_1812,nback,2021.2.3,59.580659421210505,
2-back,instructions\back-2.png,conditions\20back-e.xlsx,,,experiment,2,1,stim\yellow.png,stim\gray.png,stim\gray.png,stim\gray.png,left,,,,,,,,,,,,,0,1,1,2,0,13,13,13,,,,,,,,,,,,,,,,,,,,,,,,,,,,,,,,,,,,,,,,,,,,,,,,,,,,,,,,left,1,235.4981731000007,None,235.4981731000007,None,235.4981731000007,236.50072999997064,235.4981731000007,236.50072999997064,235.4981731000007,236.50072999997064,235.4981731000007,236.50072999997064,235.4981731000007,235.99952799995663,235.4981731000007,235.99952799995663,235.4981731000007,235.99952799995663,235.4981731000007,235.99952799995663,235.4981731000007,None,0.3693048999994062,,,,,12002,001,2024_Jun_02_1812,nback,2021.2.3,59.580659421210505,
2-back,instructions\back-2.png,conditions\20back-e.xlsx,,,experiment,2,4,stim\gray.png,stim\gray.png,stim\gray.png,stim\yellow.png,right,,,,,,,,,,,,,0,1,1,2,0,14,14,14,,,,,,,,,,,,,,,,,,,,,,,,,,,,,,,,,,,,,,,,,,,,,,,,,,,,,,,,right,1,237.00014809996355,None,237.00014809996355,None,237.00014809996355,238.0031258999952,237.00014809996355,238.0031258999952,237.00014809996355,238.0031258999952,237.00014809996355,238.0031258999952,237.00014809996355,237.50216289999662,237.00014809996355,237.50216289999662,237.00014809996355,237.50216289999662,237.00014809996355,237.50216289999662,237.00014809996355,None,0.3872871999628842,,,,,12002,001,2024_Jun_02_1812,nback,2021.2.3,59.580659421210505,
2-back,instructions\back-2.png,conditions\20back-e.xlsx,,,experiment,2,2,stim\gray.png,stim\yellow.png,stim\gray.png,stim\gray.png,up,,,,,,,,,,,,,0,1,1,2,0,15,15,15,,,,,,,,,,,,,,,,,,,,,,,,,,,,,,,,,,,,,,,,,,,,,,,,,,,,,,,,up,1,238.50231539999368,None,238.50231539999368,None,238.50231539999368,239.5051065000007,238.50231539999368,239.5051065000007,238.50231539999368,239.5051065000007,238.50231539999368,239.5051065000007,238.50231539999368,239.0044019999914,238.50231539999368,239.0044019999914,238.50231539999368,239.0044019999914,238.50231539999368,239.0044019999914,238.50231539999368,None,0.47731950000161305,,,,,12002,001,2024_Jun_02_1812,nback,2021.2.3,59.580659421210505,
2-back,instructions\back-2.png,conditions\20back-e.xlsx,,,experiment,2,4,stim\gray.png,stim\gray.png,stim\gray.png,stim\yellow.png,down,,,,,,,,,,,,,0,1,1,2,0,16,16,16,,,,,,,,,,,,,,,,,,,,,,,,,,,,,,,,,,,,,,,,,,,,,,,,,,,,,,,,down,1,240.00452550000045,None,240.00452550000045,None,240.00452550000045,241.00736999994842,240.00452550000045,241.00736999994842,240.00452550000045,241.00736999994842,240.00452550000045,241.00736999994842,240.00452550000045,240.50562249997165,240.00452550000045,240.50562249997165,240.00452550000045,240.50562249997165,240.00452550000045,240.50562249997165,240.00452550000045,None,0.39971349999541417,,,,,12002,001,2024_Jun_02_1812,nback,2021.2.3,59.580659421210505,
2-back,instructions\back-2.png,conditions\20back-e.xlsx,,,experiment,2,3,stim\gray.png,stim\gray.png,stim\yellow.png,stim\gray.png,left,,,,,,,,,,,,,0,1,1,2,0,17,17,17,,,,,,,,,,,,,,,,,,,,,,,,,,,,,,,,,,,,,,,,,,,,,,,,,,,,,,,,left,1,241.5076502999873,None,241.5076502999873,None,241.5076502999873,242.50969519995851,241.5076502999873,242.50969519995851,241.5076502999873,242.50969519995851,241.5076502999873,242.50969519995851,241.5076502999873,242.009022299957,241.5076502999873,242.009022299957,241.5076502999873,242.009022299957,241.5076502999873,242.009022299957,241.5076502999873,None,0.5040674000047147,,,,,12002,001,2024_Jun_02_1812,nback,2021.2.3,59.580659421210505,
2-back,instructions\back-2.png,conditions\20back-e.xlsx,,,experiment,2,1,stim\yellow.png,stim\gray.png,stim\gray.png,stim\gray.png,down,,,,,,,,,,,,,0,1,1,2,0,18,18,18,,,,,,,,,,,,,,,,,,,,,,,,,,,,,,,,,,,,,,,,,,,,,,,,,,,,,,,,down,1,243.00928959995508,None,243.00928959995508,None,243.00928959995508,244.01205029996345,243.00928959995508,244.01205029996345,243.00928959995508,244.01205029996345,243.00928959995508,244.01205029996345,243.00928959995508,243.51107929996215,243.00928959995508,243.51107929996215,243.00928959995508,243.51107929996215,243.00928959995508,243.51107929996215,243.00928959995508,None,0.6264038999797776,,,,,12002,001,2024_Jun_02_1812,nback,2021.2.3,59.580659421210505,
2-back,instructions\back-2.png,conditions\20back-e.xlsx,,,experiment,2,2,stim\gray.png,stim\yellow.png,stim\gray.png,stim\gray.png,right,,,,,,,,,,,,,0,1,1,2,0,19,19,19,,,,,,,,,,,,,,,,,,,,,,,,,,,,,,,,,,,,,,,,,,,,,,,,,,,,,,,,right,1,244.4949653999647,None,244.4949653999647,None,244.4949653999647,245.49757979996502,244.4949653999647,245.49757979996502,244.4949653999647,245.49757979996502,244.4949653999647,245.49757979996502,244.4949653999647,244.996519599983,244.4949653999647,244.996519599983,244.4949653999647,244.996519599983,244.4949653999647,244.996519599983,244.4949653999647,None,0.4286971999681555,,,,,12002,001,2024_Jun_02_1812,nback,2021.2.3,59.580659421210505,
2-back,instructions\back-2.png,conditions\20back-e.xlsx,,,,,,,,,,,,,,,,,,,,,,,0,1,1,2,,,,,,,,,,,,,,,,,,,,,,,,,,,,,,,,,,,,,,,,,,,,,,,,,,,,,,,,,,,,,,,,,,,,,,,,,,,,,,,,,,,,,245.99828329996672,None,,,12002,001,2024_Jun_02_1812,nback,2021.2.3,59.580659421210505,
0-back,instructions\back-0.png,conditions\00back-e.xlsx,,,experiment,0,3,stim\gray.png,stim\gray.png,stim\yellow.png,stim\gray.png,right,,,,,,,,,,,,,0,2,2,0,0,0,0,0,,,,,,,,,,,,,,,247.16575849999208,251.67335219995584,251.6391835999675,None,,,,,,,,,,,,,,,,,,,,,,,,,,,,,,,,,,,,,,right,1,252.05698619998293,None,252.05698619998293,None,252.05698619998293,253.05897359998198,252.05698619998293,253.05897359998198,252.05698619998293,253.05897359998198,252.05698619998293,253.05897359998198,252.05698619998293,252.55771049996838,252.05698619998293,252.55771049996838,252.05698619998293,252.55771049996838,252.05698619998293,252.55771049996838,252.05698619998293,None,0.49929200002225116,,,,,12002,001,2024_Jun_02_1812,nback,2021.2.3,59.580659421210505,
0-back,instructions\back-0.png,conditions\00back-e.xlsx,,,experiment,0,4,stim\gray.png,stim\gray.png,stim\gray.png,stim\yellow.png,down,,,,,,,,,,,,,0,2,2,0,0,1,1,1,,,,,,,,,,,,,,,,,,,,,,,,,,,,,,,,,,,,,,,,,,,,,,,,,,,,,,,,down,1,253.5082895999658,None,253.5082895999658,None,253.5082895999658,254.51119439996546,253.5082895999658,254.51119439996546,253.5082895999658,254.51119439996546,253.5082895999658,254.51119439996546,253.5082895999658,254.0093272999511,253.5082895999658,254.0093272999511,253.5082895999658,254.0093272999511,253.5082895999658,254.0093272999511,253.5082895999658,None,0.41556589998072013,,,,,12002,001,2024_Jun_02_1812,nback,2021.2.3,59.580659421210505,
0-back,instructions\back-0.png,conditions\00back-e.xlsx,,,experiment,0,1,stim\yellow.png,stim\gray.png,stim\gray.png,stim\gray.png,up,,,,,,,,,,,,,0,2,2,0,0,2,2,2,,,,,,,,,,,,,,,,,,,,,,,,,,,,,,,,,,,,,,,,,,,,,,,,,,,,,,,,up,1,254.9938699999475,None,254.9938699999475,None,254.9938699999475,255.99653599999147,254.9938699999475,255.99653599999147,254.9938699999475,255.99653599999147,254.9938699999475,255.99653599999147,254.9938699999475,255.49490959994728,254.9938699999475,255.49490959994728,254.9938699999475,255.49490959994728,254.9938699999475,255.49490959994728,254.9938699999475,None,0.3781064000213519,,,,,12002,001,2024_Jun_02_1812,nback,2021.2.3,59.580659421210505,
0-back,instructions\back-0.png,conditions\00back-e.xlsx,,,experiment,0,2,stim\gray.png,stim\yellow.png,stim\gray.png,stim\gray.png,left,,,,,,,,,,,,,0,2,2,0,0,3,3,3,,,,,,,,,,,,,,,,,,,,,,,,,,,,,,,,,,,,,,,,,,,,,,,,,,,,,,,,left,1,256.5147693999461,None,256.5147693999461,None,256.5147693999461,257.51563339994755,256.5147693999461,257.51563339994755,256.5147693999461,257.51563339994755,256.5147693999461,257.51563339994755,256.5147693999461,257.01487059996,256.5147693999461,257.01487059996,256.5147693999461,257.01487059996,256.5147693999461,257.01487059996,256.5147693999461,None,0.31359199999133125,,,,,12002,001,2024_Jun_02_1812,nback,2021.2.3,59.580659421210505,
0-back,instructions\back-0.png,conditions\00back-e.xlsx,,,experiment,0,2,stim\gray.png,stim\yellow.png,stim\gray.png,stim\gray.png,left,,,,,,,,,,,,,0,2,2,0,0,4,4,4,,,,,,,,,,,,,,,,,,,,,,,,,,,,,,,,,,,,,,,,,,,,,,,,,,,,,,,,left,1,258.01680849998957,None,258.01680849998957,None,258.01680849998957,259.0177891999483,258.01680849998957,259.0177891999483,258.01680849998957,259.0177891999483,258.01680849998957,259.0177891999483,258.01680849998957,258.51673579995986,258.01680849998957,258.51673579995986,258.01680849998957,258.51673579995986,258.01680849998957,258.51673579995986,258.01680849998957,None,0.37935759994434193,,,,,12002,001,2024_Jun_02_1812,nback,2021.2.3,59.580659421210505,
0-back,instructions\back-0.png,conditions\00back-e.xlsx,,,experiment,0,1,stim\yellow.png,stim\gray.png,stim\gray.png,stim\gray.png,up,,,,,,,,,,,,,0,2,2,0,0,5,5,5,,,,,,,,,,,,,,,,,,,,,,,,,,,,,,,,,,,,,,,,,,,,,,,,,,,,,,,,up,1,259.500734799949,None,259.500734799949,None,259.500734799949,260.5032622999861,259.500734799949,260.5032622999861,259.500734799949,260.5032622999861,259.500734799949,260.5032622999861,259.500734799949,260.0024854999501,259.500734799949,260.0024854999501,259.500734799949,260.0024854999501,259.500734799949,260.0024854999501,259.500734799949,None,0.36790439998731017,,,,,12002,001,2024_Jun_02_1812,nback,2021.2.3,59.580659421210505,
0-back,instructions\back-0.png,conditions\00back-e.xlsx,,,experiment,0,4,stim\gray.png,stim\gray.png,stim\gray.png,stim\yellow.png,down,,,,,,,,,,,,,0,2,2,0,0,6,6,6,,,,,,,,,,,,,,,,,,,,,,,,,,,,,,,,,,,,,,,,,,,,,,,,,,,,,,,,down,1,261.0214256999898,None,261.0214256999898,None,261.0214256999898,262.0221318999538,261.0214256999898,262.0221318999538,261.0214256999898,262.0221318999538,261.0214256999898,262.0221318999538,261.0214256999898,261.5215673999628,261.0214256999898,261.5215673999628,261.0214256999898,261.5215673999628,261.0214256999898,261.5215673999628,261.0214256999898,None,0.38296750001609325,,,,,12002,001,2024_Jun_02_1812,nback,2021.2.3,59.580659421210505,
0-back,instructions\back-0.png,conditions\00back-e.xlsx,,,experiment,0,3,stim\gray.png,stim\gray.png,stim\yellow.png,stim\gray.png,right,,,,,,,,,,,,,0,2,2,0,0,7,7,7,,,,,,,,,,,,,,,,,,,,,,,,,,,,,,,,,,,,,,,,,,,,,,,,,,,,,,,,right,1,262.5066686999635,None,262.5066686999635,None,262.5066686999635,263.5080659999512,262.5066686999635,263.5080659999512,262.5066686999635,263.5080659999512,262.5066686999635,263.5080659999512,262.5066686999635,263.007262399944,262.5066686999635,263.007262399944,262.5066686999635,263.007262399944,262.5066686999635,263.007262399944,262.5066686999635,None,0.3460655999951996,,,,,12002,001,2024_Jun_02_1812,nback,2021.2.3,59.580659421210505,
0-back,instructions\back-0.png,conditions\00back-e.xlsx,,,experiment,0,4,stim\gray.png,stim\gray.png,stim\gray.png,stim\yellow.png,down,,,,,,,,,,,,,0,2,2,0,0,8,8,8,,,,,,,,,,,,,,,,,,,,,,,,,,,,,,,,,,,,,,,,,,,,,,,,,,,,,,,,down,1,264.02598869998474,None,264.02598869998474,None,264.02598869998474,265.0269617999438,264.02598869998474,265.0269617999438,264.02598869998474,265.0269617999438,264.02598869998474,265.0269617999438,264.02598869998474,264.5261550999712,264.02598869998474,264.5261550999712,264.02598869998474,264.5261550999712,264.02598869998474,264.5261550999712,264.02598869998474,None,0.4824683000333607,,,,,12002,001,2024_Jun_02_1812,nback,2021.2.3,59.580659421210505,
0-back,instructions\back-0.png,conditions\00back-e.xlsx,,,experiment,0,3,stim\gray.png,stim\gray.png,stim\yellow.png,stim\gray.png,right,,,,,,,,,,,,,0,2,2,0,0,9,9,9,,,,,,,,,,,,,,,,,,,,,,,,,,,,,,,,,,,,,,,,,,,,,,,,,,,,,,,,right,1,265.49305379996076,None,265.49305379996076,None,265.49305379996076,266.49581389996456,265.49305379996076,266.49581389996456,265.49305379996076,266.49581389996456,265.49305379996076,266.49581389996456,265.49305379996076,265.995080099965,265.49305379996076,265.995080099965,265.49305379996076,265.995080099965,265.49305379996076,265.995080099965,265.49305379996076,None,0.3680383000173606,,,,,12002,001,2024_Jun_02_1812,nback,2021.2.3,59.580659421210505,
0-back,instructions\back-0.png,conditions\00back-e.xlsx,,,experiment,0,1,stim\yellow.png,stim\gray.png,stim\gray.png,stim\gray.png,up,,,,,,,,,,,,,0,2,2,0,0,10,10,10,,,,,,,,,,,,,,,,,,,,,,,,,,,,,,,,,,,,,,,,,,,,,,,,,,,,,,,,up,1,266.9953513999935,None,266.9953513999935,None,266.9953513999935,267.9981262999936,266.9953513999935,267.9981262999936,266.9953513999935,267.9981262999936,266.9953513999935,267.9981262999936,266.9953513999935,267.4974550999468,266.9953513999935,267.4974550999468,266.9953513999935,267.4974550999468,266.9953513999935,267.4974550999468,266.9953513999935,None,0.40140899998368695,,,,,12002,001,2024_Jun_02_1812,nback,2021.2.3,59.580659421210505,
0-back,instructions\back-0.png,conditions\00back-e.xlsx,,,experiment,0,2,stim\gray.png,stim\yellow.png,stim\gray.png,stim\gray.png,left,,,,,,,,,,,,,0,2,2,0,0,11,11,11,,,,,,,,,,,,,,,,,,,,,,,,,,,,,,,,,,,,,,,,,,,,,,,,,,,,,,,,left,1,268.4975304999971,None,268.4975304999971,None,268.4975304999971,269.4995119999512,268.4975304999971,269.4995119999512,268.4975304999971,269.4995119999512,268.4975304999971,269.4995119999512,268.4975304999971,268.99853829998756,268.4975304999971,268.99853829998756,268.4975304999971,268.99853829998756,268.4975304999971,268.99853829998756,268.4975304999971,None,0.267517400032375,,,,,12002,001,2024_Jun_02_1812,nback,2021.2.3,59.580659421210505,
0-back,instructions\back-0.png,conditions\00back-e.xlsx,,,experiment,0,3,stim\gray.png,stim\gray.png,stim\yellow.png,stim\gray.png,right,,,,,,,,,,,,,0,2,2,0,0,12,12,12,,,,,,,,,,,,,,,,,,,,,,,,,,,,,,,,,,,,,,,,,,,,,,,,,,,,,,,,right,1,270.0000245999545,None,270.0000245999545,None,270.0000245999545,271.00192039995454,270.0000245999545,271.00192039995454,270.0000245999545,271.00192039995454,270.0000245999545,271.00192039995454,270.0000245999545,270.50092149997363,270.0000245999545,270.50092149997363,270.0000245999545,270.50092149997363,270.0000245999545,270.50092149997363,270.0000245999545,None,0.3331447999808006,,,,,12002,001,2024_Jun_02_1812,nback,2021.2.3,59.580659421210505,
0-back,instructions\back-0.png,conditions\00back-e.xlsx,,,experiment,0,1,stim\yellow.png,stim\gray.png,stim\gray.png,stim\gray.png,up,,,,,,,,,,,,,0,2,2,0,0,13,13,13,,,,,,,,,,,,,,,,,,,,,,,,,,,,,,,,,,,,,,,,,,,,,,,,,,,,,,,,up,1,271.50217079999857,None,271.50217079999857,None,271.50217079999857,272.5051623999607,271.50217079999857,272.5051623999607,271.50217079999857,272.5051623999607,271.50217079999857,272.5051623999607,271.50217079999857,272.00389419996645,271.50217079999857,272.00389419996645,271.50217079999857,272.00389419996645,271.50217079999857,272.00389419996645,271.50217079999857,None,0.4463646999793127,,,,,12002,001,2024_Jun_02_1812,nback,2021.2.3,59.580659421210505,
0-back,instructions\back-0.png,conditions\00back-e.xlsx,,,experiment,0,4,stim\gray.png,stim\gray.png,stim\gray.png,stim\yellow.png,down,,,,,,,,,,,,,0,2,2,0,0,14,14,14,,,,,,,,,,,,,,,,,,,,,,,,,,,,,,,,,,,,,,,,,,,,,,,,,,,,,,,,down,1,273.0043420000002,None,273.0043420000002,None,273.0043420000002,274.007158399967,273.0043420000002,274.007158399967,273.0043420000002,274.007158399967,273.0043420000002,274.007158399967,273.0043420000002,273.5064540999592,273.0043420000002,273.5064540999592,273.0043420000002,273.5064540999592,273.0043420000002,273.5064540999592,273.0043420000002,None,0.48821820004377514,,,,,12002,001,2024_Jun_02_1812,nback,2021.2.3,59.580659421210505,
0-back,instructions\back-0.png,conditions\00back-e.xlsx,,,experiment,0,2,stim\gray.png,stim\yellow.png,stim\gray.png,stim\gray.png,left,,,,,,,,,,,,,0,2,2,0,0,15,15,15,,,,,,,,,,,,,,,,,,,,,,,,,,,,,,,,,,,,,,,,,,,,,,,,,,,,,,,,left,1,274.50696009997046,None,274.50696009997046,None,274.50696009997046,275.5095446999767,274.50696009997046,275.5095446999767,274.50696009997046,275.5095446999767,274.50696009997046,275.5095446999767,274.50696009997046,275.00832309998805,274.50696009997046,275.00832309998805,274.50696009997046,275.00832309998805,274.50696009997046,275.00832309998805,274.50696009997046,None,0.34544579999055713,,,,,12002,001,2024_Jun_02_1812,nback,2021.2.3,59.580659421210505,
0-back,instructions\back-0.png,conditions\00back-e.xlsx,,,experiment,0,1,stim\yellow.png,stim\gray.png,stim\gray.png,stim\gray.png,up,,,,,,,,,,,,,0,2,2,0,0,16,16,16,,,,,,,,,,,,,,,,,,,,,,,,,,,,,,,,,,,,,,,,,,,,,,,,,,,,,,,,up,1,276.00905239995336,None,276.00905239995336,None,276.00905239995336,277.01169659994775,276.00905239995336,277.01169659994775,276.00905239995336,277.01169659994775,276.00905239995336,277.01169659994775,276.00905239995336,276.5110265999683,276.00905239995336,276.5110265999683,276.00905239995336,276.5110265999683,276.00905239995336,276.5110265999683,276.00905239995336,None,0.33191550004994497,,,,,12002,001,2024_Jun_02_1812,nback,2021.2.3,59.580659421210505,
0-back,instructions\back-0.png,conditions\00back-e.xlsx,,,experiment,0,2,stim\gray.png,stim\yellow.png,stim\gray.png,stim\gray.png,left,,,,,,,,,,,,,0,2,2,0,0,17,17,17,,,,,,,,,,,,,,,,,,,,,,,,,,,,,,,,,,,,,,,,,,,,,,,,,,,,,,,,left,1,277.49447419994976,None,277.49447419994976,None,277.49447419994976,278.4971490999451,277.49447419994976,278.4971490999451,277.49447419994976,278.4971490999451,277.49447419994976,278.4971490999451,277.49447419994976,277.9960021000006,277.49447419994976,277.9960021000006,277.49447419994976,277.9960021000006,277.49447419994976,277.9960021000006,277.49447419994976,None,0.4461164000094868,,,,,12002,001,2024_Jun_02_1812,nback,2021.2.3,59.580659421210505,
0-back,instructions\back-0.png,conditions\00back-e.xlsx,,,experiment,0,3,stim\gray.png,stim\gray.png,stim\yellow.png,stim\gray.png,right,,,,,,,,,,,,,0,2,2,0,0,18,18,18,,,,,,,,,,,,,,,,,,,,,,,,,,,,,,,,,,,,,,,,,,,,,,,,,,,,,,,,right,1,279.01464399998076,None,279.01464399998076,None,279.01464399998076,280.0164614999667,279.01464399998076,280.0164614999667,279.01464399998076,280.0164614999667,279.01464399998076,280.0164614999667,279.01464399998076,279.5152225999627,279.01464399998076,279.5152225999627,279.01464399998076,279.5152225999627,279.01464399998076,279.5152225999627,279.01464399998076,None,0.3900198000483215,,,,,12002,001,2024_Jun_02_1812,nback,2021.2.3,59.580659421210505,
0-back,instructions\back-0.png,conditions\00back-e.xlsx,,,experiment,0,4,stim\gray.png,stim\gray.png,stim\gray.png,stim\yellow.png,down,,,,,,,,,,,,,0,2,2,0,0,19,19,19,,,,,,,,,,,,,,,,,,,,,,,,,,,,,,,,,,,,,,,,,,,,,,,,,,,,,,,,down,1,280.49897529999726,None,280.49897529999726,None,280.49897529999726,281.50177759997314,280.49897529999726,281.50177759997314,280.49897529999726,281.50177759997314,280.49897529999726,281.50177759997314,280.49897529999726,281.0011311999988,280.49897529999726,281.0011311999988,280.49897529999726,281.0011311999988,280.49897529999726,281.0011311999988,280.49897529999726,None,0.41807580000022426,,,,,12002,001,2024_Jun_02_1812,nback,2021.2.3,59.580659421210505,
0-back,instructions\back-0.png,conditions\00back-e.xlsx,,,,,,,,,,,,,,,,,,,,,,,0,2,2,0,,,,,,,,,,,,,,,,,,,,,,,,,,,,,,,,,,,,,,,,,,,,,,,,,,,,,,,,,,,,,,,,,,,,,,,,,,,,,,,,,,,,,282.00162080000155,None,,,12002,001,2024_Jun_02_1812,nback,2021.2.3,59.580659421210505,
2-back,instructions\back-2.png,conditions\22back-e.xlsx,,,experiment,2,2,stim\gray.png,stim\yellow.png,stim\gray.png,stim\gray.png,None,,,,,,,,,,,,,0,3,3,8,0,0,0,0,,,,,,,,,,,,,,,283.1703215999878,287.67787959997077,287.6443601999781,None,,,,,,,,,,,,,,,,,,,,,,,,,,,,,,,,,,,,,,None,1,288.04498329997296,None,288.04498329997296,None,288.04498329997296,289.04650999995647,288.04498329997296,289.04650999995647,288.04498329997296,289.04650999995647,288.04498329997296,289.04650999995647,288.04498329997296,288.5456724999822,288.04498329997296,288.5456724999822,288.04498329997296,288.5456724999822,288.04498329997296,288.5456724999822,288.04498329997296,None,,,,,,12002,001,2024_Jun_02_1812,nback,2021.2.3,59.580659421210505,
2-back,instructions\back-2.png,conditions\22back-e.xlsx,,,experiment,2,3,stim\gray.png,stim\gray.png,stim\yellow.png,stim\gray.png,None,,,,,,,,,,,,,0,3,3,8,0,1,1,1,,,,,,,,,,,,,,,,,,,,,,,,,,,,,,,,,,,,,,,,,,,,,,,,,,,,,,,,None,1,289.4959638,None,289.4959638,None,289.4959638,290.49835689994507,289.4959638,290.49835689994507,289.4959638,290.49835689994507,289.4959638,290.49835689994507,289.4959638,289.9979521999485,289.4959638,289.9979521999485,289.4959638,289.9979521999485,289.4959638,289.9979521999485,289.4959638,None,,,,,,12002,001,2024_Jun_02_1812,nback,2021.2.3,59.580659421210505,
2-back,instructions\back-2.png,conditions\22back-e.xlsx,,,experiment,2,1,stim\yellow.png,stim\gray.png,stim\gray.png,stim\gray.png,left,,,,,,,,,,,,,0,3,3,8,0,2,2,2,,,,,,,,,,,,,,,,,,,,,,,,,,,,,,,,,,,,,,,,,,,,,,,,,,,,,,,,left,1,290.9980436999467,None,290.9980436999467,None,290.9980436999467,292.00018999999156,290.9980436999467,292.00018999999156,290.9980436999467,292.00018999999156,290.9980436999467,292.00018999999156,290.9980436999467,291.50023269996746,290.9980436999467,291.50023269996746,290.9980436999467,291.50023269996746,290.9980436999467,291.50023269996746,290.9980436999467,None,0.3514115000143647,,,,,12002,001,2024_Jun_02_1812,nback,2021.2.3,59.580659421210505,
2-back,instructions\back-2.png,conditions\22back-e.xlsx,,,experiment,2,2,stim\gray.png,stim\yellow.png,stim\gray.png,stim\gray.png,right,,,,,,,,,,,,,0,3,3,8,0,3,3,3,,,,,,,,,,,,,,,,,,,,,,,,,,,,,,,,,,,,,,,,,,,,,,,,,,,,,,,,right,1,292.5187584999949,None,292.5187584999949,None,292.5187584999949,293.51998389995424,292.5187584999949,293.51998389995424,292.5187584999949,293.51998389995424,292.5187584999949,293.51998389995424,292.5187584999949,293.0193056999706,292.5187584999949,293.0193056999706,292.5187584999949,293.0193056999706,292.5187584999949,293.0193056999706,292.5187584999949,None,0.19904450001195073,,,,,12002,001,2024_Jun_02_1812,nback,2021.2.3,59.580659421210505,
2-back,instructions\back-2.png,conditions\22back-e.xlsx,,,experiment,2,1,stim\yellow.png,stim\gray.png,stim\gray.png,stim\gray.png,up,,,,,,,,,,,,,0,3,3,8,0,4,4,4,,,,,,,,,,,,,,,,,,,,,,,,,,,,,,,,,,,,,,,,,,,,,,,,,,,,,,,,up,1,294.02114739996614,None,294.02114739996614,None,294.02114739996614,295.02225319994614,294.02114739996614,295.02225319994614,294.02114739996614,295.02225319994614,294.02114739996614,295.02225319994614,294.02114739996614,294.52122389996657,294.02114739996614,294.52122389996657,294.02114739996614,294.52122389996657,294.02114739996614,294.52122389996657,294.02114739996614,None,0.15187290002359077,,,,,12002,001,2024_Jun_02_1812,nback,2021.2.3,59.580659421210505,
2-back,instructions\back-2.png,conditions\22back-e.xlsx,,,experiment,2,4,stim\gray.png,stim\gray.png,stim\gray.png,stim\yellow.png,left,,,,,,,,,,,,,0,3,3,8,0,5,5,5,,,,,,,,,,,,,,,,,,,,,,,,,,,,,,,,,,,,,,,,,,,,,,,,,,,,,,,,left,1,295.50520309997955,None,295.50520309997955,None,295.50520309997955,296.50776449998375,295.50520309997955,296.50776449998375,295.50520309997955,296.50776449998375,295.50520309997955,296.50776449998375,295.50520309997955,296.00682379998034,295.50520309997955,296.00682379998034,295.50520309997955,296.00682379998034,295.50520309997955,296.00682379998034,295.50520309997955,None,0.31610770005499944,,,,,12002,001,2024_Jun_02_1812,nback,2021.2.3,59.580659421210505,
2-back,instructions\back-2.png,conditions\22back-e.xlsx,,,experiment,2,3,stim\gray.png,stim\gray.png,stim\yellow.png,stim\gray.png,up,,,,,,,,,,,,,0,3,3,8,0,6,6,6,,,,,,,,,,,,,,,,,,,,,,,,,,,,,,,,,,,,,,,,,,,,,,,,,,,,,,,,up,1,297.0257827999885,None,297.0257827999885,None,297.0257827999885,298.02641039999435,297.0257827999885,298.02641039999435,297.0257827999885,298.02641039999435,297.0257827999885,298.02641039999435,297.0257827999885,297.5259121999843,297.0257827999885,297.5259121999843,297.0257827999885,297.5259121999843,297.0257827999885,297.5259121999843,297.0257827999885,None,0.2592790000489913,,,,,12002,001,2024_Jun_02_1812,nback,2021.2.3,59.580659421210505,
2-back,instructions\back-2.png,conditions\22back-e.xlsx,,,experiment,2,1,stim\yellow.png,stim\gray.png,stim\gray.png,stim\gray.png,down,,,,,,,,,,,,,0,3,3,8,0,7,7,7,,,,,,,,,,,,,,,,,,,,,,,,,,,,,,,,,,,,,,,,,,,,,,,,,,,,,,,,down,1,298.5105355999549,None,298.5105355999549,None,298.5105355999549,299.5121678999858,298.5105355999549,299.5121678999858,298.5105355999549,299.5121678999858,298.5105355999549,299.5121678999858,298.5105355999549,299.0115114999935,298.5105355999549,299.0115114999935,298.5105355999549,299.0115114999935,298.5105355999549,299.0115114999935,298.5105355999549,None,0.31857389997458085,,,,,12002,001,2024_Jun_02_1812,nback,2021.2.3,59.580659421210505,
2-back,instructions\back-2.png,conditions\22back-e.xlsx,,,experiment,2,2,stim\gray.png,stim\yellow.png,stim\gray.png,stim\gray.png,right,,,,,,,,,,,,,0,3,3,8,0,8,8,8,,,,,,,,,,,,,,,,,,,,,,,,,,,,,,,,,,,,,,,,,,,,,,,,,,,,,,,,right,1,299.9952209999901,None,299.9952209999901,None,299.9952209999901,300.99753449996933,299.9952209999901,300.99753449996933,299.9952209999901,300.99753449996933,299.9952209999901,300.99753449996933,299.9952209999901,300.4970398999867,299.9952209999901,300.4970398999867,299.9952209999901,300.4970398999867,299.9952209999901,300.4970398999867,299.9952209999901,None,0.36202240001875907,,,,,12002,001,2024_Jun_02_1812,nback,2021.2.3,59.580659421210505,
2-back,instructions\back-2.png,conditions\22back-e.xlsx,,,experiment,2,1,stim\yellow.png,stim\gray.png,stim\gray.png,stim\gray.png,up,,,,,,,,,,,,,0,3,3,8,0,9,9,9,,,,,,,,,,,,,,,,,,,,,,,,,,,,,,,,,,,,,,,,,,,,,,,,,,,,,,,,up,1,301.4972680999781,None,301.4972680999781,None,301.4972680999781,302.49902269995073,301.4972680999781,302.49902269995073,301.4972680999781,302.49902269995073,301.4972680999781,302.49902269995073,301.4972680999781,301.99878769996576,301.4972680999781,301.99878769996576,301.4972680999781,301.99878769996576,301.4972680999781,301.99878769996576,301.4972680999781,None,0.3243973999633454,,,,,12002,001,2024_Jun_02_1812,nback,2021.2.3,59.580659421210505,
2-back,instructions\back-2.png,conditions\22back-e.xlsx,,,experiment,2,4,stim\gray.png,stim\gray.png,stim\gray.png,stim\yellow.png,left,,,,,,,,,,,,,0,3,3,8,0,10,10,10,,,,,,,,,,,,,,,,,,,,,,,,,,,,,,,,,,,,,,,,,,,,,,,,,,,,,,,,left,1,303.00052089995006,None,303.00052089995006,None,303.00052089995006,304.00240159995155,303.00052089995006,304.00240159995155,303.00052089995006,304.00240159995155,303.00052089995006,304.00240159995155,303.00052089995006,303.5015302999527,303.00052089995006,303.5015302999527,303.00052089995006,303.5015302999527,303.00052089995006,303.5015302999527,303.00052089995006,None,0.3727639999706298,,,,,12002,001,2024_Jun_02_1812,nback,2021.2.3,59.580659421210505,
2-back,instructions\back-2.png,conditions\22back-e.xlsx,,,experiment,2,2,stim\gray.png,stim\yellow.png,stim\gray.png,stim\gray.png,up,,,,,,,,,,,,,0,3,3,8,0,11,11,11,,,,,,,,,,,,,,,,,,,,,,,,,,,,,,,,,,,,,,,,,,,,,,,,,,,,,,,,up,1,304.5019447999657,None,304.5019447999657,None,304.5019447999657,305.50499689998105,304.5019447999657,305.50499689998105,304.5019447999657,305.50499689998105,304.5019447999657,305.50499689998105,304.5019447999657,305.00389369996265,304.5019447999657,305.00389369996265,304.5019447999657,305.00389369996265,304.5019447999657,305.00389369996265,304.5019447999657,None,0.3914209999493323,,,,,12002,001,2024_Jun_02_1812,nback,2021.2.3,59.580659421210505,
2-back,instructions\back-2.png,conditions\22back-e.xlsx,,,experiment,2,4,stim\gray.png,stim\gray.png,stim\gray.png,stim\yellow.png,down,,,,,,,,,,,,,0,3,3,8,0,12,12,12,,,,,,,,,,,,,,,,,,,,,,,,,,,,,,,,,,,,,,,,,,,,,,,,,,,,,,,,down,1,306.022410399979,None,306.022410399979,None,306.022410399979,307.0236804999877,306.022410399979,307.0236804999877,306.022410399979,307.0236804999877,306.022410399979,307.0236804999877,306.022410399979,306.5229476999957,306.022410399979,306.5229476999957,306.022410399979,306.5229476999957,306.022410399979,306.5229476999957,306.022410399979,None,0.3510330999852158,,,,,12002,001,2024_Jun_02_1812,nback,2021.2.3,59.580659421210505,
2-back,instructions\back-2.png,conditions\22back-e.xlsx,,,experiment,2,3,stim\gray.png,stim\gray.png,stim\yellow.png,stim\gray.png,left,,,,,,,,,,,,,0,3,3,8,0,13,13,13,,,,,,,,,,,,,,,,,,,,,,,,,,,,,,,,,,,,,,,,,,,,,,,,,,,,,,,,left,1,307.5063390999567,None,307.5063390999567,None,307.5063390999567,308.50933139998233,307.5063390999567,308.50933139998233,307.5063390999567,308.50933139998233,307.5063390999567,308.50933139998233,307.5063390999567,308.0084341999609,307.5063390999567,308.0084341999609,307.5063390999567,308.0084341999609,307.5063390999567,308.0084341999609,307.5063390999567,None,0.29203419998520985,,,,,12002,001,2024_Jun_02_1812,nback,2021.2.3,59.580659421210505,
2-back,instructions\back-2.png,conditions\22back-e.xlsx,,,experiment,2,3,stim\gray.png,stim\gray.png,stim\yellow.png,stim\gray.png,down,,,,,,,,,,,,,0,3,3,8,0,14,14,14,,,,,,,,,,,,,,,,,,,,,,,,,,,,,,,,,,,,,,,,,,,,,,,,,,,,,,,,down,1,309.02720799995586,None,309.02720799995586,None,309.02720799995586,310.0277345999493,309.02720799995586,310.0277345999493,309.02720799995586,310.0277345999493,309.02720799995586,310.0277345999493,309.02720799995586,309.52744049998,309.02720799995586,309.52744049998,309.02720799995586,309.52744049998,309.02720799995586,309.52744049998,309.02720799995586,None,0.3305926999892108,,,,,12002,001,2024_Jun_02_1812,nback,2021.2.3,59.580659421210505,
2-back,instructions\back-2.png,conditions\22back-e.xlsx,,,experiment,2,4,stim\gray.png,stim\gray.png,stim\gray.png,stim\yellow.png,right,,,,,,,,,,,,,0,3,3,8,0,15,15,15,,,,,,,,,,,,,,,,,,,,,,,,,,,,,,,,,,,,,,,,,,,,,,,,,,,,,,,,right,1,310.51242619997356,None,310.51242619997356,None,310.51242619997356,311.5135450999951,310.51242619997356,311.5135450999951,310.51242619997356,311.5135450999951,310.51242619997356,311.5135450999951,310.51242619997356,311.0128847999731,310.51242619997356,311.0128847999731,310.51242619997356,311.0128847999731,310.51242619997356,311.0128847999731,310.51242619997356,None,0.30152380000799894,,,,,12002,001,2024_Jun_02_1812,nback,2021.2.3,59.580659421210505,
2-back,instructions\back-2.png,conditions\22back-e.xlsx,,,experiment,2,2,stim\gray.png,stim\yellow.png,stim\gray.png,stim\gray.png,right,,,,,,,,,,,,,0,3,3,8,0,16,16,16,,,,,,,,,,,,,,,,,,,,,,,,,,,,,,,,,,,,,,,,,,,,,,,,,,,,,,,,right,1,311.996723499964,None,311.996723499964,None,311.996723499964,312.9991450999514,311.996723499964,312.9991450999514,311.996723499964,312.9991450999514,311.996723499964,312.9991450999514,311.996723499964,312.49860249995254,311.996723499964,312.49860249995254,311.996723499964,312.49860249995254,311.996723499964,312.49860249995254,311.996723499964,None,0.26519180001923814,,,,,12002,001,2024_Jun_02_1812,nback,2021.2.3,59.580659421210505,
2-back,instructions\back-2.png,conditions\22back-e.xlsx,,,experiment,2,1,stim\yellow.png,stim\gray.png,stim\gray.png,stim\gray.png,down,,,,,,,,,,,,,0,3,3,8,0,17,17,17,,,,,,,,,,,,,,,,,,,,,,,,,,,,,,,,,,,,,,,,,,,,,,,,,,,,,,,,down,1,313.498706399987,None,313.498706399987,None,313.498706399987,314.5007427999517,313.498706399987,314.5007427999517,313.498706399987,314.5007427999517,313.498706399987,314.5007427999517,313.498706399987,313.9997119999607,313.498706399987,313.9997119999607,313.498706399987,313.9997119999607,313.498706399987,313.9997119999607,313.498706399987,None,0.3069135000114329,,,,,12002,001,2024_Jun_02_1812,nback,2021.2.3,59.580659421210505,
