backseq,backinstr,backfile,instruction,size_in,Trialtype,back,number,P1,P2,P3,P4,corrAns,trials_practice.thisRepN,trials_practice.thisTrialN,trials_practice.thisN,trials_practice.thisIndex,trials.thisRepN,trials.thisTrialN,trials.thisN,trials.thisIndex,trials_3.thisRepN,trials_3.thisTrialN,trials_3.thisN,trials_3.thisIndex,trials_2.thisRepN,trials_2.thisTrialN,trials_2.thisN,trials_2.thisIndex,trials_4.thisRepN,trials_4.thisTrialN,trials_4.thisN,trials_4.thisIndex,image.started,image.stopped,image_2.started,image_2.stopped,key_resp.keys,key_resp.rt,key_resp.started,key_resp.stopped,image_3.started,image_3.stopped,key_resp_2.keys,key_resp_2.rt,key_resp_2.started,key_resp_2.stopped,image_4.started,image_4.stopped,text.started,text.stopped,H1.started,H1.stopped,H2.started,H2.stopped,H3.started,H3.stopped,H4.started,H4.stopped,key_resp_3.keys,key_resp_3.corr,key_resp_3.rt,key_resp_3.started,key_resp_3.stopped,text_4.started,text_4.stopped,F1.started,F1.stopped,F2.started,F2.stopped,F3.started,F3.stopped,F4.started,F4.stopped,image_7.started,image_7.stopped,text_5.started,text_5.stopped,key_resp_6.keys,key_resp_6.rt,key_resp_6.started,key_resp_6.stopped,image_5.started,image_5.stopped,key_resp_4.keys,key_resp_4.rt,key_resp_4.started,key_resp_4.stopped,key_resp_5.keys,key_resp_5.corr,key_resp_5.rt,key_resp_5.started,key_resp_5.stopped,text_3.started,text_3.stopped,H1_2.started,H1_2.stopped,H2_2.started,H2_2.stopped,H3_2.started,H3_2.stopped,H4_2.started,H4_2.stopped,F1_2.started,F1_2.stopped,F2_2.started,F2_2.stopped,F3_2.started,F3_2.stopped,F4_2.started,F4_2.stopped,image_8.started,image_8.stopped,text_2.started,text_2.stopped,image_6.started,image_6.stopped,participant,session,date,expName,psychopyVersion,frameRate,
,,,,,,,,,,,,,,,,,,,,,,,,,,,,,,,,,10.885546699981205,None,11.820319999998901,None,space,1.6712842999841087,11.820319999998901,None,,,,,,,,,,,,,,,,,,,,,,,,,,,,,,,,,,,,,,,,,,,,,,,,,,,,,,,,,,,,,,,,,,,,,,,,,,,,,12003,001,2024_Jun_09_1427,nback,2021.2.3,60.10717107989499,
0-back,instructions\back-0.png,conditions\0back-p.xlsx,instructions\0-BACK.png,"(15, 8)",practice,0,1,stim\yellow.png,stim\gray.png,stim\gray.png,stim\gray.png,up,0,0,0,0,0,0,0,0,0,0,0,0,,,,,,,,,,,,,,,,,13.556145299982745,None,space,3.4794895999948494,13.556145299982745,None,17.213027299992973,21.71871139999712,21.668915799993556,None,22.135913599980995,23.137359699991066,22.135913599980995,23.137359699991066,22.135913599980995,23.137359699991066,22.135913599980995,23.137359699991066,up,1,0.5798061999958009,22.135913599980995,None,22.135913599980995,None,22.135913599980995,22.636662199976854,22.135913599980995,22.636662199976854,22.135913599980995,22.636662199976854,22.135913599980995,22.636662199976854,22.135913599980995,None,,,,,,,,,,,,,,,,,,,,,,,,,,,,,,,,,,,,,,,,,,12003,001,2024_Jun_09_1427,nback,2021.2.3,60.10717107989499,
0-back,instructions\back-0.png,conditions\0back-p.xlsx,instructions\0-BACK.png,"(15, 8)",practice,0,2,stim\gray.png,stim\yellow.png,stim\gray.png,stim\gray.png,left,0,0,0,0,0,0,0,0,0,1,1,1,,,,,,,,,,,,,,,,,,,,,,,,,,,23.57142069999827,24.572988500003703,23.57142069999827,24.572988500003703,23.57142069999827,24.572988500003703,23.57142069999827,24.572988500003703,left,1,0.48056859997450374,23.57142069999827,None,23.57142069999827,None,23.57142069999827,24.072073999996064,23.57142069999827,24.072073999996064,23.57142069999827,24.072073999996064,23.57142069999827,24.072073999996064,23.57142069999827,None,,,,,,,,,,,,,,,,,,,,,,,,,,,,,,,,,,,,,,,,,,12003,001,2024_Jun_09_1427,nback,2021.2.3,60.10717107989499,
0-back,instructions\back-0.png,conditions\0back-p.xlsx,instructions\0-BACK.png,"(15, 8)",practice,0,3,stim\gray.png,stim\gray.png,stim\yellow.png,stim\gray.png,right,0,0,0,0,0,0,0,0,0,2,2,2,,,,,,,,,,,,,,,,,,,,,,,,,,,25.07375349997892,26.07499110000208,25.07375349997892,26.07499110000208,25.07375349997892,26.07499110000208,25.07375349997892,26.07499110000208,right,1,0.4420133999956306,25.07375349997892,None,25.07375349997892,None,25.07375349997892,25.574566600000253,25.07375349997892,25.574566600000253,25.07375349997892,25.574566600000253,25.07375349997892,25.574566600000253,25.07375349997892,None,,,,,,,,,,,,,,,,,,,,,,,,,,,,,,,,,,,,,,,,,,12003,001,2024_Jun_09_1427,nback,2021.2.3,60.10717107989499,
0-back,instructions\back-0.png,conditions\0back-p.xlsx,instructions\0-BACK.png,"(15, 8)",practice,0,4,stim\gray.png,stim\gray.png,stim\gray.png,stim\yellow.png,down,0,0,0,0,0,0,0,0,0,3,3,3,,,,,,,,,,,,,,,,,,,,,,,,,,,26.576056499994593,27.57756919998792,26.576056499994593,27.57756919998792,26.576056499994593,27.57756919998792,26.576056499994593,27.57756919998792,down,1,0.5959366000024602,26.576056499994593,None,26.576056499994593,None,26.576056499994593,27.076992199989036,26.576056499994593,27.076992199989036,26.576056499994593,27.076992199989036,26.576056499994593,27.076992199989036,26.576056499994593,None,,,,,,,,,,,,,,,,,,,,,,,,,,,,,,,,,,,,,,,,,,12003,001,2024_Jun_09_1427,nback,2021.2.3,60.10717107989499,
0-back,instructions\back-0.png,conditions\0back-p.xlsx,instructions\0-BACK.png,"(15, 8)",practice,0,2,stim\gray.png,stim\yellow.png,stim\gray.png,stim\gray.png,left,0,0,0,0,0,0,0,0,0,4,4,4,,,,,,,,,,,,,,,,,,,,,,,,,,,28.078152799978852,29.080571400001645,28.078152799978852,29.080571400001645,28.078152799978852,29.080571400001645,28.078152799978852,29.080571400001645,left,1,0.45393079999485053,28.078152799978852,None,28.078152799978852,None,28.078152799978852,28.579014399991138,28.078152799978852,28.579014399991138,28.078152799978852,28.579014399991138,28.078152799978852,28.579014399991138,28.078152799978852,None,,,,,,,,,,,,,,,,,,,,,,,,,,,,,,,,,,,,,,,,,,12003,001,2024_Jun_09_1427,nback,2021.2.3,60.10717107989499,
0-back,instructions\back-0.png,conditions\0back-p.xlsx,instructions\0-BACK.png,"(15, 8)",practice,0,1,stim\yellow.png,stim\gray.png,stim\gray.png,stim\gray.png,up,0,0,0,0,0,0,0,0,0,5,5,5,,,,,,,,,,,,,,,,,,,,,,,,,,,29.58049939997727,30.582031899975846,29.58049939997727,30.582031899975846,29.58049939997727,30.582031899975846,29.58049939997727,30.582031899975846,up,1,0.37560699999448843,29.58049939997727,None,29.58049939997727,None,29.58049939997727,30.082018499990227,29.58049939997727,30.082018499990227,29.58049939997727,30.082018499990227,29.58049939997727,30.082018499990227,29.58049939997727,None,,,,,,,,,,,,,,,,,,,,,,,,,,,,,,,,,,,,,,,,,,12003,001,2024_Jun_09_1427,nback,2021.2.3,60.10717107989499,
0-back,instructions\back-0.png,conditions\0back-p.xlsx,instructions\0-BACK.png,"(15, 8)",practice,0,4,stim\gray.png,stim\gray.png,stim\gray.png,stim\yellow.png,down,0,0,0,0,0,0,0,0,0,6,6,6,,,,,,,,,,,,,,,,,,,,,,,,,,,31.06605349999154,32.06754129999899,31.06605349999154,32.06754129999899,31.06605349999154,32.06754129999899,31.06605349999154,32.06754129999899,down,1,0.4180867999966722,31.06605349999154,None,31.06605349999154,None,31.06605349999154,31.567167499975767,31.06605349999154,31.567167499975767,31.06605349999154,31.567167499975767,31.06605349999154,31.567167499975767,31.06605349999154,None,,,,,,,,,,,,,,,,,,,,,,,,,,,,,,,,,,,,,,,,,,12003,001,2024_Jun_09_1427,nback,2021.2.3,60.10717107989499,
0-back,instructions\back-0.png,conditions\0back-p.xlsx,instructions\0-BACK.png,"(15, 8)",practice,0,3,stim\gray.png,stim\gray.png,stim\yellow.png,stim\gray.png,right,0,0,0,0,0,0,0,0,0,7,7,7,,,,,,,,,,,,,,,,,,,,,,,,,,,32.5682902999979,33.57030130000203,32.5682902999979,33.57030130000203,32.5682902999979,33.57030130000203,32.5682902999979,33.57030130000203,right,1,0.38864119999925606,32.5682902999979,None,32.5682902999979,None,32.5682902999979,33.06975490000332,32.5682902999979,33.06975490000332,32.5682902999979,33.06975490000332,32.5682902999979,33.06975490000332,32.5682902999979,None,,,,,,,,,,,,,,,,,,,,,,,,,,,,,,,,,,,,,,,,,,12003,001,2024_Jun_09_1427,nback,2021.2.3,60.10717107989499,
0-back,instructions\back-0.png,conditions\0back-p.xlsx,instructions\0-BACK.png,"(15, 8)",practice,0,3,stim\gray.png,stim\gray.png,stim\yellow.png,stim\gray.png,right,0,0,0,0,0,0,0,0,0,8,8,8,,,,,,,,,,,,,,,,,,,,,,,,,,,34.070802000002004,35.07212349999463,34.070802000002004,35.07212349999463,34.070802000002004,35.07212349999463,34.070802000002004,35.07212349999463,right,1,0.3892301000014413,34.070802000002004,None,34.070802000002004,None,34.070802000002004,34.57170119998045,34.070802000002004,34.57170119998045,34.070802000002004,34.57170119998045,34.070802000002004,34.57170119998045,34.070802000002004,None,,,,,,,,,,,,,,,,,,,,,,,,,,,,,,,,,,,,,,,,,,12003,001,2024_Jun_09_1427,nback,2021.2.3,60.10717107989499,
0-back,instructions\back-0.png,conditions\0back-p.xlsx,instructions\0-BACK.png,"(15, 8)",practice,0,4,stim\gray.png,stim\gray.png,stim\gray.png,stim\yellow.png,down,0,0,0,0,0,0,0,0,0,9,9,9,,,,,,,,,,,,,,,,,,,,,,,,,,,35.57291950000217,36.57418759999564,35.57291950000217,36.57418759999564,35.57291950000217,36.57418759999564,35.57291950000217,36.57418759999564,down,1,0.5433087999990676,35.57291950000217,None,35.57291950000217,None,35.57291950000217,36.07394899998326,35.57291950000217,36.07394899998326,35.57291950000217,36.07394899998326,35.57291950000217,36.07394899998326,35.57291950000217,None,,,,,,,,,,,,,,,,,,,,,,,,,,,,,,,,,,,,,,,,,,12003,001,2024_Jun_09_1427,nback,2021.2.3,60.10717107989499,
0-back,instructions\back-0.png,conditions\0back-p.xlsx,instructions\0-BACK.png,"(15, 8)",practice,0,1,stim\yellow.png,stim\gray.png,stim\gray.png,stim\gray.png,up,0,0,0,0,0,0,0,0,0,10,10,10,,,,,,,,,,,,,,,,,,,,,,,,,,,37.07506239999202,38.07795489998534,37.07506239999202,38.07795489998534,37.07506239999202,38.07795489998534,37.07506239999202,38.07795489998534,up,1,0.32944729999871925,37.07506239999202,None,37.07506239999202,None,37.07506239999202,37.57586819998687,37.07506239999202,37.57586819998687,37.07506239999202,37.57586819998687,37.07506239999202,37.57586819998687,37.07506239999202,None,,,,,,,,,,,,,,,,,,,,,,,,,,,,,,,,,,,,,,,,,,12003,001,2024_Jun_09_1427,nback,2021.2.3,60.10717107989499,
0-back,instructions\back-0.png,conditions\0back-p.xlsx,instructions\0-BACK.png,"(15, 8)",practice,0,2,stim\gray.png,stim\yellow.png,stim\gray.png,stim\gray.png,left,0,0,0,0,0,0,0,0,0,11,11,11,,,,,,,,,,,,,,,,,,,,,,,,,,,38.577242799976375,39.57890110000153,38.577242799976375,39.57890110000153,38.577242799976375,39.57890110000153,38.577242799976375,39.57890110000153,left,1,0.38683669999591075,38.577242799976375,None,38.577242799976375,None,38.577242799976375,39.07815560000017,38.577242799976375,39.07815560000017,38.577242799976375,39.07815560000017,38.577242799976375,39.07815560000017,38.577242799976375,None,,,,,,,,,,,,,,,,,,,,,,,,,,,,,,,,,,,,,,,,,,12003,001,2024_Jun_09_1427,nback,2021.2.3,60.10717107989499,
0-back,instructions\back-0.png,conditions\0back-p.xlsx,instructions\0-BACK.png,"(15, 8)",practice,0,4,stim\gray.png,stim\gray.png,stim\gray.png,stim\yellow.png,down,0,0,0,0,0,0,0,0,0,12,12,12,,,,,,,,,,,,,,,,,,,,,,,,,,,40.07971339998767,41.08110989999841,40.07971339998767,41.08110989999841,40.07971339998767,41.08110989999841,40.07971339998767,41.08110989999841,down,1,0.37328130000969395,40.07971339998767,None,40.07971339998767,None,40.07971339998767,40.58036140000331,40.07971339998767,40.58036140000331,40.07971339998767,40.58036140000331,40.07971339998767,40.58036140000331,40.07971339998767,None,,,,,,,,,,,,,,,,,,,,,,,,,,,,,,,,,,,,,,,,,,12003,001,2024_Jun_09_1427,nback,2021.2.3,60.10717107989499,
0-back,instructions\back-0.png,conditions\0back-p.xlsx,instructions\0-BACK.png,"(15, 8)",practice,0,3,stim\gray.png,stim\gray.png,stim\yellow.png,stim\gray.png,right,0,0,0,0,0,0,0,0,0,13,13,13,,,,,,,,,,,,,,,,,,,,,,,,,,,41.58191660000011,42.58660700000473,41.58191660000011,42.58660700000473,41.58191660000011,42.58660700000473,41.58191660000011,42.58660700000473,right,1,0.3664502000028733,41.58191660000011,None,41.58191660000011,None,41.58191660000011,42.083713500003796,41.58191660000011,42.083713500003796,41.58191660000011,42.083713500003796,41.58191660000011,42.083713500003796,41.58191660000011,None,,,,,,,,,,,,,,,,,,,,,,,,,,,,,,,,,,,,,,,,,,12003,001,2024_Jun_09_1427,nback,2021.2.3,60.10717107989499,
0-back,instructions\back-0.png,conditions\0back-p.xlsx,instructions\0-BACK.png,"(15, 8)",practice,0,1,stim\yellow.png,stim\gray.png,stim\gray.png,stim\gray.png,up,0,0,0,0,0,0,0,0,0,14,14,14,,,,,,,,,,,,,,,,,,,,,,,,,,,43.067465100000845,44.069410700001754,43.067465100000845,44.069410700001754,43.067465100000845,44.069410700001754,43.067465100000845,44.069410700001754,up,1,0.36098539998056367,43.067465100000845,None,43.067465100000845,None,43.067465100000845,43.56962779999594,43.067465100000845,43.56962779999594,43.067465100000845,43.56962779999594,43.067465100000845,43.56962779999594,43.067465100000845,None,,,,,,,,,,,,,,,,,,,,,,,,,,,,,,,,,,,,,,,,,,12003,001,2024_Jun_09_1427,nback,2021.2.3,60.10717107989499,
0-back,instructions\back-0.png,conditions\0back-p.xlsx,instructions\0-BACK.png,"(15, 8)",practice,0,2,stim\gray.png,stim\yellow.png,stim\gray.png,stim\gray.png,left,0,0,0,0,0,0,0,0,0,15,15,15,,,,,,,,,,,,,,,,,,,,,,,,,,,44.56979300000239,45.571151999989524,44.56979300000239,45.571151999989524,44.56979300000239,45.571151999989524,44.56979300000239,45.571151999989524,left,1,0.32270630000857636,44.56979300000239,None,44.56979300000239,None,44.56979300000239,45.070771600003354,44.56979300000239,45.070771600003354,44.56979300000239,45.070771600003354,44.56979300000239,45.070771600003354,44.56979300000239,None,,,,,,,,,,,,,,,,,,,,,,,,,,,,,,,,,,,,,,,,,,12003,001,2024_Jun_09_1427,nback,2021.2.3,60.10717107989499,
0-back,instructions\back-0.png,conditions\0back-p.xlsx,instructions\0-BACK.png,"(15, 8)",practice,0,3,stim\gray.png,stim\gray.png,stim\yellow.png,stim\gray.png,right,0,0,0,0,0,0,0,0,0,16,16,16,,,,,,,,,,,,,,,,,,,,,,,,,,,46.07196609998937,47.07367189999786,46.07196609998937,47.07367189999786,46.07196609998937,47.07367189999786,46.07196609998937,47.07367189999786,right,1,0.25245830000494607,46.07196609998937,None,46.07196609998937,None,46.07196609998937,46.572781099996064,46.07196609998937,46.572781099996064,46.07196609998937,46.572781099996064,46.07196609998937,46.572781099996064,46.07196609998937,None,,,,,,,,,,,,,,,,,,,,,,,,,,,,,,,,,,,,,,,,,,12003,001,2024_Jun_09_1427,nback,2021.2.3,60.10717107989499,
0-back,instructions\back-0.png,conditions\0back-p.xlsx,instructions\0-BACK.png,"(15, 8)",practice,0,1,stim\yellow.png,stim\gray.png,stim\gray.png,stim\gray.png,up,0,0,0,0,0,0,0,0,0,17,17,17,,,,,,,,,,,,,,,,,,,,,,,,,,,47.57418139997753,48.57624909997685,47.57418139997753,48.57624909997685,47.57418139997753,48.57624909997685,47.57418139997753,48.57624909997685,up,1,0.3827255000069272,47.57418139997753,None,47.57418139997753,None,47.57418139997753,48.07553649999318,47.57418139997753,48.07553649999318,47.57418139997753,48.07553649999318,47.57418139997753,48.07553649999318,47.57418139997753,None,,,,,,,,,,,,,,,,,,,,,,,,,,,,,,,,,,,,,,,,,,12003,001,2024_Jun_09_1427,nback,2021.2.3,60.10717107989499,
0-back,instructions\back-0.png,conditions\0back-p.xlsx,instructions\0-BACK.png,"(15, 8)",practice,0,4,stim\gray.png,stim\gray.png,stim\gray.png,stim\yellow.png,down,0,0,0,0,0,0,0,0,0,18,18,18,,,,,,,,,,,,,,,,,,,,,,,,,,,49.07666719998815,50.07815349998418,49.07666719998815,50.07815349998418,49.07666719998815,50.07815349998418,49.07666719998815,50.07815349998418,down,1,0.4000586000038311,49.07666719998815,None,49.07666719998815,None,49.07666719998815,49.57735369997681,49.07666719998815,49.57735369997681,49.07666719998815,49.57735369997681,49.07666719998815,49.57735369997681,49.07666719998815,None,,,,,,,,,,,,,,,,,,,,,,,,,,,,,,,,,,,,,,,,,,12003,001,2024_Jun_09_1427,nback,2021.2.3,60.10717107989499,
0-back,instructions\back-0.png,conditions\0back-p.xlsx,instructions\0-BACK.png,"(15, 8)",practice,0,2,stim\gray.png,stim\yellow.png,stim\gray.png,stim\gray.png,left,0,0,0,0,0,0,0,0,0,19,19,19,,,,,,,,,,,,,,,,,,,,,,,,,,,50.57888429999002,51.58051349999732,50.57888429999002,51.58051349999732,50.57888429999002,51.58051349999732,50.57888429999002,51.58051349999732,left,1,0.353858799993759,50.57888429999002,None,50.57888429999002,None,50.57888429999002,51.07972749997862,50.57888429999002,51.07972749997862,50.57888429999002,51.07972749997862,50.57888429999002,51.07972749997862,50.57888429999002,None,,,,,,,,,,,,,,,,,,,,,,,,,,,,,,,,,,,,,,,,,,12003,001,2024_Jun_09_1427,nback,2021.2.3,60.10717107989499,
0-back,instructions\back-0.png,conditions\0back-p.xlsx,instructions\0-BACK.png,"(15, 8)",,,,,,,,,0,0,0,0,0,0,0,0,,,,,,,,,,,,,,,,,,,,,,,,,,,,,,,,,,,,,,,,,,,,,,,,,,,,,,,,,,,,,,,,,,,,,,,,,,,,,,,,,,,,,,,,,,,,,,,,,12003,001,2024_Jun_09_1427,nback,2021.2.3,60.10717107989499,
1-back,instructions\back-1.png,conditions\1back-p.xlsx,instructions\1-BACK.png,"(25, 15)",practice,1,1,stim\yellow.png,stim\gray.png,stim\gray.png,stim\gray.png,None,0,0,0,0,0,1,1,1,0,0,0,0,,,,,,,,,,,,,,,,,52.247999799990794,None,space,15.685095900000306,52.247999799990794,None,68.08858719997806,72.59653310000431,72.5621920999838,None,72.98059279998415,73.98100459997659,72.98059279998415,73.98100459997659,72.98059279998415,73.98100459997659,72.98059279998415,73.98100459997659,None,1,,72.98059279998415,None,72.98059279998415,None,72.98059279998415,73.48004139997647,72.98059279998415,73.48004139997647,72.98059279998415,73.48004139997647,72.98059279998415,73.48004139997647,72.98059279998415,None,,,,,,,,,,,,,,,,,,,,,,,,,,,,,,,,,,,,,,,,,,12003,001,2024_Jun_09_1427,nback,2021.2.3,60.10717107989499,
1-back,instructions\back-1.png,conditions\1back-p.xlsx,instructions\1-BACK.png,"(25, 15)",practice,1,2,stim\gray.png,stim\yellow.png,stim\gray.png,stim\gray.png,up,0,0,0,0,0,1,1,1,0,1,1,1,,,,,,,,,,,,,,,,,,,,,,,,,,,74.46502269999473,75.4665277999884,74.46502269999473,75.4665277999884,74.46502269999473,75.4665277999884,74.46502269999473,75.4665277999884,up,1,0.5004643000138458,74.46502269999473,None,74.46502269999473,None,74.46502269999473,74.96588370000245,74.46502269999473,74.96588370000245,74.46502269999473,74.96588370000245,74.46502269999473,74.96588370000245,74.46502269999473,None,,,,,,,,,,,,,,,,,,,,,,,,,,,,,,,,,,,,,,,,,,12003,001,2024_Jun_09_1427,nback,2021.2.3,60.10717107989499,
1-back,instructions\back-1.png,conditions\1back-p.xlsx,instructions\1-BACK.png,"(25, 15)",practice,1,3,stim\gray.png,stim\gray.png,stim\yellow.png,stim\gray.png,left,0,0,0,0,0,1,1,1,0,2,2,2,,,,,,,,,,,,,,,,,,,,,,,,,,,75.96703109997907,76.96887189999688,75.96703109997907,76.96887189999688,75.96703109997907,76.96887189999688,75.96703109997907,76.96887189999688,None,0,,75.96703109997907,None,75.96703109997907,None,75.96703109997907,76.46797430000152,75.96703109997907,76.46797430000152,75.96703109997907,76.46797430000152,75.96703109997907,76.46797430000152,75.96703109997907,None,,,,,,,,,,,,,,,,,,,,,,,,,,,,,,,,,,,,,,,,,,12003,001,2024_Jun_09_1427,nback,2021.2.3,60.10717107989499,
1-back,instructions\back-1.png,conditions\1back-p.xlsx,instructions\1-BACK.png,"(25, 15)",practice,1,4,stim\gray.png,stim\gray.png,stim\gray.png,stim\yellow.png,right,0,0,0,0,0,1,1,1,0,3,3,3,,,,,,,,,,,,,,,,,,,,,,,,,,,77.46940659999382,78.47148279999965,77.46940659999382,78.47148279999965,77.46940659999382,78.47148279999965,77.46940659999382,78.47148279999965,right,1,0.6319519999960903,77.46940659999382,None,77.46940659999382,None,77.46940659999382,77.9703210000007,77.46940659999382,77.9703210000007,77.46940659999382,77.9703210000007,77.46940659999382,77.9703210000007,77.46940659999382,None,,,,,,,,,,,,,,,,,,,,,,,,,,,,,,,,,,,,,,,,,,12003,001,2024_Jun_09_1427,nback,2021.2.3,60.10717107989499,
1-back,instructions\back-1.png,conditions\1back-p.xlsx,instructions\1-BACK.png,"(25, 15)",practice,1,2,stim\gray.png,stim\yellow.png,stim\gray.png,stim\gray.png,down,0,0,0,0,0,1,1,1,0,4,4,4,,,,,,,,,,,,,,,,,,,,,,,,,,,78.97184220000054,79.9732846999832,78.97184220000054,79.9732846999832,78.97184220000054,79.9732846999832,78.97184220000054,79.9732846999832,None,0,,78.97184220000054,None,78.97184220000054,None,78.97184220000054,79.47250639999402,78.97184220000054,79.47250639999402,78.97184220000054,79.47250639999402,78.97184220000054,79.47250639999402,78.97184220000054,None,,,,,,,,,,,,,,,,,,,,,,,,,,,,,,,,,,,,,,,,,,12003,001,2024_Jun_09_1427,nback,2021.2.3,60.10717107989499,
1-back,instructions\back-1.png,conditions\1back-p.xlsx,instructions\1-BACK.png,"(25, 15)",practice,1,1,stim\yellow.png,stim\gray.png,stim\gray.png,stim\gray.png,left,0,0,0,0,0,1,1,1,0,5,5,5,,,,,,,,,,,,,,,,,,,,,,,,,,,80.47393710000324,81.47580459999153,80.47393710000324,81.47580459999153,80.47393710000324,81.47580459999153,80.47393710000324,81.47580459999153,up,0,0.4034045000153128,80.47393710000324,None,80.47393710000324,None,80.47393710000324,80.97500279999804,80.47393710000324,80.97500279999804,80.47393710000324,80.97500279999804,80.47393710000324,80.97500279999804,80.47393710000324,None,,,,,,,,,,,,,,,,,,,,,,,,,,,,,,,,,,,,,,,,,,12003,001,2024_Jun_09_1427,nback,2021.2.3,60.10717107989499,
1-back,instructions\back-1.png,conditions\1back-p.xlsx,instructions\1-BACK.png,"(25, 15)",practice,1,4,stim\gray.png,stim\gray.png,stim\gray.png,stim\yellow.png,up,0,0,0,0,0,1,1,1,0,6,6,6,,,,,,,,,,,,,,,,,,,,,,,,,,,81.95953100000042,82.96118909999495,81.95953100000042,82.96118909999495,81.95953100000042,82.96118909999495,81.95953100000042,82.96118909999495,None,0,,81.95953100000042,None,81.95953100000042,None,81.95953100000042,82.46051089998218,81.95953100000042,82.46051089998218,81.95953100000042,82.46051089998218,81.95953100000042,82.46051089998218,81.95953100000042,None,,,,,,,,,,,,,,,,,,,,,,,,,,,,,,,,,,,,,,,,,,12003,001,2024_Jun_09_1427,nback,2021.2.3,60.10717107989499,
1-back,instructions\back-1.png,conditions\1back-p.xlsx,instructions\1-BACK.png,"(25, 15)",practice,1,3,stim\gray.png,stim\gray.png,stim\yellow.png,stim\gray.png,down,0,0,0,0,0,1,1,1,0,7,7,7,,,,,,,,,,,,,,,,,,,,,,,,,,,83.46191630000249,84.46310369999264,83.46191630000249,84.46310369999264,83.46191630000249,84.46310369999264,83.46191630000249,84.46310369999264,right,0,0.3756022000161465,83.46191630000249,None,83.46191630000249,None,83.46191630000249,83.96255810000002,83.46191630000249,83.96255810000002,83.46191630000249,83.96255810000002,83.46191630000249,83.96255810000002,83.46191630000249,None,,,,,,,,,,,,,,,,,,,,,,,,,,,,,,,,,,,,,,,,,,12003,001,2024_Jun_09_1427,nback,2021.2.3,60.10717107989499,
1-back,instructions\back-1.png,conditions\1back-p.xlsx,instructions\1-BACK.png,"(25, 15)",practice,1,3,stim\gray.png,stim\gray.png,stim\yellow.png,stim\gray.png,right,0,0,0,0,0,1,1,1,0,8,8,8,,,,,,,,,,,,,,,,,,,,,,,,,,,84.96416649999446,85.96549529998447,84.96416649999446,85.96549529998447,84.96416649999446,85.96549529998447,84.96416649999446,85.96549529998447,None,0,,84.96416649999446,None,84.96416649999446,None,84.96416649999446,85.4652722000028,84.96416649999446,85.4652722000028,84.96416649999446,85.4652722000028,84.96416649999446,85.4652722000028,84.96416649999446,None,,,,,,,,,,,,,,,,,,,,,,,,,,,,,,,,,,,,,,,,,,12003,001,2024_Jun_09_1427,nback,2021.2.3,60.10717107989499,
1-back,instructions\back-1.png,conditions\1back-p.xlsx,instructions\1-BACK.png,"(25, 15)",practice,1,4,stim\gray.png,stim\gray.png,stim\gray.png,stim\yellow.png,right,0,0,0,0,0,1,1,1,0,9,9,9,,,,,,,,,,,,,,,,,,,,,,,,,,,86.46637599999667,87.46817499998724,86.46637599999667,87.46817499998724,86.46637599999667,87.46817499998724,86.46637599999667,87.46817499998724,None,0,,86.46637599999667,None,86.46637599999667,None,86.46637599999667,86.96741660000407,86.46637599999667,86.96741660000407,86.46637599999667,86.96741660000407,86.46637599999667,86.96741660000407,86.46637599999667,None,,,,,,,,,,,,,,,,,,,,,,,,,,,,,,,,,,,,,,,,,,12003,001,2024_Jun_09_1427,nback,2021.2.3,60.10717107989499,
1-back,instructions\back-1.png,conditions\1back-p.xlsx,instructions\1-BACK.png,"(25, 15)",practice,1,1,stim\yellow.png,stim\gray.png,stim\gray.png,stim\gray.png,down,0,0,0,0,0,1,1,1,0,10,10,10,,,,,,,,,,,,,,,,,,,,,,,,,,,87.9684578999877,88.97035869999672,87.9684578999877,88.97035869999672,87.9684578999877,88.97035869999672,87.9684578999877,88.97035869999672,None,0,,87.9684578999877,None,87.9684578999877,None,87.9684578999877,88.46933199997875,87.9684578999877,88.46933199997875,87.9684578999877,88.46933199997875,87.9684578999877,88.46933199997875,87.9684578999877,None,,,,,,,,,,,,,,,,,,,,,,,,,,,,,,,,,,,,,,,,,,12003,001,2024_Jun_09_1427,nback,2021.2.3,60.10717107989499,
1-back,instructions\back-1.png,conditions\1back-p.xlsx,instructions\1-BACK.png,"(25, 15)",practice,1,2,stim\gray.png,stim\yellow.png,stim\gray.png,stim\gray.png,up,0,0,0,0,0,1,1,1,0,11,11,11,,,,,,,,,,,,,,,,,,,,,,,,,,,89.47074319998501,90.47276109998347,89.47074319998501,90.47276109998347,89.47074319998501,90.47276109998347,89.47074319998501,90.47276109998347,None,0,,89.47074319998501,None,89.47074319998501,None,89.47074319998501,89.97178130000248,89.47074319998501,89.97178130000248,89.47074319998501,89.97178130000248,89.47074319998501,89.97178130000248,89.47074319998501,None,,,,,,,,,,,,,,,,,,,,,,,,,,,,,,,,,,,,,,,,,,12003,001,2024_Jun_09_1427,nback,2021.2.3,60.10717107989499,
1-back,instructions\back-1.png,conditions\1back-p.xlsx,instructions\1-BACK.png,"(25, 15)",practice,1,4,stim\gray.png,stim\gray.png,stim\gray.png,stim\yellow.png,left,0,0,0,0,0,1,1,1,0,12,12,12,,,,,,,,,,,,,,,,,,,,,,,,,,,90.97376159997657,91.97454019999714,90.97376159997657,91.97454019999714,90.97376159997657,91.97454019999714,90.97376159997657,91.97454019999714,None,0,,90.97376159997657,None,90.97376159997657,None,90.97376159997657,91.47387289998005,90.97376159997657,91.47387289998005,90.97376159997657,91.47387289998005,90.97376159997657,91.47387289998005,90.97376159997657,None,,,,,,,,,,,,,,,,,,,,,,,,,,,,,,,,,,,,,,,,,,12003,001,2024_Jun_09_1427,nback,2021.2.3,60.10717107989499,
1-back,instructions\back-1.png,conditions\1back-p.xlsx,instructions\1-BACK.png,"(25, 15)",practice,1,3,stim\gray.png,stim\gray.png,stim\yellow.png,stim\gray.png,down,0,0,0,0,0,1,1,1,0,13,13,13,,,,,,,,,,,,,,,,,,,,,,,,,,,92.45873349998146,93.4607110999932,92.45873349998146,93.4607110999932,92.45873349998146,93.4607110999932,92.45873349998146,93.4607110999932,None,0,,92.45873349998146,None,92.45873349998146,None,92.45873349998146,92.95947819997673,92.45873349998146,92.95947819997673,92.45873349998146,92.95947819997673,92.45873349998146,92.95947819997673,92.45873349998146,None,,,,,,,,,,,,,,,,,,,,,,,,,,,,,,,,,,,,,,,,,,12003,001,2024_Jun_09_1427,nback,2021.2.3,60.10717107989499,
1-back,instructions\back-1.png,conditions\1back-p.xlsx,instructions\1-BACK.png,"(25, 15)",practice,1,1,stim\yellow.png,stim\gray.png,stim\gray.png,stim\gray.png,right,0,0,0,0,0,1,1,1,0,14,14,14,,,,,,,,,,,,,,,,,,,,,,,,,,,93.960691699991,94.96243419998791,93.960691699991,94.96243419998791,93.960691699991,94.96243419998791,93.960691699991,94.96243419998791,None,0,,93.960691699991,None,93.960691699991,None,93.960691699991,94.46176839998225,93.960691699991,94.46176839998225,93.960691699991,94.46176839998225,93.960691699991,94.46176839998225,93.960691699991,None,,,,,,,,,,,,,,,,,,,,,,,,,,,,,,,,,,,,,,,,,,12003,001,2024_Jun_09_1427,nback,2021.2.3,60.10717107989499,
1-back,instructions\back-1.png,conditions\1back-p.xlsx,instructions\1-BACK.png,"(25, 15)",practice,1,2,stim\gray.png,stim\yellow.png,stim\gray.png,stim\gray.png,up,0,0,0,0,0,1,1,1,0,15,15,15,,,,,,,,,,,,,,,,,,,,,,,,,,,95.46331739999005,96.4646817999892,95.46331739999005,96.4646817999892,95.46331739999005,96.4646817999892,95.46331739999005,96.4646817999892,None,0,,95.46331739999005,None,95.46331739999005,None,95.46331739999005,95.96408819998032,95.46331739999005,95.96408819998032,95.46331739999005,95.96408819998032,95.46331739999005,95.96408819998032,95.46331739999005,None,,,,,,,,,,,,,,,,,,,,,,,,,,,,,,,,,,,,,,,,,,12003,001,2024_Jun_09_1427,nback,2021.2.3,60.10717107989499,
1-back,instructions\back-1.png,conditions\1back-p.xlsx,instructions\1-BACK.png,"(25, 15)",practice,1,3,stim\gray.png,stim\gray.png,stim\yellow.png,stim\gray.png,left,0,0,0,0,0,1,1,1,0,16,16,16,,,,,,,,,,,,,,,,,,,,,,,,,,,96.96532970000408,97.96691699998337,96.96532970000408,97.96691699998337,96.96532970000408,97.96691699998337,96.96532970000408,97.96691699998337,None,0,,96.96532970000408,None,96.96532970000408,None,96.96532970000408,97.46603539999342,96.96532970000408,97.46603539999342,96.96532970000408,97.46603539999342,96.96532970000408,97.46603539999342,96.96532970000408,None,,,,,,,,,,,,,,,,,,,,,,,,,,,,,,,,,,,,,,,,,,12003,001,2024_Jun_09_1427,nback,2021.2.3,60.10717107989499,
1-back,instructions\back-1.png,conditions\1back-p.xlsx,instructions\1-BACK.png,"(25, 15)",practice,1,1,stim\yellow.png,stim\gray.png,stim\gray.png,stim\gray.png,right,0,0,0,0,0,1,1,1,0,17,17,17,,,,,,,,,,,,,,,,,,,,,,,,,,,98.46778819998144,99.47039380000206,98.46778819998144,99.47039380000206,98.46778819998144,99.47039380000206,98.46778819998144,99.47039380000206,None,0,,98.46778819998144,None,98.46778819998144,None,98.46778819998144,98.96851499998593,98.46778819998144,98.96851499998593,98.46778819998144,98.96851499998593,98.46778819998144,98.96851499998593,98.46778819998144,None,,,,,,,,,,,,,,,,,,,,,,,,,,,,,,,,,,,,,,,,,,12003,001,2024_Jun_09_1427,nback,2021.2.3,60.10717107989499,
1-back,instructions\back-1.png,conditions\1back-p.xlsx,instructions\1-BACK.png,"(25, 15)",practice,1,4,stim\gray.png,stim\gray.png,stim\gray.png,stim\yellow.png,up,0,0,0,0,0,1,1,1,0,18,18,18,,,,,,,,,,,,,,,,,,,,,,,,,,,99.97010379997664,100.97145449998789,99.97010379997664,100.97145449998789,99.97010379997664,100.97145449998789,99.97010379997664,100.97145449998789,None,0,,99.97010379997664,None,99.97010379997664,None,99.97010379997664,100.47115050000139,99.97010379997664,100.47115050000139,99.97010379997664,100.47115050000139,99.97010379997664,100.47115050000139,99.97010379997664,None,,,,,,,,,,,,,,,,,,,,,,,,,,,,,,,,,,,,,,,,,,12003,001,2024_Jun_09_1427,nback,2021.2.3,60.10717107989499,
1-back,instructions\back-1.png,conditions\1back-p.xlsx,instructions\1-BACK.png,"(25, 15)",practice,1,2,stim\gray.png,stim\yellow.png,stim\gray.png,stim\gray.png,down,0,0,0,0,0,1,1,1,0,19,19,19,,,,,,,,,,,,,,,,,,,,,,,,,,,101.4721669999999,102.47370969998883,101.4721669999999,102.47370969998883,101.4721669999999,102.47370969998883,101.4721669999999,102.47370969998883,None,0,,101.4721669999999,None,101.4721669999999,None,101.4721669999999,101.97355399999651,101.4721669999999,101.97355399999651,101.4721669999999,101.97355399999651,101.4721669999999,101.97355399999651,101.4721669999999,None,,,,,,,,,,,,,,,,,,,,,,,,,,,,,,,,,,,,,,,,,,12003,001,2024_Jun_09_1427,nback,2021.2.3,60.10717107989499,
1-back,instructions\back-1.png,conditions\1back-p.xlsx,instructions\1-BACK.png,"(25, 15)",,,,,,,,,0,0,0,0,0,1,1,1,,,,,,,,,,,,,,,,,,,,,,,,,,,,,,,,,,,,,,,,,,,,,,,,,,,,,,,,,,,,,,,,,,,,,,,,,,,,,,,,,,,,,,,,,,,,,,,,,12003,001,2024_Jun_09_1427,nback,2021.2.3,60.10717107989499,
2-back,instructions\back-2.png,conditions\2back-p.xlsx,instructions\2-BACK.png,"(25, 15)",practice,2,1,stim\yellow.png,stim\gray.png,stim\gray.png,stim\gray.png,None,0,0,0,0,0,2,2,2,0,0,0,0,,,,,,,,,,,,,,,,,103.12455259999842,None,space,2.4014151000010315,103.12455259999842,None,105.67865190000157,110.18577809998533,110.11947829998098,None,110.57037119998131,111.5707781999954,110.57037119998131,111.5707781999954,110.57037119998131,111.5707781999954,110.57037119998131,111.5707781999954,None,1,,110.57037119998131,None,110.57037119998131,None,110.57037119998131,111.07019329999457,110.57037119998131,111.07019329999457,110.57037119998131,111.07019329999457,110.57037119998131,111.07019329999457,110.57037119998131,None,,,,,,,,,,,,,,,,,,,,,,,,,,,,,,,,,,,,,,,,,,12003,001,2024_Jun_09_1427,nback,2021.2.3,60.10717107989499,
2-back,instructions\back-2.png,conditions\2back-p.xlsx,instructions\2-BACK.png,"(25, 15)",practice,2,2,stim\gray.png,stim\yellow.png,stim\gray.png,stim\gray.png,None,0,0,0,0,0,2,2,2,0,1,1,1,,,,,,,,,,,,,,,,,,,,,,,,,,,112.05547160000424,113.05618869999307,112.05547160000424,113.05618869999307,112.05547160000424,113.05618869999307,112.05547160000424,113.05618869999307,None,1,,112.05547160000424,None,112.05547160000424,None,112.05547160000424,112.55629919999046,112.05547160000424,112.55629919999046,112.05547160000424,112.55629919999046,112.05547160000424,112.55629919999046,112.05547160000424,None,,,,,,,,,,,,,,,,,,,,,,,,,,,,,,,,,,,,,,,,,,12003,001,2024_Jun_09_1427,nback,2021.2.3,60.10717107989499,
2-back,instructions\back-2.png,conditions\2back-p.xlsx,instructions\2-BACK.png,"(25, 15)",practice,2,3,stim\gray.png,stim\gray.png,stim\yellow.png,stim\gray.png,up,0,0,0,0,0,2,2,2,0,2,2,2,,,,,,,,,,,,,,,,,,,,,,,,,,,113.55905179999536,114.55854420000105,113.55905179999536,114.55854420000105,113.55905179999536,114.55854420000105,113.55905179999536,114.55854420000105,up,1,0.38331609999295324,113.55905179999536,None,113.55905179999536,None,113.55905179999536,114.05879349997849,113.55905179999536,114.05879349997849,113.55905179999536,114.05879349997849,113.55905179999536,114.05879349997849,113.55905179999536,None,,,,,,,,,,,,,,,,,,,,,,,,,,,,,,,,,,,,,,,,,,12003,001,2024_Jun_09_1427,nback,2021.2.3,60.10717107989499,
2-back,instructions\back-2.png,conditions\2back-p.xlsx,instructions\2-BACK.png,"(25, 15)",practice,2,4,stim\gray.png,stim\gray.png,stim\gray.png,stim\yellow.png,left,0,0,0,0,0,2,2,2,0,3,3,3,,,,,,,,,,,,,,,,,,,,,,,,,,,115.05933399999049,116.06282939997618,115.05933399999049,116.06282939997618,115.05933399999049,116.06282939997618,115.05933399999049,116.06282939997618,None,0,,115.05933399999049,None,115.05933399999049,None,115.05933399999049,115.56041919998825,115.05933399999049,115.56041919998825,115.05933399999049,115.56041919998825,115.05933399999049,115.56041919998825,115.05933399999049,None,,,,,,,,,,,,,,,,,,,,,,,,,,,,,,,,,,,,,,,,,,12003,001,2024_Jun_09_1427,nback,2021.2.3,60.10717107989499,
2-back,instructions\back-2.png,conditions\2back-p.xlsx,instructions\2-BACK.png,"(25, 15)",practice,2,2,stim\gray.png,stim\yellow.png,stim\gray.png,stim\gray.png,right,0,0,0,0,0,2,2,2,0,4,4,4,,,,,,,,,,,,,,,,,,,,,,,,,,,116.5616280999966,117.56366459999117,116.5616280999966,117.56366459999117,116.5616280999966,117.56366459999117,116.5616280999966,117.56366459999117,None,0,,116.5616280999966,None,116.5616280999966,None,116.5616280999966,117.0627480999974,116.5616280999966,117.0627480999974,116.5616280999966,117.0627480999974,116.5616280999966,117.0627480999974,116.5616280999966,None,,,,,,,,,,,,,,,,,,,,,,,,,,,,,,,,,,,,,,,,,,12003,001,2024_Jun_09_1427,nback,2021.2.3,60.10717107989499,
2-back,instructions\back-2.png,conditions\2back-p.xlsx,instructions\2-BACK.png,"(25, 15)",practice,2,1,stim\yellow.png,stim\gray.png,stim\gray.png,stim\gray.png,down,0,0,0,0,0,2,2,2,0,5,5,5,,,,,,,,,,,,,,,,,,,,,,,,,,,118.0641586999991,119.06526589998975,118.0641586999991,119.06526589998975,118.0641586999991,119.06526589998975,118.0641586999991,119.06526589998975,down,1,0.6862718999909703,118.0641586999991,None,118.0641586999991,None,118.0641586999991,118.56558299998869,118.0641586999991,118.56558299998869,118.0641586999991,118.56558299998869,118.0641586999991,118.56558299998869,118.0641586999991,None,,,,,,,,,,,,,,,,,,,,,,,,,,,,,,,,,,,,,,,,,,12003,001,2024_Jun_09_1427,nback,2021.2.3,60.10717107989499,
2-back,instructions\back-2.png,conditions\2back-p.xlsx,instructions\2-BACK.png,"(25, 15)",practice,2,4,stim\gray.png,stim\gray.png,stim\gray.png,stim\yellow.png,left,0,0,0,0,0,2,2,2,0,6,6,6,,,,,,,,,,,,,,,,,,,,,,,,,,,119.54986830000416,120.55073919999995,119.54986830000416,120.55073919999995,119.54986830000416,120.55073919999995,119.54986830000416,120.55073919999995,None,0,,119.54986830000416,None,119.54986830000416,None,119.54986830000416,120.05030419997638,119.54986830000416,120.05030419997638,119.54986830000416,120.05030419997638,119.54986830000416,120.05030419997638,119.54986830000416,None,,,,,,,,,,,,,,,,,,,,,,,,,,,,,,,,,,,,,,,,,,12003,001,2024_Jun_09_1427,nback,2021.2.3,60.10717107989499,
2-back,instructions\back-2.png,conditions\2back-p.xlsx,instructions\2-BACK.png,"(25, 15)",practice,2,3,stim\gray.png,stim\gray.png,stim\yellow.png,stim\gray.png,up,0,0,0,0,0,2,2,2,0,7,7,7,,,,,,,,,,,,,,,,,,,,,,,,,,,121.05178879998857,122.05322449997766,121.05178879998857,122.05322449997766,121.05178879998857,122.05322449997766,121.05178879998857,122.05322449997766,None,0,,121.05178879998857,None,121.05178879998857,None,121.05178879998857,121.5528274999815,121.05178879998857,121.5528274999815,121.05178879998857,121.5528274999815,121.05178879998857,121.5528274999815,121.05178879998857,None,,,,,,,,,,,,,,,,,,,,,,,,,,,,,,,,,,,,,,,,,,12003,001,2024_Jun_09_1427,nback,2021.2.3,60.10717107989499,
2-back,instructions\back-2.png,conditions\2back-p.xlsx,instructions\2-BACK.png,"(25, 15)",practice,2,3,stim\gray.png,stim\gray.png,stim\yellow.png,stim\gray.png,down,0,0,0,0,0,2,2,2,0,8,8,8,,,,,,,,,,,,,,,,,,,,,,,,,,,122.55383900000015,123.55546529998537,122.55383900000015,123.55546529998537,122.55383900000015,123.55546529998537,122.55383900000015,123.55546529998537,down,1,1.1488756999897305,122.55383900000015,None,122.55383900000015,None,122.55383900000015,123.05485389998648,122.55383900000015,123.05485389998648,122.55383900000015,123.05485389998648,122.55383900000015,123.05485389998648,122.55383900000015,None,,,,,,,,,,,,,,,,,,,,,,,,,,,,,,,,,,,,,,,,,,12003,001,2024_Jun_09_1427,nback,2021.2.3,60.10717107989499,
2-back,instructions\back-2.png,conditions\2back-p.xlsx,instructions\2-BACK.png,"(25, 15)",practice,2,4,stim\gray.png,stim\gray.png,stim\gray.png,stim\yellow.png,right,0,0,0,0,0,2,2,2,0,9,9,9,,,,,,,,,,,,,,,,,,,,,,,,,,,124.05633549997583,125.05854779999936,124.05633549997583,125.05854779999936,124.05633549997583,125.05854779999936,124.05633549997583,125.05854779999936,None,0,,124.05633549997583,None,124.05633549997583,None,124.05633549997583,124.5570555999875,124.05633549997583,124.5570555999875,124.05633549997583,124.5570555999875,124.05633549997583,124.5570555999875,124.05633549997583,None,,,,,,,,,,,,,,,,,,,,,,,,,,,,,,,,,,,,,,,,,,12003,001,2024_Jun_09_1427,nback,2021.2.3,60.10717107989499,
2-back,instructions\back-2.png,conditions\2back-p.xlsx,instructions\2-BACK.png,"(25, 15)",practice,2,1,stim\yellow.png,stim\gray.png,stim\gray.png,stim\gray.png,right,0,0,0,0,0,2,2,2,0,10,10,10,,,,,,,,,,,,,,,,,,,,,,,,,,,125.55843859998276,126.56065040000249,125.55843859998276,126.56065040000249,125.55843859998276,126.56065040000249,125.55843859998276,126.56065040000249,None,0,,125.55843859998276,None,125.55843859998276,None,125.55843859998276,126.05981360000442,125.55843859998276,126.05981360000442,125.55843859998276,126.05981360000442,125.55843859998276,126.05981360000442,125.55843859998276,None,,,,,,,,,,,,,,,,,,,,,,,,,,,,,,,,,,,,,,,,,,12003,001,2024_Jun_09_1427,nback,2021.2.3,60.10717107989499,
2-back,instructions\back-2.png,conditions\2back-p.xlsx,instructions\2-BACK.png,"(25, 15)",practice,2,2,stim\gray.png,stim\yellow.png,stim\gray.png,stim\gray.png,down,0,0,0,0,0,2,2,2,0,11,11,11,,,,,,,,,,,,,,,,,,,,,,,,,,,127.0609615999856,128.06204160000198,127.0609615999856,128.06204160000198,127.0609615999856,128.06204160000198,127.0609615999856,128.06204160000198,down,1,1.4418392999796197,127.0609615999856,None,127.0609615999856,None,127.0609615999856,127.56151309999404,127.0609615999856,127.56151309999404,127.0609615999856,127.56151309999404,127.0609615999856,127.56151309999404,127.0609615999856,None,,,,,,,,,,,,,,,,,,,,,,,,,,,,,,,,,,,,,,,,,,12003,001,2024_Jun_09_1427,nback,2021.2.3,60.10717107989499,
2-back,instructions\back-2.png,conditions\2back-p.xlsx,instructions\2-BACK.png,"(25, 15)",practice,2,4,stim\gray.png,stim\gray.png,stim\gray.png,stim\yellow.png,up,0,0,0,0,0,2,2,2,0,12,12,12,,,,,,,,,,,,,,,,,,,,,,,,,,,128.5630823999818,129.56454609998036,128.5630823999818,129.56454609998036,128.5630823999818,129.56454609998036,128.5630823999818,129.56454609998036,None,0,,128.5630823999818,None,128.5630823999818,None,128.5630823999818,129.06413869999233,128.5630823999818,129.06413869999233,128.5630823999818,129.06413869999233,128.5630823999818,129.06413869999233,128.5630823999818,None,,,,,,,,,,,,,,,,,,,,,,,,,,,,,,,,,,,,,,,,,,12003,001,2024_Jun_09_1427,nback,2021.2.3,60.10717107989499,
2-back,instructions\back-2.png,conditions\2back-p.xlsx,instructions\2-BACK.png,"(25, 15)",practice,2,3,stim\gray.png,stim\gray.png,stim\yellow.png,stim\gray.png,left,0,0,0,0,0,2,2,2,0,13,13,13,,,,,,,,,,,,,,,,,,,,,,,,,,,130.06520589999855,131.06710240000393,130.06520589999855,131.06710240000393,130.06520589999855,131.06710240000393,130.06520589999855,131.06710240000393,None,0,,130.06520589999855,None,130.06520589999855,None,130.06520589999855,130.56605659998604,130.06520589999855,130.56605659998604,130.06520589999855,130.56605659998604,130.06520589999855,130.56605659998604,130.06520589999855,None,,,,,,,,,,,,,,,,,,,,,,,,,,,,,,,,,,,,,,,,,,12003,001,2024_Jun_09_1427,nback,2021.2.3,60.10717107989499,
2-back,instructions\back-2.png,conditions\2back-p.xlsx,instructions\2-BACK.png,"(25, 15)",practice,2,1,stim\yellow.png,stim\gray.png,stim\gray.png,stim\gray.png,down,0,0,0,0,0,2,2,2,0,14,14,14,,,,,,,,,,,,,,,,,,,,,,,,,,,131.55076579999877,132.55255029999535,131.55076579999877,132.55255029999535,131.55076579999877,132.55255029999535,131.55076579999877,132.55255029999535,None,0,,131.55076579999877,None,131.55076579999877,None,131.55076579999877,132.05173720000312,131.55076579999877,132.05173720000312,131.55076579999877,132.05173720000312,131.55076579999877,132.05173720000312,131.55076579999877,None,,,,,,,,,,,,,,,,,,,,,,,,,,,,,,,,,,,,,,,,,,12003,001,2024_Jun_09_1427,nback,2021.2.3,60.10717107989499,
2-back,instructions\back-2.png,conditions\2back-p.xlsx,instructions\2-BACK.png,"(25, 15)",practice,2,2,stim\gray.png,stim\yellow.png,stim\gray.png,stim\gray.png,right,0,0,0,0,0,2,2,2,0,15,15,15,,,,,,,,,,,,,,,,,,,,,,,,,,,133.05342319997726,134.0548186999804,133.05342319997726,134.0548186999804,133.05342319997726,134.0548186999804,133.05342319997726,134.0548186999804,None,0,,133.05342319997726,None,133.05342319997726,None,133.05342319997726,133.55372639998677,133.05342319997726,133.55372639998677,133.05342319997726,133.55372639998677,133.05342319997726,133.55372639998677,133.05342319997726,None,,,,,,,,,,,,,,,,,,,,,,,,,,,,,,,,,,,,,,,,,,12003,001,2024_Jun_09_1427,nback,2021.2.3,60.10717107989499,
2-back,instructions\back-2.png,conditions\2back-p.xlsx,instructions\2-BACK.png,"(25, 15)",practice,2,3,stim\gray.png,stim\gray.png,stim\yellow.png,stim\gray.png,up,0,0,0,0,0,2,2,2,0,16,16,16,,,,,,,,,,,,,,,,,,,,,,,,,,,134.55568579997635,135.5570272000041,134.55568579997635,135.5570272000041,134.55568579997635,135.5570272000041,134.55568579997635,135.5570272000041,None,0,,134.55568579997635,None,134.55568579997635,None,134.55568579997635,135.0569950999925,134.55568579997635,135.0569950999925,134.55568579997635,135.0569950999925,134.55568579997635,135.0569950999925,134.55568579997635,None,,,,,,,,,,,,,,,,,,,,,,,,,,,,,,,,,,,,,,,,,,12003,001,2024_Jun_09_1427,nback,2021.2.3,60.10717107989499,
2-back,instructions\back-2.png,conditions\2back-p.xlsx,instructions\2-BACK.png,"(25, 15)",practice,2,1,stim\yellow.png,stim\gray.png,stim\gray.png,stim\gray.png,left,0,0,0,0,0,2,2,2,0,17,17,17,,,,,,,,,,,,,,,,,,,,,,,,,,,136.05803909999668,137.06021509997663,136.05803909999668,137.06021509997663,136.05803909999668,137.06021509997663,136.05803909999668,137.06021509997663,None,0,,136.05803909999668,None,136.05803909999668,None,136.05803909999668,136.55848779997905,136.05803909999668,136.55848779997905,136.05803909999668,136.55848779997905,136.05803909999668,136.55848779997905,136.05803909999668,None,,,,,,,,,,,,,,,,,,,,,,,,,,,,,,,,,,,,,,,,,,12003,001,2024_Jun_09_1427,nback,2021.2.3,60.10717107989499,
2-back,instructions\back-2.png,conditions\2back-p.xlsx,instructions\2-BACK.png,"(25, 15)",practice,2,4,stim\gray.png,stim\gray.png,stim\gray.png,stim\yellow.png,right,0,0,0,0,0,2,2,2,0,18,18,18,,,,,,,,,,,,,,,,,,,,,,,,,,,137.56058560000383,138.56137569999555,137.56058560000383,138.56137569999555,137.56058560000383,138.56137569999555,137.56058560000383,138.56137569999555,None,0,,137.56058560000383,None,137.56058560000383,None,137.56058560000383,138.0610104999796,137.56058560000383,138.0610104999796,137.56058560000383,138.0610104999796,137.56058560000383,138.0610104999796,137.56058560000383,None,,,,,,,,,,,,,,,,,,,,,,,,,,,,,,,,,,,,,,,,,,12003,001,2024_Jun_09_1427,nback,2021.2.3,60.10717107989499,
2-back,instructions\back-2.png,conditions\2back-p.xlsx,instructions\2-BACK.png,"(25, 15)",practice,2,2,stim\gray.png,stim\yellow.png,stim\gray.png,stim\gray.png,up,0,0,0,0,0,2,2,2,0,19,19,19,,,,,,,,,,,,,,,,,,,,,,,,,,,139.0621100999997,140.06463039998198,139.0621100999997,140.06463039998198,139.0621100999997,140.06463039998198,139.0621100999997,140.06463039998198,None,0,,139.0621100999997,None,139.0621100999997,None,139.0621100999997,139.5631056999846,139.0621100999997,139.5631056999846,139.0621100999997,139.5631056999846,139.0621100999997,139.5631056999846,139.0621100999997,None,,,,,,,,,,,,,,,,,,,,,,,,,,,,,,,,,,,,,,,,,,12003,001,2024_Jun_09_1427,nback,2021.2.3,60.10717107989499,
2-back,instructions\back-2.png,conditions\2back-p.xlsx,instructions\2-BACK.png,"(25, 15)",,,,,,,,,0,0,0,0,0,2,2,2,,,,,,,,,,,,,,,,,,,,,,,,,,,,,,,,,,,,,,,,,,,,,,,,,,,,,,,,,,,,,,,,,,,,,,,,,,,,,,,,,,,,,,,,,,,,,,,,,12003,001,2024_Jun_09_1427,nback,2021.2.3,60.10717107989499,
,,,,,,,,,,,,,0,0,0,0,,,,,,,,,,,,,,,,,,,,,,,,,,,,,,,,,,,,,,,,,,,,,,,,,,,,,,,,,,,,140.5647508999973,None,s,5.114436500007287,140.5647508999973,None,,,,,,,,,,,,,,,,,,,,,,,,,,,,,,,,,,,,12003,001,2024_Jun_09_1427,nback,2021.2.3,60.10717107989499,
0-back,instructions\back-0.png,conditions\0back-p.xlsx,instructions\0-BACK.png,"(15, 8)",practice,0,1,stim\yellow.png,stim\gray.png,stim\gray.png,stim\gray.png,up,1,0,1,0,0,0,0,0,0,0,0,0,,,,,,,,,,,,,,,,,145.83951189997606,None,space,0.7516872999840416,145.83951189997606,None,146.79034929999034,151.29804539997713,151.21506950000185,None,151.63256369999726,152.63251460000174,151.63256369999726,152.63251460000174,151.63256369999726,152.63251460000174,151.63256369999726,152.63251460000174,up,1,0.5907901999889873,151.63256369999726,None,151.63256369999726,None,151.63256369999726,152.13213709997945,151.63256369999726,152.13213709997945,151.63256369999726,152.13213709997945,151.63256369999726,152.13213709997945,151.63256369999726,None,,,,,,,,,,,,,,,,,,,,,,,,,,,,,,,,,,,,,,,,,,12003,001,2024_Jun_09_1427,nback,2021.2.3,60.10717107989499,
0-back,instructions\back-0.png,conditions\0back-p.xlsx,instructions\0-BACK.png,"(15, 8)",practice,0,2,stim\gray.png,stim\yellow.png,stim\gray.png,stim\gray.png,left,1,0,1,0,0,0,0,0,0,1,1,1,,,,,,,,,,,,,,,,,,,,,,,,,,,153.11684869998135,154.1182998000004,153.11684869998135,154.1182998000004,153.11684869998135,154.1182998000004,153.11684869998135,154.1182998000004,left,1,0.3864723999868147,153.11684869998135,None,153.11684869998135,None,153.11684869998135,153.61745180000435,153.11684869998135,153.61745180000435,153.11684869998135,153.61745180000435,153.11684869998135,153.61745180000435,153.11684869998135,None,,,,,,,,,,,,,,,,,,,,,,,,,,,,,,,,,,,,,,,,,,12003,001,2024_Jun_09_1427,nback,2021.2.3,60.10717107989499,
0-back,instructions\back-0.png,conditions\0back-p.xlsx,instructions\0-BACK.png,"(15, 8)",practice,0,3,stim\gray.png,stim\gray.png,stim\yellow.png,stim\gray.png,right,1,0,1,0,0,0,0,0,0,2,2,2,,,,,,,,,,,,,,,,,,,,,,,,,,,154.619134699984,155.6205726999906,154.619134699984,155.6205726999906,154.619134699984,155.6205726999906,154.619134699984,155.6205726999906,right,1,0.3244118000147864,154.619134699984,None,154.619134699984,None,154.619134699984,155.11987729999237,154.619134699984,155.11987729999237,154.619134699984,155.11987729999237,154.619134699984,155.11987729999237,154.619134699984,None,,,,,,,,,,,,,,,,,,,,,,,,,,,,,,,,,,,,,,,,,,12003,001,2024_Jun_09_1427,nback,2021.2.3,60.10717107989499,
0-back,instructions\back-0.png,conditions\0back-p.xlsx,instructions\0-BACK.png,"(15, 8)",practice,0,4,stim\gray.png,stim\gray.png,stim\gray.png,stim\yellow.png,down,1,0,1,0,0,0,0,0,0,3,3,3,,,,,,,,,,,,,,,,,,,,,,,,,,,156.1214648000023,157.122816099989,156.1214648000023,157.122816099989,156.1214648000023,157.122816099989,156.1214648000023,157.122816099989,down,1,0.261989699996775,156.1214648000023,None,156.1214648000023,None,156.1214648000023,156.62213659999543,156.1214648000023,156.62213659999543,156.1214648000023,156.62213659999543,156.1214648000023,156.62213659999543,156.1214648000023,None,,,,,,,,,,,,,,,,,,,,,,,,,,,,,,,,,,,,,,,,,,12003,001,2024_Jun_09_1427,nback,2021.2.3,60.10717107989499,
0-back,instructions\back-0.png,conditions\0back-p.xlsx,instructions\0-BACK.png,"(15, 8)",practice,0,2,stim\gray.png,stim\yellow.png,stim\gray.png,stim\gray.png,left,1,0,1,0,0,0,0,0,0,4,4,4,,,,,,,,,,,,,,,,,,,,,,,,,,,157.62365809999756,158.6252450000029,157.62365809999756,158.6252450000029,157.62365809999756,158.6252450000029,157.62365809999756,158.6252450000029,left,1,0.30361470000934787,157.62365809999756,None,157.62365809999756,None,157.62365809999756,158.12429720000364,157.62365809999756,158.12429720000364,157.62365809999756,158.12429720000364,157.62365809999756,158.12429720000364,157.62365809999756,None,,,,,,,,,,,,,,,,,,,,,,,,,,,,,,,,,,,,,,,,,,12003,001,2024_Jun_09_1427,nback,2021.2.3,60.10717107989499,
0-back,instructions\back-0.png,conditions\0back-p.xlsx,instructions\0-BACK.png,"(15, 8)",practice,0,1,stim\yellow.png,stim\gray.png,stim\gray.png,stim\gray.png,up,1,0,1,0,0,0,0,0,0,5,5,5,,,,,,,,,,,,,,,,,,,,,,,,,,,159.12574529999983,160.12735100000282,159.12574529999983,160.12735100000282,159.12574529999983,160.12735100000282,159.12574529999983,160.12735100000282,up,1,0.3064558999903966,159.12574529999983,None,159.12574529999983,None,159.12574529999983,159.6265613999858,159.12574529999983,159.6265613999858,159.12574529999983,159.6265613999858,159.12574529999983,159.6265613999858,159.12574529999983,None,,,,,,,,,,,,,,,,,,,,,,,,,,,,,,,,,,,,,,,,,,12003,001,2024_Jun_09_1427,nback,2021.2.3,60.10717107989499,
0-back,instructions\back-0.png,conditions\0back-p.xlsx,instructions\0-BACK.png,"(15, 8)",practice,0,4,stim\gray.png,stim\gray.png,stim\gray.png,stim\yellow.png,down,1,0,1,0,0,0,0,0,0,6,6,6,,,,,,,,,,,,,,,,,,,,,,,,,,,160.61226219998207,161.612690799986,160.61226219998207,161.612690799986,160.61226219998207,161.612690799986,160.61226219998207,161.612690799986,down,1,0.27563720001489855,160.61226219998207,None,160.61226219998207,None,160.61226219998207,161.11211159999948,160.61226219998207,161.11211159999948,160.61226219998207,161.11211159999948,160.61226219998207,161.11211159999948,160.61226219998207,None,,,,,,,,,,,,,,,,,,,,,,,,,,,,,,,,,,,,,,,,,,12003,001,2024_Jun_09_1427,nback,2021.2.3,60.10717107989499,
0-back,instructions\back-0.png,conditions\0back-p.xlsx,instructions\0-BACK.png,"(15, 8)",practice,0,3,stim\gray.png,stim\gray.png,stim\yellow.png,stim\gray.png,right,1,0,1,0,0,0,0,0,0,7,7,7,,,,,,,,,,,,,,,,,,,,,,,,,,,162.1136525000038,163.11520159998327,162.1136525000038,163.11520159998327,162.1136525000038,163.11520159998327,162.1136525000038,163.11520159998327,right,1,0.2944514999981038,162.1136525000038,None,162.1136525000038,None,162.1136525000038,162.61434499997995,162.1136525000038,162.61434499997995,162.1136525000038,162.61434499997995,162.1136525000038,162.61434499997995,162.1136525000038,None,,,,,,,,,,,,,,,,,,,,,,,,,,,,,,,,,,,,,,,,,,12003,001,2024_Jun_09_1427,nback,2021.2.3,60.10717107989499,
0-back,instructions\back-0.png,conditions\0back-p.xlsx,instructions\0-BACK.png,"(15, 8)",practice,0,3,stim\gray.png,stim\gray.png,stim\yellow.png,stim\gray.png,right,1,0,1,0,0,0,0,0,0,8,8,8,,,,,,,,,,,,,,,,,,,,,,,,,,,163.61601040000096,164.61752079997677,163.61601040000096,164.61752079997677,163.61601040000096,164.61752079997677,163.61601040000096,164.61752079997677,right,1,0.36786169998231344,163.61601040000096,None,163.61601040000096,None,163.61601040000096,164.11681369997677,163.61601040000096,164.11681369997677,163.61601040000096,164.11681369997677,163.61601040000096,164.11681369997677,163.61601040000096,None,,,,,,,,,,,,,,,,,,,,,,,,,,,,,,,,,,,,,,,,,,12003,001,2024_Jun_09_1427,nback,2021.2.3,60.10717107989499,
0-back,instructions\back-0.png,conditions\0back-p.xlsx,instructions\0-BACK.png,"(15, 8)",practice,0,4,stim\gray.png,stim\gray.png,stim\gray.png,stim\yellow.png,down,1,0,1,0,0,0,0,0,0,9,9,9,,,,,,,,,,,,,,,,,,,,,,,,,,,165.11809809997794,166.11994559998857,165.11809809997794,166.11994559998857,165.11809809997794,166.11994559998857,165.11809809997794,166.11994559998857,down,1,0.4902945999929216,165.11809809997794,None,165.11809809997794,None,165.11809809997794,165.61955419997685,165.11809809997794,165.61955419997685,165.11809809997794,165.61955419997685,165.11809809997794,165.61955419997685,165.11809809997794,None,,,,,,,,,,,,,,,,,,,,,,,,,,,,,,,,,,,,,,,,,,12003,001,2024_Jun_09_1427,nback,2021.2.3,60.10717107989499,
0-back,instructions\back-0.png,conditions\0back-p.xlsx,instructions\0-BACK.png,"(15, 8)",practice,0,1,stim\yellow.png,stim\gray.png,stim\gray.png,stim\gray.png,up,1,0,1,0,0,0,0,0,0,10,10,10,,,,,,,,,,,,,,,,,,,,,,,,,,,166.62061159999575,167.62407779999194,166.62061159999575,167.62407779999194,166.62061159999575,167.62407779999194,166.62061159999575,167.62407779999194,up,1,0.3952188999974169,166.62061159999575,None,166.62061159999575,None,166.62061159999575,167.12118499999633,166.62061159999575,167.12118499999633,166.62061159999575,167.12118499999633,166.62061159999575,167.12118499999633,166.62061159999575,None,,,,,,,,,,,,,,,,,,,,,,,,,,,,,,,,,,,,,,,,,,12003,001,2024_Jun_09_1427,nback,2021.2.3,60.10717107989499,
0-back,instructions\back-0.png,conditions\0back-p.xlsx,instructions\0-BACK.png,"(15, 8)",practice,0,2,stim\gray.png,stim\yellow.png,stim\gray.png,stim\gray.png,left,1,0,1,0,0,0,0,0,0,11,11,11,,,,,,,,,,,,,,,,,,,,,,,,,,,168.12294410000322,169.12431709998054,168.12294410000322,169.12431709998054,168.12294410000322,169.12431709998054,168.12294410000322,169.12431709998054,left,1,0.38085899999714456,168.12294410000322,None,168.12294410000322,None,168.12294410000322,168.62404619998415,168.12294410000322,168.62404619998415,168.12294410000322,168.62404619998415,168.12294410000322,168.62404619998415,168.12294410000322,None,,,,,,,,,,,,,,,,,,,,,,,,,,,,,,,,,,,,,,,,,,12003,001,2024_Jun_09_1427,nback,2021.2.3,60.10717107989499,
0-back,instructions\back-0.png,conditions\0back-p.xlsx,instructions\0-BACK.png,"(15, 8)",practice,0,4,stim\gray.png,stim\gray.png,stim\gray.png,stim\yellow.png,down,1,0,1,0,0,0,0,0,0,12,12,12,,,,,,,,,,,,,,,,,,,,,,,,,,,169.62458299999707,170.62679379998008,169.62458299999707,170.62679379998008,169.62458299999707,170.62679379998008,169.62458299999707,170.62679379998008,down,1,0.2952162000001408,169.62458299999707,None,169.62458299999707,None,169.62458299999707,170.12713149999036,169.62458299999707,170.12713149999036,169.62458299999707,170.12713149999036,169.62458299999707,170.12713149999036,169.62458299999707,None,,,,,,,,,,,,,,,,,,,,,,,,,,,,,,,,,,,,,,,,,,12003,001,2024_Jun_09_1427,nback,2021.2.3,60.10717107989499,
0-back,instructions\back-0.png,conditions\0back-p.xlsx,instructions\0-BACK.png,"(15, 8)",practice,0,3,stim\gray.png,stim\gray.png,stim\yellow.png,stim\gray.png,right,1,0,1,0,0,0,0,0,0,13,13,13,,,,,,,,,,,,,,,,,,,,,,,,,,,171.1273702000035,172.12891599998693,171.1273702000035,172.12891599998693,171.1273702000035,172.12891599998693,171.1273702000035,172.12891599998693,right,1,0.3682793999905698,171.1273702000035,None,171.1273702000035,None,171.1273702000035,171.6280930999783,171.1273702000035,171.6280930999783,171.1273702000035,171.6280930999783,171.1273702000035,171.6280930999783,171.1273702000035,None,,,,,,,,,,,,,,,,,,,,,,,,,,,,,,,,,,,,,,,,,,12003,001,2024_Jun_09_1427,nback,2021.2.3,60.10717107989499,
0-back,instructions\back-0.png,conditions\0back-p.xlsx,instructions\0-BACK.png,"(15, 8)",practice,0,1,stim\yellow.png,stim\gray.png,stim\gray.png,stim\gray.png,up,1,0,1,0,0,0,0,0,0,14,14,14,,,,,,,,,,,,,,,,,,,,,,,,,,,172.6129355999874,173.614301900001,172.6129355999874,173.614301900001,172.6129355999874,173.614301900001,172.6129355999874,173.614301900001,up,1,0.3395861999888439,172.6129355999874,None,172.6129355999874,None,172.6129355999874,173.1135888999852,172.6129355999874,173.1135888999852,172.6129355999874,173.1135888999852,172.6129355999874,173.1135888999852,172.6129355999874,None,,,,,,,,,,,,,,,,,,,,,,,,,,,,,,,,,,,,,,,,,,12003,001,2024_Jun_09_1427,nback,2021.2.3,60.10717107989499,
0-back,instructions\back-0.png,conditions\0back-p.xlsx,instructions\0-BACK.png,"(15, 8)",practice,0,2,stim\gray.png,stim\yellow.png,stim\gray.png,stim\gray.png,left,1,0,1,0,0,0,0,0,0,15,15,15,,,,,,,,,,,,,,,,,,,,,,,,,,,174.11490620000404,175.11670559999766,174.11490620000404,175.11670559999766,174.11490620000404,175.11670559999766,174.11490620000404,175.11670559999766,left,1,0.32567930000368506,174.11490620000404,None,174.11490620000404,None,174.11490620000404,174.61589019998792,174.11490620000404,174.61589019998792,174.11490620000404,174.61589019998792,174.11490620000404,174.61589019998792,174.11490620000404,None,,,,,,,,,,,,,,,,,,,,,,,,,,,,,,,,,,,,,,,,,,12003,001,2024_Jun_09_1427,nback,2021.2.3,60.10717107989499,
0-back,instructions\back-0.png,conditions\0back-p.xlsx,instructions\0-BACK.png,"(15, 8)",practice,0,3,stim\gray.png,stim\gray.png,stim\yellow.png,stim\gray.png,right,1,0,1,0,0,0,0,0,0,16,16,16,,,,,,,,,,,,,,,,,,,,,,,,,,,175.61743679997744,176.61935480000102,175.61743679997744,176.61935480000102,175.61743679997744,176.61935480000102,175.61743679997744,176.61935480000102,right,1,0.3264408000104595,175.61743679997744,None,175.61743679997744,None,175.61743679997744,176.11826319998363,175.61743679997744,176.11826319998363,175.61743679997744,176.11826319998363,175.61743679997744,176.11826319998363,175.61743679997744,None,,,,,,,,,,,,,,,,,,,,,,,,,,,,,,,,,,,,,,,,,,12003,001,2024_Jun_09_1427,nback,2021.2.3,60.10717107989499,
0-back,instructions\back-0.png,conditions\0back-p.xlsx,instructions\0-BACK.png,"(15, 8)",practice,0,1,stim\yellow.png,stim\gray.png,stim\gray.png,stim\gray.png,up,1,0,1,0,0,0,0,0,0,17,17,17,,,,,,,,,,,,,,,,,,,,,,,,,,,177.11964259998058,178.12126179999905,177.11964259998058,178.12126179999905,177.11964259998058,178.12126179999905,177.11964259998058,178.12126179999905,up,1,0.3524411999969743,177.11964259998058,None,177.11964259998058,None,177.11964259998058,177.62104840000393,177.11964259998058,177.62104840000393,177.11964259998058,177.62104840000393,177.11964259998058,177.62104840000393,177.11964259998058,None,,,,,,,,,,,,,,,,,,,,,,,,,,,,,,,,,,,,,,,,,,12003,001,2024_Jun_09_1427,nback,2021.2.3,60.10717107989499,
0-back,instructions\back-0.png,conditions\0back-p.xlsx,instructions\0-BACK.png,"(15, 8)",practice,0,4,stim\gray.png,stim\gray.png,stim\gray.png,stim\yellow.png,down,1,0,1,0,0,0,0,0,0,18,18,18,,,,,,,,,,,,,,,,,,,,,,,,,,,178.62196629997925,179.62334609997924,178.62196629997925,179.62334609997924,178.62196629997925,179.62334609997924,178.62196629997925,179.62334609997924,down,1,0.28181769998627715,178.62196629997925,None,178.62196629997925,None,178.62196629997925,179.12263979998534,178.62196629997925,179.12263979998534,178.62196629997925,179.12263979998534,178.62196629997925,179.12263979998534,178.62196629997925,None,,,,,,,,,,,,,,,,,,,,,,,,,,,,,,,,,,,,,,,,,,12003,001,2024_Jun_09_1427,nback,2021.2.3,60.10717107989499,
0-back,instructions\back-0.png,conditions\0back-p.xlsx,instructions\0-BACK.png,"(15, 8)",practice,0,2,stim\gray.png,stim\yellow.png,stim\gray.png,stim\gray.png,left,1,0,1,0,0,0,0,0,0,19,19,19,,,,,,,,,,,,,,,,,,,,,,,,,,,180.12418559999787,181.12596249999478,180.12418559999787,181.12596249999478,180.12418559999787,181.12596249999478,180.12418559999787,181.12596249999478,left,1,0.24398480000672862,180.12418559999787,None,180.12418559999787,None,180.12418559999787,180.62486689997604,180.12418559999787,180.62486689997604,180.12418559999787,180.62486689997604,180.12418559999787,180.62486689997604,180.12418559999787,None,,,,,,,,,,,,,,,,,,,,,,,,,,,,,,,,,,,,,,,,,,12003,001,2024_Jun_09_1427,nback,2021.2.3,60.10717107989499,
0-back,instructions\back-0.png,conditions\0back-p.xlsx,instructions\0-BACK.png,"(15, 8)",,,,,,,,,1,0,1,0,0,0,0,0,,,,,,,,,,,,,,,,,,,,,,,,,,,,,,,,,,,,,,,,,,,,,,,,,,,,,,,,,,,,,,,,,,,,,,,,,,,,,,,,,,,,,,,,,,,,,,,,,12003,001,2024_Jun_09_1427,nback,2021.2.3,60.10717107989499,
1-back,instructions\back-1.png,conditions\1back-p.xlsx,instructions\1-BACK.png,"(25, 15)",practice,1,1,stim\yellow.png,stim\gray.png,stim\gray.png,stim\gray.png,None,1,0,1,0,0,1,1,1,0,0,0,0,,,,,,,,,,,,,,,,,181.79336419998435,None,space,9.750912700023036,181.79336419998435,None,191.70819619999384,196.21646269998746,196.19908429999487,None,196.59898579999572,197.60065129998839,196.59898579999572,197.60065129998839,196.59898579999572,197.60065129998839,196.59898579999572,197.60065129998839,None,1,,196.59898579999572,None,196.59898579999572,None,196.59898579999572,197.09988679998787,196.59898579999572,197.09988679998787,196.59898579999572,197.09988679998787,196.59898579999572,197.09988679998787,196.59898579999572,None,,,,,,,,,,,,,,,,,,,,,,,,,,,,,,,,,,,,,,,,,,12003,001,2024_Jun_09_1427,nback,2021.2.3,60.10717107989499,
1-back,instructions\back-1.png,conditions\1back-p.xlsx,instructions\1-BACK.png,"(25, 15)",practice,1,2,stim\gray.png,stim\yellow.png,stim\gray.png,stim\gray.png,up,1,0,1,0,0,1,1,1,0,1,1,1,,,,,,,,,,,,,,,,,,,,,,,,,,,198.08483179999166,199.0858673999901,198.08483179999166,199.0858673999901,198.08483179999166,199.0858673999901,198.08483179999166,199.0858673999901,left,0,1.387690700008534,198.08483179999166,None,198.08483179999166,None,198.08483179999166,198.58541749999858,198.08483179999166,198.58541749999858,198.08483179999166,198.58541749999858,198.08483179999166,198.58541749999858,198.08483179999166,None,,,,,,,,,,,,,,,,,,,,,,,,,,,,,,,,,,,,,,,,,,12003,001,2024_Jun_09_1427,nback,2021.2.3,60.10717107989499,
1-back,instructions\back-1.png,conditions\1back-p.xlsx,instructions\1-BACK.png,"(25, 15)",practice,1,3,stim\gray.png,stim\gray.png,stim\yellow.png,stim\gray.png,left,1,0,1,0,0,1,1,1,0,2,2,2,,,,,,,,,,,,,,,,,,,,,,,,,,,199.58690009999555,200.58830189998844,199.58690009999555,200.58830189998844,199.58690009999555,200.58830189998844,199.58690009999555,200.58830189998844,right,0,0.837593400006881,199.58690009999555,None,199.58690009999555,None,199.58690009999555,200.0876683999959,199.58690009999555,200.0876683999959,199.58690009999555,200.0876683999959,199.58690009999555,200.0876683999959,199.58690009999555,None,,,,,,,,,,,,,,,,,,,,,,,,,,,,,,,,,,,,,,,,,,12003,001,2024_Jun_09_1427,nback,2021.2.3,60.10717107989499,
1-back,instructions\back-1.png,conditions\1back-p.xlsx,instructions\1-BACK.png,"(25, 15)",practice,1,4,stim\gray.png,stim\gray.png,stim\gray.png,stim\yellow.png,right,1,0,1,0,0,1,1,1,0,3,3,3,,,,,,,,,,,,,,,,,,,,,,,,,,,201.08918029998313,202.09099309999146,201.08918029998313,202.09099309999146,201.08918029998313,202.09099309999146,201.08918029998313,202.09099309999146,down,0,0.6639504999911878,201.08918029998313,None,201.08918029998313,None,201.08918029998313,201.58995049999794,201.08918029998313,201.58995049999794,201.08918029998313,201.58995049999794,201.08918029998313,201.58995049999794,201.08918029998313,None,,,,,,,,,,,,,,,,,,,,,,,,,,,,,,,,,,,,,,,,,,12003,001,2024_Jun_09_1427,nback,2021.2.3,60.10717107989499,
1-back,instructions\back-1.png,conditions\1back-p.xlsx,instructions\1-BACK.png,"(25, 15)",practice,1,2,stim\gray.png,stim\yellow.png,stim\gray.png,stim\gray.png,down,1,0,1,0,0,1,1,1,0,4,4,4,,,,,,,,,,,,,,,,,,,,,,,,,,,202.5914838000026,203.59374049998587,202.5914838000026,203.59374049998587,202.5914838000026,203.59374049998587,202.5914838000026,203.59374049998587,None,0,,202.5914838000026,None,202.5914838000026,None,202.5914838000026,203.09211629998754,202.5914838000026,203.09211629998754,202.5914838000026,203.09211629998754,202.5914838000026,203.09211629998754,202.5914838000026,None,,,,,,,,,,,,,,,,,,,,,,,,,,,,,,,,,,,,,,,,,,12003,001,2024_Jun_09_1427,nback,2021.2.3,60.10717107989499,
1-back,instructions\back-1.png,conditions\1back-p.xlsx,instructions\1-BACK.png,"(25, 15)",practice,1,1,stim\yellow.png,stim\gray.png,stim\gray.png,stim\gray.png,left,1,0,1,0,0,1,1,1,0,5,5,5,,,,,,,,,,,,,,,,,,,,,,,,,,,204.09353169999667,205.0951571999758,204.09353169999667,205.0951571999758,204.09353169999667,205.0951571999758,204.09353169999667,205.0951571999758,None,0,,204.09353169999667,None,204.09353169999667,None,204.09353169999667,204.59434290000354,204.09353169999667,204.59434290000354,204.09353169999667,204.59434290000354,204.09353169999667,204.59434290000354,204.09353169999667,None,,,,,,,,,,,,,,,,,,,,,,,,,,,,,,,,,,,,,,,,,,12003,001,2024_Jun_09_1427,nback,2021.2.3,60.10717107989499,
1-back,instructions\back-1.png,conditions\1back-p.xlsx,instructions\1-BACK.png,"(25, 15)",practice,1,4,stim\gray.png,stim\gray.png,stim\gray.png,stim\yellow.png,up,1,0,1,0,0,1,1,1,0,6,6,6,,,,,,,,,,,,,,,,,,,,,,,,,,,205.5796188999957,206.58125459999428,205.5796188999957,206.58125459999428,205.5796188999957,206.58125459999428,205.5796188999957,206.58125459999428,None,0,,205.5796188999957,None,205.5796188999957,None,205.5796188999957,206.0799683999794,205.5796188999957,206.0799683999794,205.5796188999957,206.0799683999794,205.5796188999957,206.0799683999794,205.5796188999957,None,,,,,,,,,,,,,,,,,,,,,,,,,,,,,,,,,,,,,,,,,,12003,001,2024_Jun_09_1427,nback,2021.2.3,60.10717107989499,
1-back,instructions\back-1.png,conditions\1back-p.xlsx,instructions\1-BACK.png,"(25, 15)",practice,1,3,stim\gray.png,stim\gray.png,stim\yellow.png,stim\gray.png,down,1,0,1,0,0,1,1,1,0,7,7,7,,,,,,,,,,,,,,,,,,,,,,,,,,,207.08155109998188,208.08333459999994,207.08155109998188,208.08333459999994,207.08155109998188,208.08333459999994,207.08155109998188,208.08333459999994,None,0,,207.08155109998188,None,207.08155109998188,None,207.08155109998188,207.58228599998984,207.08155109998188,207.58228599998984,207.08155109998188,207.58228599998984,207.08155109998188,207.58228599998984,207.08155109998188,None,,,,,,,,,,,,,,,,,,,,,,,,,,,,,,,,,,,,,,,,,,12003,001,2024_Jun_09_1427,nback,2021.2.3,60.10717107989499,
1-back,instructions\back-1.png,conditions\1back-p.xlsx,instructions\1-BACK.png,"(25, 15)",practice,1,3,stim\gray.png,stim\gray.png,stim\yellow.png,stim\gray.png,right,1,0,1,0,0,1,1,1,0,8,8,8,,,,,,,,,,,,,,,,,,,,,,,,,,,208.58363969999482,209.58535749997827,208.58363969999482,209.58535749997827,208.58363969999482,209.58535749997827,208.58363969999482,209.58535749997827,None,0,,208.58363969999482,None,208.58363969999482,None,208.58363969999482,209.0846307000029,208.58363969999482,209.0846307000029,208.58363969999482,209.0846307000029,208.58363969999482,209.0846307000029,208.58363969999482,None,,,,,,,,,,,,,,,,,,,,,,,,,,,,,,,,,,,,,,,,,,12003,001,2024_Jun_09_1427,nback,2021.2.3,60.10717107989499,
1-back,instructions\back-1.png,conditions\1back-p.xlsx,instructions\1-BACK.png,"(25, 15)",practice,1,4,stim\gray.png,stim\gray.png,stim\gray.png,stim\yellow.png,right,1,0,1,0,0,1,1,1,0,9,9,9,,,,,,,,,,,,,,,,,,,,,,,,,,,210.08611799997743,211.08755239998573,210.08611799997743,211.08755239998573,210.08611799997743,211.08755239998573,210.08611799997743,211.08755239998573,None,0,,210.08611799997743,None,210.08611799997743,None,210.08611799997743,210.5868541999953,210.08611799997743,210.5868541999953,210.08611799997743,210.5868541999953,210.08611799997743,210.5868541999953,210.08611799997743,None,,,,,,,,,,,,,,,,,,,,,,,,,,,,,,,,,,,,,,,,,,12003,001,2024_Jun_09_1427,nback,2021.2.3,60.10717107989499,
1-back,instructions\back-1.png,conditions\1back-p.xlsx,instructions\1-BACK.png,"(25, 15)",practice,1,1,stim\yellow.png,stim\gray.png,stim\gray.png,stim\gray.png,down,1,0,1,0,0,1,1,1,0,10,10,10,,,,,,,,,,,,,,,,,,,,,,,,,,,211.58832899999106,212.5897774999903,211.58832899999106,212.5897774999903,211.58832899999106,212.5897774999903,211.58832899999106,212.5897774999903,down,1,1.3166740000015125,211.58832899999106,None,211.58832899999106,None,211.58832899999106,212.090486400004,211.58832899999106,212.090486400004,211.58832899999106,212.090486400004,211.58832899999106,212.090486400004,211.58832899999106,None,,,,,,,,,,,,,,,,,,,,,,,,,,,,,,,,,,,,,,,,,,12003,001,2024_Jun_09_1427,nback,2021.2.3,60.10717107989499,
1-back,instructions\back-1.png,conditions\1back-p.xlsx,instructions\1-BACK.png,"(25, 15)",practice,1,2,stim\gray.png,stim\yellow.png,stim\gray.png,stim\gray.png,up,1,0,1,0,0,1,1,1,0,11,11,11,,,,,,,,,,,,,,,,,,,,,,,,,,,213.09090640000068,214.09203829997568,213.09090640000068,214.09203829997568,213.09090640000068,214.09203829997568,213.09090640000068,214.09203829997568,None,0,,213.09090640000068,None,213.09090640000068,None,213.09090640000068,213.5913321999833,213.09090640000068,213.5913321999833,213.09090640000068,213.5913321999833,213.09090640000068,213.5913321999833,213.09090640000068,None,,,,,,,,,,,,,,,,,,,,,,,,,,,,,,,,,,,,,,,,,,12003,001,2024_Jun_09_1427,nback,2021.2.3,60.10717107989499,
1-back,instructions\back-1.png,conditions\1back-p.xlsx,instructions\1-BACK.png,"(25, 15)",practice,1,4,stim\gray.png,stim\gray.png,stim\gray.png,stim\yellow.png,left,1,0,1,0,0,1,1,1,0,12,12,12,,,,,,,,,,,,,,,,,,,,,,,,,,,214.5928601999767,215.59418319998076,214.5928601999767,215.59418319998076,214.5928601999767,215.59418319998076,214.5928601999767,215.59418319998076,left,1,0.8724696999997832,214.5928601999767,None,214.5928601999767,None,214.5928601999767,215.0939256999991,214.5928601999767,215.0939256999991,214.5928601999767,215.0939256999991,214.5928601999767,215.0939256999991,214.5928601999767,None,,,,,,,,,,,,,,,,,,,,,,,,,,,,,,,,,,,,,,,,,,12003,001,2024_Jun_09_1427,nback,2021.2.3,60.10717107989499,
1-back,instructions\back-1.png,conditions\1back-p.xlsx,instructions\1-BACK.png,"(25, 15)",practice,1,3,stim\gray.png,stim\gray.png,stim\yellow.png,stim\gray.png,down,1,0,1,0,0,1,1,1,0,13,13,13,,,,,,,,,,,,,,,,,,,,,,,,,,,216.07856289998745,217.0800682999834,216.07856289998745,217.0800682999834,216.07856289998745,217.0800682999834,216.07856289998745,217.0800682999834,down,1,1.0025762999721337,216.07856289998745,None,216.07856289998745,None,216.07856289998745,216.57924949997687,216.07856289998745,216.57924949997687,216.07856289998745,216.57924949997687,216.07856289998745,216.57924949997687,216.07856289998745,None,,,,,,,,,,,,,,,,,,,,,,,,,,,,,,,,,,,,,,,,,,12003,001,2024_Jun_09_1427,nback,2021.2.3,60.10717107989499,
1-back,instructions\back-1.png,conditions\1back-p.xlsx,instructions\1-BACK.png,"(25, 15)",practice,1,1,stim\yellow.png,stim\gray.png,stim\gray.png,stim\gray.png,right,1,0,1,0,0,1,1,1,0,14,14,14,,,,,,,,,,,,,,,,,,,,,,,,,,,217.58057089999784,218.58213309998973,217.58057089999784,218.58213309998973,217.58057089999784,218.58213309998973,217.58057089999784,218.58213309998973,right,1,1.4605963999929372,217.58057089999784,None,217.58057089999784,None,217.58057089999784,218.08247659998597,217.58057089999784,218.08247659998597,217.58057089999784,218.08247659998597,217.58057089999784,218.08247659998597,217.58057089999784,None,,,,,,,,,,,,,,,,,,,,,,,,,,,,,,,,,,,,,,,,,,12003,001,2024_Jun_09_1427,nback,2021.2.3,60.10717107989499,
1-back,instructions\back-1.png,conditions\1back-p.xlsx,instructions\1-BACK.png,"(25, 15)",practice,1,2,stim\gray.png,stim\yellow.png,stim\gray.png,stim\gray.png,up,1,0,1,0,0,1,1,1,0,15,15,15,,,,,,,,,,,,,,,,,,,,,,,,,,,219.08319529998698,220.0844766999944,219.08319529998698,220.0844766999944,219.08319529998698,220.0844766999944,219.08319529998698,220.0844766999944,up,1,1.4139678999781609,219.08319529998698,None,219.08319529998698,None,219.08319529998698,219.58467559999553,219.08319529998698,219.58467559999553,219.08319529998698,219.58467559999553,219.08319529998698,219.58467559999553,219.08319529998698,None,,,,,,,,,,,,,,,,,,,,,,,,,,,,,,,,,,,,,,,,,,12003,001,2024_Jun_09_1427,nback,2021.2.3,60.10717107989499,
1-back,instructions\back-1.png,conditions\1back-p.xlsx,instructions\1-BACK.png,"(25, 15)",practice,1,3,stim\gray.png,stim\gray.png,stim\yellow.png,stim\gray.png,left,1,0,1,0,0,1,1,1,0,16,16,16,,,,,,,,,,,,,,,,,,,,,,,,,,,220.5851197000011,221.58668579999357,220.5851197000011,221.58668579999357,220.5851197000011,221.58668579999357,220.5851197000011,221.58668579999357,None,0,,220.5851197000011,None,220.5851197000011,None,220.5851197000011,221.08583539997926,220.5851197000011,221.08583539997926,220.5851197000011,221.08583539997926,220.5851197000011,221.08583539997926,220.5851197000011,None,,,,,,,,,,,,,,,,,,,,,,,,,,,,,,,,,,,,,,,,,,12003,001,2024_Jun_09_1427,nback,2021.2.3,60.10717107989499,
1-back,instructions\back-1.png,conditions\1back-p.xlsx,instructions\1-BACK.png,"(25, 15)",practice,1,1,stim\yellow.png,stim\gray.png,stim\gray.png,stim\gray.png,right,1,0,1,0,0,1,1,1,0,17,17,17,,,,,,,,,,,,,,,,,,,,,,,,,,,222.08748659997946,223.08891719998792,222.08748659997946,223.08891719998792,222.08748659997946,223.08891719998792,222.08748659997946,223.08891719998792,right,1,0.7220322000212036,222.08748659997946,None,222.08748659997946,None,222.08748659997946,222.58864370000083,222.08748659997946,222.58864370000083,222.08748659997946,222.58864370000083,222.08748659997946,222.58864370000083,222.08748659997946,None,,,,,,,,,,,,,,,,,,,,,,,,,,,,,,,,,,,,,,,,,,12003,001,2024_Jun_09_1427,nback,2021.2.3,60.10717107989499,
1-back,instructions\back-1.png,conditions\1back-p.xlsx,instructions\1-BACK.png,"(25, 15)",practice,1,4,stim\gray.png,stim\gray.png,stim\gray.png,stim\yellow.png,up,1,0,1,0,0,1,1,1,0,18,18,18,,,,,,,,,,,,,,,,,,,,,,,,,,,223.58982500000275,224.59147519999533,223.58982500000275,224.59147519999533,223.58982500000275,224.59147519999533,223.58982500000275,224.59147519999533,down,0,0.4437135999905877,223.58982500000275,None,223.58982500000275,None,223.58982500000275,224.09137369997916,223.58982500000275,224.09137369997916,223.58982500000275,224.09137369997916,223.58982500000275,224.09137369997916,223.58982500000275,None,,,,,,,,,,,,,,,,,,,,,,,,,,,,,,,,,,,,,,,,,,12003,001,2024_Jun_09_1427,nback,2021.2.3,60.10717107989499,
1-back,instructions\back-1.png,conditions\1back-p.xlsx,instructions\1-BACK.png,"(25, 15)",practice,1,2,stim\gray.png,stim\yellow.png,stim\gray.png,stim\gray.png,down,1,0,1,0,0,1,1,1,0,19,19,19,,,,,,,,,,,,,,,,,,,,,,,,,,,225.09174129998428,226.0933967999881,225.09174129998428,226.0933967999881,225.09174129998428,226.0933967999881,225.09174129998428,226.0933967999881,left,0,0.4058379999769386,225.09174129998428,None,225.09174129998428,None,225.09174129998428,225.59287749999203,225.09174129998428,225.59287749999203,225.09174129998428,225.59287749999203,225.09174129998428,225.59287749999203,225.09174129998428,None,,,,,,,,,,,,,,,,,,,,,,,,,,,,,,,,,,,,,,,,,,12003,001,2024_Jun_09_1427,nback,2021.2.3,60.10717107989499,
1-back,instructions\back-1.png,conditions\1back-p.xlsx,instructions\1-BACK.png,"(25, 15)",,,,,,,,,1,0,1,0,0,1,1,1,,,,,,,,,,,,,,,,,,,,,,,,,,,,,,,,,,,,,,,,,,,,,,,,,,,,,,,,,,,,,,,,,,,,,,,,,,,,,,,,,,,,,,,,,,,,,,,,,12003,001,2024_Jun_09_1427,nback,2021.2.3,60.10717107989499,
2-back,instructions\back-2.png,conditions\2back-p.xlsx,instructions\2-BACK.png,"(25, 15)",practice,2,1,stim\yellow.png,stim\gray.png,stim\gray.png,stim\gray.png,None,1,0,1,0,0,2,2,2,0,0,0,0,,,,,,,,,,,,,,,,,226.74430140000186,None,space,4.297311999980593,226.74430140000186,None,231.18439149999176,235.69148779998068,235.65871809999226,None,236.0928292000026,237.09366499999305,236.0928292000026,237.09366499999305,236.0928292000026,237.09366499999305,236.0928292000026,237.09366499999305,None,1,,236.0928292000026,None,236.0928292000026,None,236.0928292000026,236.59302699999535,236.0928292000026,236.59302699999535,236.0928292000026,236.59302699999535,236.0928292000026,236.59302699999535,236.0928292000026,None,,,,,,,,,,,,,,,,,,,,,,,,,,,,,,,,,,,,,,,,,,12003,001,2024_Jun_09_1427,nback,2021.2.3,60.10717107989499,
2-back,instructions\back-2.png,conditions\2back-p.xlsx,instructions\2-BACK.png,"(25, 15)",practice,2,2,stim\gray.png,stim\yellow.png,stim\gray.png,stim\gray.png,None,1,0,1,0,0,2,2,2,0,1,1,1,,,,,,,,,,,,,,,,,,,,,,,,,,,237.5773535000044,238.57939969998552,237.5773535000044,238.57939969998552,237.5773535000044,238.57939969998552,237.5773535000044,238.57939969998552,None,1,,237.5773535000044,None,237.5773535000044,None,237.5773535000044,238.07822699999087,237.5773535000044,238.07822699999087,237.5773535000044,238.07822699999087,237.5773535000044,238.07822699999087,237.5773535000044,None,,,,,,,,,,,,,,,,,,,,,,,,,,,,,,,,,,,,,,,,,,12003,001,2024_Jun_09_1427,nback,2021.2.3,60.10717107989499,
2-back,instructions\back-2.png,conditions\2back-p.xlsx,instructions\2-BACK.png,"(25, 15)",practice,2,3,stim\gray.png,stim\gray.png,stim\yellow.png,stim\gray.png,up,1,0,1,0,0,2,2,2,0,2,2,2,,,,,,,,,,,,,,,,,,,,,,,,,,,239.07968929997878,240.08134169998812,239.07968929997878,240.08134169998812,239.07968929997878,240.08134169998812,239.07968929997878,240.08134169998812,left,0,0.37001849999069236,239.07968929997878,None,239.07968929997878,None,239.07968929997878,239.58050640000147,239.07968929997878,239.58050640000147,239.07968929997878,239.58050640000147,239.07968929997878,239.58050640000147,239.07968929997878,None,,,,,,,,,,,,,,,,,,,,,,,,,,,,,,,,,,,,,,,,,,12003,001,2024_Jun_09_1427,nback,2021.2.3,60.10717107989499,
2-back,instructions\back-2.png,conditions\2back-p.xlsx,instructions\2-BACK.png,"(25, 15)",practice,2,4,stim\gray.png,stim\gray.png,stim\gray.png,stim\yellow.png,left,1,0,1,0,0,2,2,2,0,3,3,3,,,,,,,,,,,,,,,,,,,,,,,,,,,240.5819513000024,241.5839403999853,240.5819513000024,241.5839403999853,240.5819513000024,241.5839403999853,240.5819513000024,241.5839403999853,right,0,0.8359006999817211,240.5819513000024,None,240.5819513000024,None,240.5819513000024,241.08327380000264,240.5819513000024,241.08327380000264,240.5819513000024,241.08327380000264,240.5819513000024,241.08327380000264,240.5819513000024,None,,,,,,,,,,,,,,,,,,,,,,,,,,,,,,,,,,,,,,,,,,12003,001,2024_Jun_09_1427,nback,2021.2.3,60.10717107989499,
2-back,instructions\back-2.png,conditions\2back-p.xlsx,instructions\2-BACK.png,"(25, 15)",practice,2,2,stim\gray.png,stim\yellow.png,stim\gray.png,stim\gray.png,right,1,0,1,0,0,2,2,2,0,4,4,4,,,,,,,,,,,,,,,,,,,,,,,,,,,242.08485769998515,243.08688009998878,242.08485769998515,243.08688009998878,242.08485769998515,243.08688009998878,242.08485769998515,243.08688009998878,None,0,,242.08485769998515,None,242.08485769998515,None,242.08485769998515,242.58533119998174,242.08485769998515,242.58533119998174,242.08485769998515,242.58533119998174,242.08485769998515,242.58533119998174,242.08485769998515,None,,,,,,,,,,,,,,,,,,,,,,,,,,,,,,,,,,,,,,,,,,12003,001,2024_Jun_09_1427,nback,2021.2.3,60.10717107989499,
2-back,instructions\back-2.png,conditions\2back-p.xlsx,instructions\2-BACK.png,"(25, 15)",practice,2,1,stim\yellow.png,stim\gray.png,stim\gray.png,stim\gray.png,down,1,0,1,0,0,2,2,2,0,5,5,5,,,,,,,,,,,,,,,,,,,,,,,,,,,243.58664799999679,244.5880249000038,243.58664799999679,244.5880249000038,243.58664799999679,244.5880249000038,243.58664799999679,244.5880249000038,left,0,0.215120000008028,243.58664799999679,None,243.58664799999679,None,243.58664799999679,244.0873406000028,243.58664799999679,244.0873406000028,243.58664799999679,244.0873406000028,243.58664799999679,244.0873406000028,243.58664799999679,None,,,,,,,,,,,,,,,,,,,,,,,,,,,,,,,,,,,,,,,,,,12003,001,2024_Jun_09_1427,nback,2021.2.3,60.10717107989499,
2-back,instructions\back-2.png,conditions\2back-p.xlsx,instructions\2-BACK.png,"(25, 15)",practice,2,4,stim\gray.png,stim\gray.png,stim\gray.png,stim\yellow.png,left,1,0,1,0,0,2,2,2,0,6,6,6,,,,,,,,,,,,,,,,,,,,,,,,,,,245.07215319998795,246.07390859999578,245.07215319998795,246.07390859999578,245.07215319998795,246.07390859999578,245.07215319998795,246.07390859999578,left,1,0.185752199991839,245.07215319998795,None,245.07215319998795,None,245.07215319998795,245.57320129999425,245.07215319998795,245.57320129999425,245.07215319998795,245.57320129999425,245.07215319998795,245.57320129999425,245.07215319998795,None,,,,,,,,,,,,,,,,,,,,,,,,,,,,,,,,,,,,,,,,,,12003,001,2024_Jun_09_1427,nback,2021.2.3,60.10717107989499,
2-back,instructions\back-2.png,conditions\2back-p.xlsx,instructions\2-BACK.png,"(25, 15)",practice,2,3,stim\gray.png,stim\gray.png,stim\yellow.png,stim\gray.png,up,1,0,1,0,0,2,2,2,0,7,7,7,,,,,,,,,,,,,,,,,,,,,,,,,,,246.5742701999843,247.57592859998113,246.5742701999843,247.57592859998113,246.5742701999843,247.57592859998113,246.5742701999843,247.57592859998113,down,0,1.4596934000146575,246.5742701999843,None,246.5742701999843,None,246.5742701999843,247.07606359999045,246.5742701999843,247.07606359999045,246.5742701999843,247.07606359999045,246.5742701999843,247.07606359999045,246.5742701999843,None,,,,,,,,,,,,,,,,,,,,,,,,,,,,,,,,,,,,,,,,,,12003,001,2024_Jun_09_1427,nback,2021.2.3,60.10717107989499,
2-back,instructions\back-2.png,conditions\2back-p.xlsx,instructions\2-BACK.png,"(25, 15)",practice,2,3,stim\gray.png,stim\gray.png,stim\yellow.png,stim\gray.png,down,1,0,1,0,0,2,2,2,0,8,8,8,,,,,,,,,,,,,,,,,,,,,,,,,,,248.07658729999093,249.0782695999951,248.07658729999093,249.0782695999951,248.07658729999093,249.0782695999951,248.07658729999093,249.0782695999951,None,0,,248.07658729999093,None,248.07658729999093,None,248.07658729999093,248.57741080000415,248.07658729999093,248.57741080000415,248.07658729999093,248.57741080000415,248.07658729999093,248.57741080000415,248.07658729999093,None,,,,,,,,,,,,,,,,,,,,,,,,,,,,,,,,,,,,,,,,,,12003,001,2024_Jun_09_1427,nback,2021.2.3,60.10717107989499,
2-back,instructions\back-2.png,conditions\2back-p.xlsx,instructions\2-BACK.png,"(25, 15)",practice,2,4,stim\gray.png,stim\gray.png,stim\gray.png,stim\yellow.png,right,1,0,1,0,0,2,2,2,0,9,9,9,,,,,,,,,,,,,,,,,,,,,,,,,,,249.57924639998237,250.58037579999655,249.57924639998237,250.58037579999655,249.57924639998237,250.58037579999655,249.57924639998237,250.58037579999655,right,1,0.014991899981396273,249.57924639998237,None,249.57924639998237,None,249.57924639998237,250.08007019999786,249.57924639998237,250.08007019999786,249.57924639998237,250.08007019999786,249.57924639998237,250.08007019999786,249.57924639998237,None,,,,,,,,,,,,,,,,,,,,,,,,,,,,,,,,,,,,,,,,,,12003,001,2024_Jun_09_1427,nback,2021.2.3,60.10717107989499,
2-back,instructions\back-2.png,conditions\2back-p.xlsx,instructions\2-BACK.png,"(25, 15)",practice,2,1,stim\yellow.png,stim\gray.png,stim\gray.png,stim\gray.png,right,1,0,1,0,0,2,2,2,0,10,10,10,,,,,,,,,,,,,,,,,,,,,,,,,,,251.0813106999849,252.08264979999512,251.0813106999849,252.08264979999512,251.0813106999849,252.08264979999512,251.0813106999849,252.08264979999512,right,1,0.09669070001109503,251.0813106999849,None,251.0813106999849,None,251.0813106999849,251.58214439998847,251.0813106999849,251.58214439998847,251.0813106999849,251.58214439998847,251.0813106999849,251.58214439998847,251.0813106999849,None,,,,,,,,,,,,,,,,,,,,,,,,,,,,,,,,,,,,,,,,,,12003,001,2024_Jun_09_1427,nback,2021.2.3,60.10717107989499,
2-back,instructions\back-2.png,conditions\2back-p.xlsx,instructions\2-BACK.png,"(25, 15)",practice,2,2,stim\gray.png,stim\yellow.png,stim\gray.png,stim\gray.png,down,1,0,1,0,0,2,2,2,0,11,11,11,,,,,,,,,,,,,,,,,,,,,,,,,,,252.58355999999912,253.58481069997652,252.58355999999912,253.58481069997652,252.58355999999912,253.58481069997652,252.58355999999912,253.58481069997652,down,1,0.23475180001696572,252.58355999999912,None,252.58355999999912,None,252.58355999999912,253.0842528999783,252.58355999999912,253.0842528999783,252.58355999999912,253.0842528999783,252.58355999999912,253.0842528999783,252.58355999999912,None,,,,,,,,,,,,,,,,,,,,,,,,,,,,,,,,,,,,,,,,,,12003,001,2024_Jun_09_1427,nback,2021.2.3,60.10717107989499,
2-back,instructions\back-2.png,conditions\2back-p.xlsx,instructions\2-BACK.png,"(25, 15)",practice,2,4,stim\gray.png,stim\gray.png,stim\gray.png,stim\yellow.png,up,1,0,1,0,0,2,2,2,0,12,12,12,,,,,,,,,,,,,,,,,,,,,,,,,,,254.08571379998466,255.0871993000037,254.08571379998466,255.0871993000037,254.08571379998466,255.0871993000037,254.08571379998466,255.0871993000037,up,1,0.24450469997827895,254.08571379998466,None,254.08571379998466,None,254.08571379998466,254.58654849999584,254.08571379998466,254.58654849999584,254.08571379998466,254.58654849999584,254.08571379998466,254.58654849999584,254.08571379998466,None,,,,,,,,,,,,,,,,,,,,,,,,,,,,,,,,,,,,,,,,,,12003,001,2024_Jun_09_1427,nback,2021.2.3,60.10717107989499,
2-back,instructions\back-2.png,conditions\2back-p.xlsx,instructions\2-BACK.png,"(25, 15)",practice,2,3,stim\gray.png,stim\gray.png,stim\yellow.png,stim\gray.png,left,1,0,1,0,0,2,2,2,0,13,13,13,,,,,,,,,,,,,,,,,,,,,,,,,,,255.58826029999182,256.58997760000057,255.58826029999182,256.58997760000057,255.58826029999182,256.58997760000057,255.58826029999182,256.58997760000057,right,0,0.4219442999747116,255.58826029999182,None,255.58826029999182,None,255.58826029999182,256.08891869999934,255.58826029999182,256.08891869999934,255.58826029999182,256.08891869999934,255.58826029999182,256.08891869999934,255.58826029999182,None,,,,,,,,,,,,,,,,,,,,,,,,,,,,,,,,,,,,,,,,,,12003,001,2024_Jun_09_1427,nback,2021.2.3,60.10717107989499,
2-back,instructions\back-2.png,conditions\2back-p.xlsx,instructions\2-BACK.png,"(25, 15)",practice,2,1,stim\yellow.png,stim\gray.png,stim\gray.png,stim\gray.png,down,1,0,1,0,0,2,2,2,0,14,14,14,,,,,,,,,,,,,,,,,,,,,,,,,,,257.0736295999959,258.07521260000067,257.0736295999959,258.07521260000067,257.0736295999959,258.07521260000067,257.0736295999959,258.07521260000067,None,0,,257.0736295999959,None,257.0736295999959,None,257.0736295999959,257.57445220000227,257.0736295999959,257.57445220000227,257.0736295999959,257.57445220000227,257.0736295999959,257.57445220000227,257.0736295999959,None,,,,,,,,,,,,,,,,,,,,,,,,,,,,,,,,,,,,,,,,,,12003,001,2024_Jun_09_1427,nback,2021.2.3,60.10717107989499,
2-back,instructions\back-2.png,conditions\2back-p.xlsx,instructions\2-BACK.png,"(25, 15)",practice,2,2,stim\gray.png,stim\yellow.png,stim\gray.png,stim\gray.png,right,1,0,1,0,0,2,2,2,0,15,15,15,,,,,,,,,,,,,,,,,,,,,,,,,,,258.5758627000032,259.57726869999897,258.5758627000032,259.57726869999897,258.5758627000032,259.57726869999897,258.5758627000032,259.57726869999897,up,0,0.2103830999985803,258.5758627000032,None,258.5758627000032,None,258.5758627000032,259.0767239999841,258.5758627000032,259.0767239999841,258.5758627000032,259.0767239999841,258.5758627000032,259.0767239999841,258.5758627000032,None,,,,,,,,,,,,,,,,,,,,,,,,,,,,,,,,,,,,,,,,,,12003,001,2024_Jun_09_1427,nback,2021.2.3,60.10717107989499,
2-back,instructions\back-2.png,conditions\2back-p.xlsx,instructions\2-BACK.png,"(25, 15)",practice,2,3,stim\gray.png,stim\gray.png,stim\yellow.png,stim\gray.png,up,1,0,1,0,0,2,2,2,0,16,16,16,,,,,,,,,,,,,,,,,,,,,,,,,,,260.0781150999828,261.0796133999829,260.0781150999828,261.0796133999829,260.0781150999828,261.0796133999829,260.0781150999828,261.0796133999829,None,0,,260.0781150999828,None,260.0781150999828,None,260.0781150999828,260.57896029998665,260.0781150999828,260.57896029998665,260.0781150999828,260.57896029998665,260.0781150999828,260.57896029998665,260.0781150999828,None,,,,,,,,,,,,,,,,,,,,,,,,,,,,,,,,,,,,,,,,,,12003,001,2024_Jun_09_1427,nback,2021.2.3,60.10717107989499,
2-back,instructions\back-2.png,conditions\2back-p.xlsx,instructions\2-BACK.png,"(25, 15)",practice,2,1,stim\yellow.png,stim\gray.png,stim\gray.png,stim\gray.png,left,1,0,1,0,0,2,2,2,0,17,17,17,,,,,,,,,,,,,,,,,,,,,,,,,,,261.58033779999823,262.58179409999866,261.58033779999823,262.58179409999866,261.58033779999823,262.58179409999866,261.58033779999823,262.58179409999866,left,1,0.5660223999875598,261.58033779999823,None,261.58033779999823,None,261.58033779999823,262.0811300999776,261.58033779999823,262.0811300999776,261.58033779999823,262.0811300999776,261.58033779999823,262.0811300999776,261.58033779999823,None,,,,,,,,,,,,,,,,,,,,,,,,,,,,,,,,,,,,,,,,,,12003,001,2024_Jun_09_1427,nback,2021.2.3,60.10717107989499,
2-back,instructions\back-2.png,conditions\2back-p.xlsx,instructions\2-BACK.png,"(25, 15)",practice,2,4,stim\gray.png,stim\gray.png,stim\gray.png,stim\yellow.png,right,1,0,1,0,0,2,2,2,0,18,18,18,,,,,,,,,,,,,,,,,,,,,,,,,,,263.08250180000323,264.0845239999762,263.08250180000323,264.0845239999762,263.08250180000323,264.0845239999762,263.08250180000323,264.0845239999762,None,0,,263.08250180000323,None,263.08250180000323,None,263.08250180000323,263.5837113999878,263.08250180000323,263.5837113999878,263.08250180000323,263.5837113999878,263.08250180000323,263.5837113999878,263.08250180000323,None,,,,,,,,,,,,,,,,,,,,,,,,,,,,,,,,,,,,,,,,,,12003,001,2024_Jun_09_1427,nback,2021.2.3,60.10717107989499,
2-back,instructions\back-2.png,conditions\2back-p.xlsx,instructions\2-BACK.png,"(25, 15)",practice,2,2,stim\gray.png,stim\yellow.png,stim\gray.png,stim\gray.png,up,1,0,1,0,0,2,2,2,0,19,19,19,,,,,,,,,,,,,,,,,,,,,,,,,,,264.5849592000013,265.58643179998035,264.5849592000013,265.58643179998035,264.5849592000013,265.58643179998035,264.5849592000013,265.58643179998035,down,0,1.1776726999960374,264.5849592000013,None,264.5849592000013,None,264.5849592000013,265.0855773999938,264.5849592000013,265.0855773999938,264.5849592000013,265.0855773999938,264.5849592000013,265.0855773999938,264.5849592000013,None,,,,,,,,,,,,,,,,,,,,,,,,,,,,,,,,,,,,,,,,,,12003,001,2024_Jun_09_1427,nback,2021.2.3,60.10717107989499,
2-back,instructions\back-2.png,conditions\2back-p.xlsx,instructions\2-BACK.png,"(25, 15)",,,,,,,,,1,0,1,0,0,2,2,2,,,,,,,,,,,,,,,,,,,,,,,,,,,,,,,,,,,,,,,,,,,,,,,,,,,,,,,,,,,,,,,,,,,,,,,,,,,,,,,,,,,,,,,,,,,,,,,,,12003,001,2024_Jun_09_1427,nback,2021.2.3,60.10717107989499,
,,,,,,,,,,,,,1,0,1,0,,,,,,,,,,,,,,,,,,,,,,,,,,,,,,,,,,,,,,,,,,,,,,,,,,,,,,,,,,,,266.0872194999829,None,s,12.892100400000345,266.0872194999829,None,,,,,,,,,,,,,,,,,,,,,,,,,,,,,,,,,,,,12003,001,2024_Jun_09_1427,nback,2021.2.3,60.10717107989499,
0-back,instructions\back-0.png,conditions\0back-p.xlsx,instructions\0-BACK.png,"(15, 8)",practice,0,1,stim\yellow.png,stim\gray.png,stim\gray.png,stim\gray.png,up,2,0,2,0,0,0,0,0,0,0,0,0,,,,,,,,,,,,,,,,,279.07268539999495,None,space,3.0822519000212196,279.07268539999495,None,282.3616274999804,286.8690269999788,286.7852064000035,None,287.2034102999896,288.20388009998715,287.2034102999896,288.20388009998715,287.2034102999896,288.20388009998715,287.2034102999896,288.20388009998715,up,1,0.5514687999966554,287.2034102999896,None,287.2034102999896,None,287.2034102999896,287.70304649998434,287.2034102999896,287.70304649998434,287.2034102999896,287.70304649998434,287.2034102999896,287.70304649998434,287.2034102999896,None,,,,,,,,,,,,,,,,,,,,,,,,,,,,,,,,,,,,,,,,,,12003,001,2024_Jun_09_1427,nback,2021.2.3,60.10717107989499,
0-back,instructions\back-0.png,conditions\0back-p.xlsx,instructions\0-BACK.png,"(15, 8)",practice,0,2,stim\gray.png,stim\yellow.png,stim\gray.png,stim\gray.png,left,2,0,2,0,0,0,0,0,0,1,1,1,,,,,,,,,,,,,,,,,,,,,,,,,,,288.6879764999903,289.68943559998297,288.6879764999903,289.68943559998297,288.6879764999903,289.68943559998297,288.6879764999903,289.68943559998297,left,1,0.4511301000020467,288.6879764999903,None,288.6879764999903,None,288.6879764999903,289.1887394999794,288.6879764999903,289.1887394999794,288.6879764999903,289.1887394999794,288.6879764999903,289.1887394999794,288.6879764999903,None,,,,,,,,,,,,,,,,,,,,,,,,,,,,,,,,,,,,,,,,,,12003,001,2024_Jun_09_1427,nback,2021.2.3,60.10717107989499,
0-back,instructions\back-0.png,conditions\0back-p.xlsx,instructions\0-BACK.png,"(15, 8)",practice,0,3,stim\gray.png,stim\gray.png,stim\yellow.png,stim\gray.png,right,2,0,2,0,0,0,0,0,0,2,2,2,,,,,,,,,,,,,,,,,,,,,,,,,,,290.1903710999759,291.1918571999995,290.1903710999759,291.1918571999995,290.1903710999759,291.1918571999995,290.1903710999759,291.1918571999995,right,1,0.34141059999819845,290.1903710999759,None,290.1903710999759,None,290.1903710999759,290.6909151999862,290.1903710999759,290.6909151999862,290.1903710999759,290.6909151999862,290.1903710999759,290.6909151999862,290.1903710999759,None,,,,,,,,,,,,,,,,,,,,,,,,,,,,,,,,,,,,,,,,,,12003,001,2024_Jun_09_1427,nback,2021.2.3,60.10717107989499,
0-back,instructions\back-0.png,conditions\0back-p.xlsx,instructions\0-BACK.png,"(15, 8)",practice,0,4,stim\gray.png,stim\gray.png,stim\gray.png,stim\yellow.png,down,2,0,2,0,0,0,0,0,0,3,3,3,,,,,,,,,,,,,,,,,,,,,,,,,,,291.6922884999949,292.69393649999984,291.6922884999949,292.69393649999984,291.6922884999949,292.69393649999984,291.6922884999949,292.69393649999984,down,1,0.28689449999365024,291.6922884999949,None,291.6922884999949,None,291.6922884999949,292.1932656999852,291.6922884999949,292.1932656999852,291.6922884999949,292.1932656999852,291.6922884999949,292.1932656999852,291.6922884999949,None,,,,,,,,,,,,,,,,,,,,,,,,,,,,,,,,,,,,,,,,,,12003,001,2024_Jun_09_1427,nback,2021.2.3,60.10717107989499,
0-back,instructions\back-0.png,conditions\0back-p.xlsx,instructions\0-BACK.png,"(15, 8)",practice,0,2,stim\gray.png,stim\yellow.png,stim\gray.png,stim\gray.png,left,2,0,2,0,0,0,0,0,0,4,4,4,,,,,,,,,,,,,,,,,,,,,,,,,,,293.19452069999534,294.1963501999853,293.19452069999534,294.1963501999853,293.19452069999534,294.1963501999853,293.19452069999534,294.1963501999853,left,1,0.4007172000128776,293.19452069999534,None,293.19452069999534,None,293.19452069999534,293.6955589999852,293.19452069999534,293.6955589999852,293.19452069999534,293.6955589999852,293.19452069999534,293.6955589999852,293.19452069999534,None,,,,,,,,,,,,,,,,,,,,,,,,,,,,,,,,,,,,,,,,,,12003,001,2024_Jun_09_1427,nback,2021.2.3,60.10717107989499,
0-back,instructions\back-0.png,conditions\0back-p.xlsx,instructions\0-BACK.png,"(15, 8)",practice,0,1,stim\yellow.png,stim\gray.png,stim\gray.png,stim\gray.png,up,2,0,2,0,0,0,0,0,0,5,5,5,,,,,,,,,,,,,,,,,,,,,,,,,,,294.6968508999853,295.6992370999942,294.6968508999853,295.6992370999942,294.6968508999853,295.6992370999942,294.6968508999853,295.6992370999942,up,1,0.41040930000599474,294.6968508999853,None,294.6968508999853,None,294.6968508999853,295.1987731999834,294.6968508999853,295.1987731999834,294.6968508999853,295.1987731999834,294.6968508999853,295.1987731999834,294.6968508999853,None,,,,,,,,,,,,,,,,,,,,,,,,,,,,,,,,,,,,,,,,,,12003,001,2024_Jun_09_1427,nback,2021.2.3,60.10717107989499,
0-back,instructions\back-0.png,conditions\0back-p.xlsx,instructions\0-BACK.png,"(15, 8)",practice,0,4,stim\gray.png,stim\gray.png,stim\gray.png,stim\yellow.png,down,2,0,2,0,0,0,0,0,0,6,6,6,,,,,,,,,,,,,,,,,,,,,,,,,,,296.1827942999953,297.1839214999927,296.1827942999953,297.1839214999927,296.1827942999953,297.1839214999927,296.1827942999953,297.1839214999927,down,1,0.4284842000051867,296.1827942999953,None,296.1827942999953,None,296.1827942999953,296.6834664999915,296.1827942999953,296.6834664999915,296.1827942999953,296.6834664999915,296.1827942999953,296.6834664999915,296.1827942999953,None,,,,,,,,,,,,,,,,,,,,,,,,,,,,,,,,,,,,,,,,,,12003,001,2024_Jun_09_1427,nback,2021.2.3,60.10717107989499,
0-back,instructions\back-0.png,conditions\0back-p.xlsx,instructions\0-BACK.png,"(15, 8)",practice,0,3,stim\gray.png,stim\gray.png,stim\yellow.png,stim\gray.png,right,2,0,2,0,0,0,0,0,0,7,7,7,,,,,,,,,,,,,,,,,,,,,,,,,,,297.68482229998335,298.686357700004,297.68482229998335,298.686357700004,297.68482229998335,298.686357700004,297.68482229998335,298.686357700004,right,1,0.407070700020995,297.68482229998335,None,297.68482229998335,None,297.68482229998335,298.1858384999796,297.68482229998335,298.1858384999796,297.68482229998335,298.1858384999796,297.68482229998335,298.1858384999796,297.68482229998335,None,,,,,,,,,,,,,,,,,,,,,,,,,,,,,,,,,,,,,,,,,,12003,001,2024_Jun_09_1427,nback,2021.2.3,60.10717107989499,
0-back,instructions\back-0.png,conditions\0back-p.xlsx,instructions\0-BACK.png,"(15, 8)",practice,0,3,stim\gray.png,stim\gray.png,stim\yellow.png,stim\gray.png,right,2,0,2,0,0,0,0,0,0,8,8,8,,,,,,,,,,,,,,,,,,,,,,,,,,,299.18703849997837,300.1885187999869,299.18703849997837,300.1885187999869,299.18703849997837,300.1885187999869,299.18703849997837,300.1885187999869,right,1,0.4410572999913711,299.18703849997837,None,299.18703849997837,None,299.18703849997837,299.68783979999716,299.18703849997837,299.68783979999716,299.18703849997837,299.68783979999716,299.18703849997837,299.68783979999716,299.18703849997837,None,,,,,,,,,,,,,,,,,,,,,,,,,,,,,,,,,,,,,,,,,,12003,001,2024_Jun_09_1427,nback,2021.2.3,60.10717107989499,
0-back,instructions\back-0.png,conditions\0back-p.xlsx,instructions\0-BACK.png,"(15, 8)",practice,0,4,stim\gray.png,stim\gray.png,stim\gray.png,stim\yellow.png,down,2,0,2,0,0,0,0,0,0,9,9,9,,,,,,,,,,,,,,,,,,,,,,,,,,,300.68952489999356,301.6908753000025,300.68952489999356,301.6908753000025,300.68952489999356,301.6908753000025,300.68952489999356,301.6908753000025,down,1,0.4017833999823779,300.68952489999356,None,300.68952489999356,None,300.68952489999356,301.1905779999797,300.68952489999356,301.1905779999797,300.68952489999356,301.1905779999797,300.68952489999356,301.1905779999797,300.68952489999356,None,,,,,,,,,,,,,,,,,,,,,,,,,,,,,,,,,,,,,,,,,,12003,001,2024_Jun_09_1427,nback,2021.2.3,60.10717107989499,
0-back,instructions\back-0.png,conditions\0back-p.xlsx,instructions\0-BACK.png,"(15, 8)",practice,0,1,stim\yellow.png,stim\gray.png,stim\gray.png,stim\gray.png,up,2,0,2,0,0,0,0,0,0,10,10,10,,,,,,,,,,,,,,,,,,,,,,,,,,,302.1916463999951,303.19375379997655,302.1916463999951,303.19375379997655,302.1916463999951,303.19375379997655,302.1916463999951,303.19375379997655,up,1,0.3160826000093948,302.1916463999951,None,302.1916463999951,None,302.1916463999951,302.69235489997664,302.1916463999951,302.69235489997664,302.1916463999951,302.69235489997664,302.1916463999951,302.69235489997664,302.1916463999951,None,,,,,,,,,,,,,,,,,,,,,,,,,,,,,,,,,,,,,,,,,,12003,001,2024_Jun_09_1427,nback,2021.2.3,60.10717107989499,
0-back,instructions\back-0.png,conditions\0back-p.xlsx,instructions\0-BACK.png,"(15, 8)",practice,0,2,stim\gray.png,stim\yellow.png,stim\gray.png,stim\gray.png,left,2,0,2,0,0,0,0,0,0,11,11,11,,,,,,,,,,,,,,,,,,,,,,,,,,,303.6941401999793,304.6957984000037,303.6941401999793,304.6957984000037,303.6941401999793,304.6957984000037,303.6941401999793,304.6957984000037,left,1,0.405979799979832,303.6941401999793,None,303.6941401999793,None,303.6941401999793,304.1945892999938,303.6941401999793,304.1945892999938,303.6941401999793,304.1945892999938,303.6941401999793,304.1945892999938,303.6941401999793,None,,,,,,,,,,,,,,,,,,,,,,,,,,,,,,,,,,,,,,,,,,12003,001,2024_Jun_09_1427,nback,2021.2.3,60.10717107989499,
0-back,instructions\back-0.png,conditions\0back-p.xlsx,instructions\0-BACK.png,"(15, 8)",practice,0,4,stim\gray.png,stim\gray.png,stim\gray.png,stim\yellow.png,down,2,0,2,0,0,0,0,0,0,12,12,12,,,,,,,,,,,,,,,,,,,,,,,,,,,305.1961378999986,306.19742559999577,305.1961378999986,306.19742559999577,305.1961378999986,306.19742559999577,305.1961378999986,306.19742559999577,down,1,0.3033951999968849,305.1961378999986,None,305.1961378999986,None,305.1961378999986,305.69693229999393,305.1961378999986,305.69693229999393,305.1961378999986,305.69693229999393,305.1961378999986,305.69693229999393,305.1961378999986,None,,,,,,,,,,,,,,,,,,,,,,,,,,,,,,,,,,,,,,,,,,12003,001,2024_Jun_09_1427,nback,2021.2.3,60.10717107989499,
0-back,instructions\back-0.png,conditions\0back-p.xlsx,instructions\0-BACK.png,"(15, 8)",practice,0,3,stim\gray.png,stim\gray.png,stim\yellow.png,stim\gray.png,right,2,0,2,0,0,0,0,0,0,13,13,13,,,,,,,,,,,,,,,,,,,,,,,,,,,306.68166639999254,307.68313489999855,306.68166639999254,307.68313489999855,306.68166639999254,307.68313489999855,306.68166639999254,307.68313489999855,right,1,0.35360500001115724,306.68166639999254,None,306.68166639999254,None,306.68166639999254,307.1823614999885,306.68166639999254,307.1823614999885,306.68166639999254,307.1823614999885,306.68166639999254,307.1823614999885,306.68166639999254,None,,,,,,,,,,,,,,,,,,,,,,,,,,,,,,,,,,,,,,,,,,12003,001,2024_Jun_09_1427,nback,2021.2.3,60.10717107989499,
