backseq,backinstr,backfile,instruction,size_in,Trialtype,back,number,P1,P2,P3,P4,corrAns,trials_practice.thisRepN,trials_practice.thisTrialN,trials_practice.thisN,trials_practice.thisIndex,trials.thisRepN,trials.thisTrialN,trials.thisN,trials.thisIndex,trials_3.thisRepN,trials_3.thisTrialN,trials_3.thisN,trials_3.thisIndex,trials_2.thisRepN,trials_2.thisTrialN,trials_2.thisN,trials_2.thisIndex,trials_4.thisRepN,trials_4.thisTrialN,trials_4.thisN,trials_4.thisIndex,image.started,image.stopped,image_2.started,image_2.stopped,key_resp.keys,key_resp.rt,key_resp.started,key_resp.stopped,image_3.started,image_3.stopped,key_resp_2.keys,key_resp_2.rt,key_resp_2.started,key_resp_2.stopped,image_4.started,image_4.stopped,text.started,text.stopped,H1.started,H1.stopped,H2.started,H2.stopped,H3.started,H3.stopped,H4.started,H4.stopped,key_resp_3.keys,key_resp_3.corr,key_resp_3.started,key_resp_3.stopped,text_4.started,text_4.stopped,F1.started,F1.stopped,F2.started,F2.stopped,F3.started,F3.stopped,F4.started,F4.stopped,image_7.started,image_7.stopped,key_resp_3.rt,text_5.started,text_5.stopped,key_resp_6.keys,key_resp_6.rt,key_resp_6.started,key_resp_6.stopped,image_5.started,image_5.stopped,key_resp_4.keys,key_resp_4.rt,key_resp_4.started,key_resp_4.stopped,key_resp_5.keys,key_resp_5.corr,key_resp_5.rt,key_resp_5.started,key_resp_5.stopped,text_3.started,text_3.stopped,H1_2.started,H1_2.stopped,H2_2.started,H2_2.stopped,H3_2.started,H3_2.stopped,H4_2.started,H4_2.stopped,F1_2.started,F1_2.stopped,F2_2.started,F2_2.stopped,F3_2.started,F3_2.stopped,F4_2.started,F4_2.stopped,image_8.started,image_8.stopped,text_2.started,text_2.stopped,image_6.started,image_6.stopped,participant,session,date,expName,psychopyVersion,frameRate,
,,,,,,,,,,,,,,,,,,,,,,,,,,,,,,,,,9.683759100036696,None,10.618526500067674,None,space,1.3003162000095472,10.618526500067674,None,,,,,,,,,,,,,,,,,,,,,,,,,,,,,,,,,,,,,,,,,,,,,,,,,,,,,,,,,,,,,,,,,,,,,,,,,,,,,12008,001,2024_Jun_14_1717,nback,2021.2.3,59.77522128598783,
0-back,instructions\back-0.png,conditions\0back-p.xlsx,instructions\0-BACK.png,"(15, 8)",practice,0,1,stim\yellow.png,stim\gray.png,stim\gray.png,stim\gray.png,up,0,0,0,0,0,0,0,0,0,0,0,0,,,,,,,,,,,,,,,,,11.987372600007802,None,space,4.866676099947654,11.987372600007802,None,17.027482600067742,21.53625240002293,21.484925199998543,None,21.95235000003595,22.95383330003824,21.95235000003595,22.95383330003824,21.95235000003595,22.95383330003824,21.95235000003595,22.95383330003824,None,0,21.95235000003595,None,21.95235000003595,None,21.95235000003595,22.453181299963035,21.95235000003595,22.453181299963035,21.95235000003595,22.453181299963035,21.95235000003595,22.453181299963035,21.95235000003595,None,,,,,,,,,,,,,,,,,,,,,,,,,,,,,,,,,,,,,,,,,,,12008,001,2024_Jun_14_1717,nback,2021.2.3,59.77522128598783,
0-back,instructions\back-0.png,conditions\0back-p.xlsx,instructions\0-BACK.png,"(15, 8)",practice,0,2,stim\gray.png,stim\yellow.png,stim\gray.png,stim\gray.png,left,0,0,0,0,0,0,0,0,0,1,1,1,,,,,,,,,,,,,,,,,,,,,,,,,,,23.387866600067355,24.390242199995555,23.387866600067355,24.390242199995555,23.387866600067355,24.390242199995555,23.387866600067355,24.390242199995555,None,0,23.387866600067355,None,23.387866600067355,None,23.387866600067355,23.888566600042395,23.387866600067355,23.888566600042395,23.387866600067355,23.888566600042395,23.387866600067355,23.888566600042395,23.387866600067355,None,,,,,,,,,,,,,,,,,,,,,,,,,,,,,,,,,,,,,,,,,,,12008,001,2024_Jun_14_1717,nback,2021.2.3,59.77522128598783,
0-back,instructions\back-0.png,conditions\0back-p.xlsx,instructions\0-BACK.png,"(15, 8)",practice,0,3,stim\gray.png,stim\gray.png,stim\yellow.png,stim\gray.png,right,0,0,0,0,0,0,0,0,0,2,2,2,,,,,,,,,,,,,,,,,,,,,,,,,,,24.890076700015925,25.892264500027522,24.890076700015925,25.892264500027522,24.890076700015925,25.892264500027522,24.890076700015925,25.892264500027522,None,0,24.890076700015925,None,24.890076700015925,None,24.890076700015925,25.39138390007429,24.890076700015925,25.39138390007429,24.890076700015925,25.39138390007429,24.890076700015925,25.39138390007429,24.890076700015925,None,,,,,,,,,,,,,,,,,,,,,,,,,,,,,,,,,,,,,,,,,,,12008,001,2024_Jun_14_1717,nback,2021.2.3,59.77522128598783,
0-back,instructions\back-0.png,conditions\0back-p.xlsx,instructions\0-BACK.png,"(15, 8)",practice,0,4,stim\gray.png,stim\gray.png,stim\gray.png,stim\yellow.png,down,0,0,0,0,0,0,0,0,0,3,3,3,,,,,,,,,,,,,,,,,,,,,,,,,,,26.393672000034712,27.39451450004708,26.393672000034712,27.39451450004708,26.393672000034712,27.39451450004708,26.393672000034712,27.39451450004708,None,0,26.393672000034712,None,26.393672000034712,None,26.393672000034712,26.893875500070862,26.393672000034712,26.893875500070862,26.393672000034712,26.893875500070862,26.393672000034712,26.893875500070862,26.393672000034712,None,,,,,,,,,,,,,,,,,,,,,,,,,,,,,,,,,,,,,,,,,,,12008,001,2024_Jun_14_1717,nback,2021.2.3,59.77522128598783,
0-back,instructions\back-0.png,conditions\0back-p.xlsx,instructions\0-BACK.png,"(15, 8)",practice,0,2,stim\gray.png,stim\yellow.png,stim\gray.png,stim\gray.png,left,0,0,0,0,0,0,0,0,0,4,4,4,,,,,,,,,,,,,,,,,,,,,,,,,,,27.894770900020376,28.896868200041354,27.894770900020376,28.896868200041354,27.894770900020376,28.896868200041354,27.894770900020376,28.896868200041354,None,0,27.894770900020376,None,27.894770900020376,None,27.894770900020376,28.396471600048244,27.894770900020376,28.396471600048244,27.894770900020376,28.396471600048244,27.894770900020376,28.396471600048244,27.894770900020376,None,,,,,,,,,,,,,,,,,,,,,,,,,,,,,,,,,,,,,,,,,,,12008,001,2024_Jun_14_1717,nback,2021.2.3,59.77522128598783,
0-back,instructions\back-0.png,conditions\0back-p.xlsx,instructions\0-BACK.png,"(15, 8)",practice,0,1,stim\yellow.png,stim\gray.png,stim\gray.png,stim\gray.png,up,0,0,0,0,0,0,0,0,0,5,5,5,,,,,,,,,,,,,,,,,,,,,,,,,,,29.397327300044708,30.399363200063817,29.397327300044708,30.399363200063817,29.397327300044708,30.399363200063817,29.397327300044708,30.399363200063817,None,0,29.397327300044708,None,29.397327300044708,None,29.397327300044708,29.89793750003446,29.397327300044708,29.89793750003446,29.397327300044708,29.89793750003446,29.397327300044708,29.89793750003446,29.397327300044708,None,,,,,,,,,,,,,,,,,,,,,,,,,,,,,,,,,,,,,,,,,,,12008,001,2024_Jun_14_1717,nback,2021.2.3,59.77522128598783,
0-back,instructions\back-0.png,conditions\0back-p.xlsx,instructions\0-BACK.png,"(15, 8)",practice,0,4,stim\gray.png,stim\gray.png,stim\gray.png,stim\yellow.png,down,0,0,0,0,0,0,0,0,0,6,6,6,,,,,,,,,,,,,,,,,,,,,,,,,,,30.88256639998872,31.885057699983008,30.88256639998872,31.885057699983008,30.88256639998872,31.885057699983008,30.88256639998872,31.885057699983008,None,0,30.88256639998872,None,30.88256639998872,None,30.88256639998872,31.384432299993932,30.88256639998872,31.384432299993932,30.88256639998872,31.384432299993932,30.88256639998872,31.384432299993932,30.88256639998872,None,,,,,,,,,,,,,,,,,,,,,,,,,,,,,,,,,,,,,,,,,,,12008,001,2024_Jun_14_1717,nback,2021.2.3,59.77522128598783,
0-back,instructions\back-0.png,conditions\0back-p.xlsx,instructions\0-BACK.png,"(15, 8)",practice,0,3,stim\gray.png,stim\gray.png,stim\yellow.png,stim\gray.png,right,0,0,0,0,0,0,0,0,0,7,7,7,,,,,,,,,,,,,,,,,,,,,,,,,,,32.3848047000356,33.38628299999982,32.3848047000356,33.38628299999982,32.3848047000356,33.38628299999982,32.3848047000356,33.38628299999982,None,0,32.3848047000356,None,32.3848047000356,None,32.3848047000356,32.88608570001088,32.3848047000356,32.88608570001088,32.3848047000356,32.88608570001088,32.3848047000356,32.88608570001088,32.3848047000356,None,,,,,,,,,,,,,,,,,,,,,,,,,,,,,,,,,,,,,,,,,,,12008,001,2024_Jun_14_1717,nback,2021.2.3,59.77522128598783,
0-back,instructions\back-0.png,conditions\0back-p.xlsx,instructions\0-BACK.png,"(15, 8)",practice,0,3,stim\gray.png,stim\gray.png,stim\yellow.png,stim\gray.png,right,0,0,0,0,0,0,0,0,0,8,8,8,,,,,,,,,,,,,,,,,,,,,,,,,,,33.88845720002428,34.88883060007356,33.88845720002428,34.88883060007356,33.88845720002428,34.88883060007356,33.88845720002428,34.88883060007356,None,0,33.88845720002428,None,33.88845720002428,None,33.88845720002428,34.387897700071335,33.88845720002428,34.387897700071335,33.88845720002428,34.387897700071335,33.88845720002428,34.387897700071335,33.88845720002428,None,,,,,,,,,,,,,,,,,,,,,,,,,,,,,,,,,,,,,,,,,,,12008,001,2024_Jun_14_1717,nback,2021.2.3,59.77522128598783,
0-back,instructions\back-0.png,conditions\0back-p.xlsx,instructions\0-BACK.png,"(15, 8)",practice,0,4,stim\gray.png,stim\gray.png,stim\gray.png,stim\yellow.png,down,0,0,0,0,0,0,0,0,0,9,9,9,,,,,,,,,,,,,,,,,,,,,,,,,,,35.389185999985784,36.39186720002908,35.389185999985784,36.39186720002908,35.389185999985784,36.39186720002908,35.389185999985784,36.39186720002908,None,0,35.389185999985784,None,35.389185999985784,None,35.389185999985784,35.890008399961516,35.389185999985784,35.890008399961516,35.389185999985784,35.890008399961516,35.389185999985784,35.890008399961516,35.389185999985784,None,,,,,,,,,,,,,,,,,,,,,,,,,,,,,,,,,,,,,,,,,,,12008,001,2024_Jun_14_1717,nback,2021.2.3,59.77522128598783,
0-back,instructions\back-0.png,conditions\0back-p.xlsx,instructions\0-BACK.png,"(15, 8)",practice,0,1,stim\yellow.png,stim\gray.png,stim\gray.png,stim\gray.png,up,0,0,0,0,0,0,0,0,0,10,10,10,,,,,,,,,,,,,,,,,,,,,,,,,,,36.89161250006873,37.89311429997906,36.89161250006873,37.89311429997906,36.89161250006873,37.89311429997906,36.89161250006873,37.89311429997906,None,0,36.89161250006873,None,36.89161250006873,None,36.89161250006873,37.39302529999986,36.89161250006873,37.39302529999986,36.89161250006873,37.39302529999986,36.89161250006873,37.39302529999986,36.89161250006873,None,,,,,,,,,,,,,,,,,,,,,,,,,,,,,,,,,,,,,,,,,,,12008,001,2024_Jun_14_1717,nback,2021.2.3,59.77522128598783,
0-back,instructions\back-0.png,conditions\0back-p.xlsx,instructions\0-BACK.png,"(15, 8)",practice,0,2,stim\gray.png,stim\yellow.png,stim\gray.png,stim\gray.png,left,0,0,0,0,0,0,0,0,0,11,11,11,,,,,,,,,,,,,,,,,,,,,,,,,,,38.39377730002161,39.39628570002969,38.39377730002161,39.39628570002969,38.39377730002161,39.39628570002969,38.39377730002161,39.39628570002969,None,0,38.39377730002161,None,38.39377730002161,None,38.39377730002161,38.89457340002991,38.39377730002161,38.89457340002991,38.39377730002161,38.89457340002991,38.39377730002161,38.89457340002991,38.39377730002161,None,,,,,,,,,,,,,,,,,,,,,,,,,,,,,,,,,,,,,,,,,,,12008,001,2024_Jun_14_1717,nback,2021.2.3,59.77522128598783,
0-back,instructions\back-0.png,conditions\0back-p.xlsx,instructions\0-BACK.png,"(15, 8)",practice,0,4,stim\gray.png,stim\gray.png,stim\gray.png,stim\yellow.png,down,0,0,0,0,0,0,0,0,0,12,12,12,,,,,,,,,,,,,,,,,,,,,,,,,,,39.89622180000879,40.8977387000341,39.89622180000879,40.8977387000341,39.89622180000879,40.8977387000341,39.89622180000879,40.8977387000341,None,0,39.89622180000879,None,39.89622180000879,None,39.89622180000879,40.3975118000526,39.89622180000879,40.3975118000526,39.89622180000879,40.3975118000526,39.89622180000879,40.3975118000526,39.89622180000879,None,,,,,,,,,,,,,,,,,,,,,,,,,,,,,,,,,,,,,,,,,,,12008,001,2024_Jun_14_1717,nback,2021.2.3,59.77522128598783,
0-back,instructions\back-0.png,conditions\0back-p.xlsx,instructions\0-BACK.png,"(15, 8)",practice,0,3,stim\gray.png,stim\gray.png,stim\yellow.png,stim\gray.png,right,0,0,0,0,0,0,0,0,0,13,13,13,,,,,,,,,,,,,,,,,,,,,,,,,,,41.398347400012426,42.40046739997342,41.398347400012426,42.40046739997342,41.398347400012426,42.40046739997342,41.398347400012426,42.40046739997342,None,0,41.398347400012426,None,41.398347400012426,None,41.398347400012426,41.89980859996285,41.398347400012426,41.89980859996285,41.398347400012426,41.89980859996285,41.398347400012426,41.89980859996285,41.398347400012426,None,,,,,,,,,,,,,,,,,,,,,,,,,,,,,,,,,,,,,,,,,,,12008,001,2024_Jun_14_1717,nback,2021.2.3,59.77522128598783,
0-back,instructions\back-0.png,conditions\0back-p.xlsx,instructions\0-BACK.png,"(15, 8)",practice,0,1,stim\yellow.png,stim\gray.png,stim\gray.png,stim\gray.png,up,0,0,0,0,0,0,0,0,0,14,14,14,,,,,,,,,,,,,,,,,,,,,,,,,,,42.88522669998929,43.88573930005077,42.88522669998929,43.88573930005077,42.88522669998929,43.88573930005077,42.88522669998929,43.88573930005077,None,0,42.88522669998929,None,42.88522669998929,None,42.88522669998929,43.385802300064825,42.88522669998929,43.385802300064825,42.88522669998929,43.385802300064825,42.88522669998929,43.385802300064825,42.88522669998929,None,,,,,,,,,,,,,,,,,,,,,,,,,,,,,,,,,,,,,,,,,,,12008,001,2024_Jun_14_1717,nback,2021.2.3,59.77522128598783,
0-back,instructions\back-0.png,conditions\0back-p.xlsx,instructions\0-BACK.png,"(15, 8)",practice,0,2,stim\gray.png,stim\yellow.png,stim\gray.png,stim\gray.png,left,0,0,0,0,0,0,0,0,0,15,15,15,,,,,,,,,,,,,,,,,,,,,,,,,,,44.38639390002936,45.388280100072734,44.38639390002936,45.388280100072734,44.38639390002936,45.388280100072734,44.38639390002936,45.388280100072734,left,1,44.38639390002936,None,44.38639390002936,None,44.38639390002936,44.887924700044096,44.38639390002936,44.887924700044096,44.38639390002936,44.887924700044096,44.38639390002936,44.887924700044096,44.38639390002936,None,0.7166437999112532,,,,,,,,,,,,,,,,,,,,,,,,,,,,,,,,,,,,,,,,,,12008,001,2024_Jun_14_1717,nback,2021.2.3,59.77522128598783,
0-back,instructions\back-0.png,conditions\0back-p.xlsx,instructions\0-BACK.png,"(15, 8)",practice,0,3,stim\gray.png,stim\gray.png,stim\yellow.png,stim\gray.png,right,0,0,0,0,0,0,0,0,0,16,16,16,,,,,,,,,,,,,,,,,,,,,,,,,,,45.8885627000127,46.88984499999788,45.8885627000127,46.88984499999788,45.8885627000127,46.88984499999788,45.8885627000127,46.88984499999788,right,1,45.8885627000127,None,45.8885627000127,None,45.8885627000127,46.38927160005551,45.8885627000127,46.38927160005551,45.8885627000127,46.38927160005551,45.8885627000127,46.38927160005551,45.8885627000127,None,0.3344153999350965,,,,,,,,,,,,,,,,,,,,,,,,,,,,,,,,,,,,,,,,,,12008,001,2024_Jun_14_1717,nback,2021.2.3,59.77522128598783,
0-back,instructions\back-0.png,conditions\0back-p.xlsx,instructions\0-BACK.png,"(15, 8)",practice,0,1,stim\yellow.png,stim\gray.png,stim\gray.png,stim\gray.png,up,0,0,0,0,0,0,0,0,0,17,17,17,,,,,,,,,,,,,,,,,,,,,,,,,,,47.39084220002405,48.39331509999465,47.39084220002405,48.39331509999465,47.39084220002405,48.39331509999465,47.39084220002405,48.39331509999465,up,1,47.39084220002405,None,47.39084220002405,None,47.39084220002405,47.891712000011466,47.39084220002405,47.891712000011466,47.39084220002405,47.891712000011466,47.39084220002405,47.891712000011466,47.39084220002405,None,0.31179369997698814,,,,,,,,,,,,,,,,,,,,,,,,,,,,,,,,,,,,,,,,,,12008,001,2024_Jun_14_1717,nback,2021.2.3,59.77522128598783,
0-back,instructions\back-0.png,conditions\0back-p.xlsx,instructions\0-BACK.png,"(15, 8)",practice,0,4,stim\gray.png,stim\gray.png,stim\gray.png,stim\yellow.png,down,0,0,0,0,0,0,0,0,0,18,18,18,,,,,,,,,,,,,,,,,,,,,,,,,,,48.89299039996695,49.894539700006135,48.89299039996695,49.894539700006135,48.89299039996695,49.894539700006135,48.89299039996695,49.894539700006135,down,1,48.89299039996695,None,48.89299039996695,None,48.89299039996695,49.39375559997279,48.89299039996695,49.39375559997279,48.89299039996695,49.39375559997279,48.89299039996695,49.39375559997279,48.89299039996695,None,0.298206300009042,,,,,,,,,,,,,,,,,,,,,,,,,,,,,,,,,,,,,,,,,,12008,001,2024_Jun_14_1717,nback,2021.2.3,59.77522128598783,
0-back,instructions\back-0.png,conditions\0back-p.xlsx,instructions\0-BACK.png,"(15, 8)",practice,0,2,stim\gray.png,stim\yellow.png,stim\gray.png,stim\gray.png,left,0,0,0,0,0,0,0,0,0,19,19,19,,,,,,,,,,,,,,,,,,,,,,,,,,,50.39521570003126,51.39689980004914,50.39521570003126,51.39689980004914,50.39521570003126,51.39689980004914,50.39521570003126,51.39689980004914,left,1,50.39521570003126,None,50.39521570003126,None,50.39521570003126,50.89677740004845,50.39521570003126,50.89677740004845,50.39521570003126,50.89677740004845,50.39521570003126,50.89677740004845,50.39521570003126,None,0.3157662999583408,,,,,,,,,,,,,,,,,,,,,,,,,,,,,,,,,,,,,,,,,,12008,001,2024_Jun_14_1717,nback,2021.2.3,59.77522128598783,
0-back,instructions\back-0.png,conditions\0back-p.xlsx,instructions\0-BACK.png,"(15, 8)",,,,,,,,,0,0,0,0,0,0,0,0,,,,,,,,,,,,,,,,,,,,,,,,,,,,,,,,,,,,,,,,,,,,,,,,,,,,,,,,,,,,,,,,,,,,,,,,,,,,,,,,,,,,,,,,,,,,,,,,,12008,001,2024_Jun_14_1717,nback,2021.2.3,59.77522128598783,
1-back,instructions\back-1.png,conditions\1back-p.xlsx,instructions\1-BACK.png,"(25, 15)",practice,1,1,stim\yellow.png,stim\gray.png,stim\gray.png,stim\gray.png,None,0,0,0,0,0,1,1,1,0,0,0,0,,,,,,,,,,,,,,,,,52.0977582000196,None,space,6.243755999952555,52.0977582000196,None,58.50741680001374,63.01647949998733,62.98122680000961,None,63.3816366000101,64.38439999998081,63.3816366000101,64.38439999998081,63.3816366000101,64.38439999998081,63.3816366000101,64.38439999998081,None,1,63.3816366000101,None,63.3816366000101,None,63.3816366000101,63.88255310000386,63.3816366000101,63.88255310000386,63.3816366000101,63.88255310000386,63.3816366000101,63.88255310000386,63.3816366000101,None,,,,,,,,,,,,,,,,,,,,,,,,,,,,,,,,,,,,,,,,,,,12008,001,2024_Jun_14_1717,nback,2021.2.3,59.77522128598783,
1-back,instructions\back-1.png,conditions\1back-p.xlsx,instructions\1-BACK.png,"(25, 15)",practice,1,2,stim\gray.png,stim\yellow.png,stim\gray.png,stim\gray.png,up,0,0,0,0,0,1,1,1,0,1,1,1,,,,,,,,,,,,,,,,,,,,,,,,,,,64.86700830003247,65.86934029997792,64.86700830003247,65.86934029997792,64.86700830003247,65.86934029997792,64.86700830003247,65.86934029997792,up,1,64.86700830003247,None,64.86700830003247,None,64.86700830003247,65.36786550004035,64.86700830003247,65.36786550004035,64.86700830003247,65.36786550004035,64.86700830003247,65.36786550004035,64.86700830003247,None,0.5083320999983698,,,,,,,,,,,,,,,,,,,,,,,,,,,,,,,,,,,,,,,,,,12008,001,2024_Jun_14_1717,nback,2021.2.3,59.77522128598783,
1-back,instructions\back-1.png,conditions\1back-p.xlsx,instructions\1-BACK.png,"(25, 15)",practice,1,3,stim\gray.png,stim\gray.png,stim\yellow.png,stim\gray.png,left,0,0,0,0,0,1,1,1,0,2,2,2,,,,,,,,,,,,,,,,,,,,,,,,,,,66.36939989996608,67.37143150006887,66.36939989996608,67.37143150006887,66.36939989996608,67.37143150006887,66.36939989996608,67.37143150006887,left,1,66.36939989996608,None,66.36939989996608,None,66.36939989996608,66.8710415000096,66.36939989996608,66.8710415000096,66.36939989996608,66.8710415000096,66.36939989996608,66.8710415000096,66.36939989996608,None,0.4300715000135824,,,,,,,,,,,,,,,,,,,,,,,,,,,,,,,,,,,,,,,,,,12008,001,2024_Jun_14_1717,nback,2021.2.3,59.77522128598783,
1-back,instructions\back-1.png,conditions\1back-p.xlsx,instructions\1-BACK.png,"(25, 15)",practice,1,4,stim\gray.png,stim\gray.png,stim\gray.png,stim\yellow.png,right,0,0,0,0,0,1,1,1,0,3,3,3,,,,,,,,,,,,,,,,,,,,,,,,,,,67.87161150004249,68.8732769000344,67.87161150004249,68.8732769000344,67.87161150004249,68.8732769000344,67.87161150004249,68.8732769000344,right,1,67.87161150004249,None,67.87161150004249,None,67.87161150004249,68.37223129998893,67.87161150004249,68.37223129998893,67.87161150004249,68.37223129998893,67.87161150004249,68.37223129998893,67.87161150004249,None,0.40001950005535036,,,,,,,,,,,,,,,,,,,,,,,,,,,,,,,,,,,,,,,,,,12008,001,2024_Jun_14_1717,nback,2021.2.3,59.77522128598783,
1-back,instructions\back-1.png,conditions\1back-p.xlsx,instructions\1-BACK.png,"(25, 15)",practice,1,2,stim\gray.png,stim\yellow.png,stim\gray.png,stim\gray.png,down,0,0,0,0,0,1,1,1,0,4,4,4,,,,,,,,,,,,,,,,,,,,,,,,,,,69.37467270006891,70.37590760004241,69.37467270006891,70.37590760004241,69.37467270006891,70.37590760004241,69.37467270006891,70.37590760004241,down,1,69.37467270006891,None,69.37467270006891,None,69.37467270006891,69.87467819999438,69.37467270006891,69.87467819999438,69.37467270006891,69.87467819999438,69.37467270006891,69.87467819999438,69.37467270006891,None,0.34477729990612715,,,,,,,,,,,,,,,,,,,,,,,,,,,,,,,,,,,,,,,,,,12008,001,2024_Jun_14_1717,nback,2021.2.3,59.77522128598783,
1-back,instructions\back-1.png,conditions\1back-p.xlsx,instructions\1-BACK.png,"(25, 15)",practice,1,1,stim\yellow.png,stim\gray.png,stim\gray.png,stim\gray.png,left,0,0,0,0,0,1,1,1,0,5,5,5,,,,,,,,,,,,,,,,,,,,,,,,,,,70.8762119000312,71.87779910000972,70.8762119000312,71.87779910000972,70.8762119000312,71.87779910000972,70.8762119000312,71.87779910000972,left,1,70.8762119000312,None,70.8762119000312,None,70.8762119000312,71.37698589998763,70.8762119000312,71.37698589998763,70.8762119000312,71.37698589998763,70.8762119000312,71.37698589998763,70.8762119000312,None,0.37153709994163364,,,,,,,,,,,,,,,,,,,,,,,,,,,,,,,,,,,,,,,,,,12008,001,2024_Jun_14_1717,nback,2021.2.3,59.77522128598783,
1-back,instructions\back-1.png,conditions\1back-p.xlsx,instructions\1-BACK.png,"(25, 15)",practice,1,4,stim\gray.png,stim\gray.png,stim\gray.png,stim\yellow.png,up,0,0,0,0,0,1,1,1,0,6,6,6,,,,,,,,,,,,,,,,,,,,,,,,,,,72.37852250004653,73.3801911000628,72.37852250004653,73.3801911000628,72.37852250004653,73.3801911000628,72.37852250004653,73.3801911000628,up,1,72.37852250004653,None,72.37852250004653,None,72.37852250004653,72.88010840001516,72.37852250004653,72.88010840001516,72.37852250004653,72.88010840001516,72.37852250004653,72.88010840001516,72.37852250004653,None,0.2450302999932319,,,,,,,,,,,,,,,,,,,,,,,,,,,,,,,,,,,,,,,,,,12008,001,2024_Jun_14_1717,nback,2021.2.3,59.77522128598783,
1-back,instructions\back-1.png,conditions\1back-p.xlsx,instructions\1-BACK.png,"(25, 15)",practice,1,3,stim\gray.png,stim\gray.png,stim\yellow.png,stim\gray.png,down,0,0,0,0,0,1,1,1,0,7,7,7,,,,,,,,,,,,,,,,,,,,,,,,,,,73.86382970004342,74.86554530006833,73.86382970004342,74.86554530006833,73.86382970004342,74.86554530006833,73.86382970004342,74.86554530006833,down,1,73.86382970004342,None,73.86382970004342,None,73.86382970004342,74.36561880004592,73.86382970004342,74.36561880004592,73.86382970004342,74.36561880004592,73.86382970004342,74.36561880004592,73.86382970004342,None,0.2723655999870971,,,,,,,,,,,,,,,,,,,,,,,,,,,,,,,,,,,,,,,,,,12008,001,2024_Jun_14_1717,nback,2021.2.3,59.77522128598783,
1-back,instructions\back-1.png,conditions\1back-p.xlsx,instructions\1-BACK.png,"(25, 15)",practice,1,3,stim\gray.png,stim\gray.png,stim\yellow.png,stim\gray.png,right,0,0,0,0,0,1,1,1,0,8,8,8,,,,,,,,,,,,,,,,,,,,,,,,,,,75.36641200003214,76.36778980004601,75.36641200003214,76.36778980004601,75.36641200003214,76.36778980004601,75.36641200003214,76.36778980004601,right,1,75.36641200003214,None,75.36641200003214,None,75.36641200003214,75.86780850007199,75.36641200003214,75.86780850007199,75.36641200003214,75.86780850007199,75.36641200003214,75.86780850007199,75.36641200003214,None,0.31352580001112074,,,,,,,,,,,,,,,,,,,,,,,,,,,,,,,,,,,,,,,,,,12008,001,2024_Jun_14_1717,nback,2021.2.3,59.77522128598783,
1-back,instructions\back-1.png,conditions\1back-p.xlsx,instructions\1-BACK.png,"(25, 15)",practice,1,4,stim\gray.png,stim\gray.png,stim\gray.png,stim\yellow.png,right,0,0,0,0,0,1,1,1,0,9,9,9,,,,,,,,,,,,,,,,,,,,,,,,,,,76.86848279996775,77.8703472999623,76.86848279996775,77.8703472999623,76.86848279996775,77.8703472999623,76.86848279996775,77.8703472999623,right,1,76.86848279996775,None,76.86848279996775,None,76.86848279996775,77.37012089998461,76.86848279996775,77.37012089998461,76.86848279996775,77.37012089998461,76.86848279996775,77.37012089998461,76.86848279996775,None,0.2519281000131741,,,,,,,,,,,,,,,,,,,,,,,,,,,,,,,,,,,,,,,,,,12008,001,2024_Jun_14_1717,nback,2021.2.3,59.77522128598783,
1-back,instructions\back-1.png,conditions\1back-p.xlsx,instructions\1-BACK.png,"(25, 15)",practice,1,1,stim\yellow.png,stim\gray.png,stim\gray.png,stim\gray.png,down,0,0,0,0,0,1,1,1,0,10,10,10,,,,,,,,,,,,,,,,,,,,,,,,,,,78.37141230003908,79.37323070003185,78.37141230003908,79.37323070003185,78.37141230003908,79.37323070003185,78.37141230003908,79.37323070003185,down,1,78.37141230003908,None,78.37141230003908,None,78.37141230003908,78.87183750001714,78.37141230003908,78.87183750001714,78.37141230003908,78.87183750001714,78.37141230003908,78.87183750001714,78.37141230003908,None,0.2601418000413105,,,,,,,,,,,,,,,,,,,,,,,,,,,,,,,,,,,,,,,,,,12008,001,2024_Jun_14_1717,nback,2021.2.3,59.77522128598783,
1-back,instructions\back-1.png,conditions\1back-p.xlsx,instructions\1-BACK.png,"(25, 15)",practice,1,2,stim\gray.png,stim\yellow.png,stim\gray.png,stim\gray.png,up,0,0,0,0,0,1,1,1,0,11,11,11,,,,,,,,,,,,,,,,,,,,,,,,,,,79.8736554000061,80.87460420001298,79.8736554000061,80.87460420001298,79.8736554000061,80.87460420001298,79.8736554000061,80.87460420001298,up,1,79.8736554000061,None,79.8736554000061,None,79.8736554000061,80.37459080002736,79.8736554000061,80.37459080002736,79.8736554000061,80.37459080002736,79.8736554000061,80.37459080002736,79.8736554000061,None,0.2627612000796944,,,,,,,,,,,,,,,,,,,,,,,,,,,,,,,,,,,,,,,,,,12008,001,2024_Jun_14_1717,nback,2021.2.3,59.77522128598783,
1-back,instructions\back-1.png,conditions\1back-p.xlsx,instructions\1-BACK.png,"(25, 15)",practice,1,4,stim\gray.png,stim\gray.png,stim\gray.png,stim\yellow.png,left,0,0,0,0,0,1,1,1,0,12,12,12,,,,,,,,,,,,,,,,,,,,,,,,,,,81.37522899999749,82.37689580000006,81.37522899999749,82.37689580000006,81.37522899999749,82.37689580000006,81.37522899999749,82.37689580000006,left,1,81.37522899999749,None,81.37522899999749,None,81.37522899999749,81.87690340005793,81.37522899999749,81.87690340005793,81.37522899999749,81.87690340005793,81.37522899999749,81.87690340005793,81.37522899999749,None,0.2486811000853777,,,,,,,,,,,,,,,,,,,,,,,,,,,,,,,,,,,,,,,,,,12008,001,2024_Jun_14_1717,nback,2021.2.3,59.77522128598783,
1-back,instructions\back-1.png,conditions\1back-p.xlsx,instructions\1-BACK.png,"(25, 15)",practice,1,3,stim\gray.png,stim\gray.png,stim\yellow.png,stim\gray.png,down,0,0,0,0,0,1,1,1,0,13,13,13,,,,,,,,,,,,,,,,,,,,,,,,,,,82.8789003000129,83.87964319996536,82.8789003000129,83.87964319996536,82.8789003000129,83.87964319996536,82.8789003000129,83.87964319996536,down,1,82.8789003000129,None,82.8789003000129,None,82.8789003000129,83.37979440006893,82.8789003000129,83.37979440006893,82.8789003000129,83.37979440006893,82.8789003000129,83.37979440006893,82.8789003000129,None,0.2727770999772474,,,,,,,,,,,,,,,,,,,,,,,,,,,,,,,,,,,,,,,,,,12008,001,2024_Jun_14_1717,nback,2021.2.3,59.77522128598783,
1-back,instructions\back-1.png,conditions\1back-p.xlsx,instructions\1-BACK.png,"(25, 15)",practice,1,1,stim\yellow.png,stim\gray.png,stim\gray.png,stim\gray.png,right,0,0,0,0,0,1,1,1,0,14,14,14,,,,,,,,,,,,,,,,,,,,,,,,,,,84.3630876999814,85.36527399998158,84.3630876999814,85.36527399998158,84.3630876999814,85.36527399998158,84.3630876999814,85.36527399998158,right,1,84.3630876999814,None,84.3630876999814,None,84.3630876999814,84.86476320005022,84.3630876999814,84.86476320005022,84.3630876999814,84.86476320005022,84.3630876999814,84.86476320005022,84.3630876999814,None,0.33281590009573847,,,,,,,,,,,,,,,,,,,,,,,,,,,,,,,,,,,,,,,,,,12008,001,2024_Jun_14_1717,nback,2021.2.3,59.77522128598783,
1-back,instructions\back-1.png,conditions\1back-p.xlsx,instructions\1-BACK.png,"(25, 15)",practice,1,2,stim\gray.png,stim\yellow.png,stim\gray.png,stim\gray.png,up,0,0,0,0,0,1,1,1,0,15,15,15,,,,,,,,,,,,,,,,,,,,,,,,,,,85.8653357999865,86.86789890006185,85.8653357999865,86.86789890006185,85.8653357999865,86.86789890006185,85.8653357999865,86.86789890006185,up,1,85.8653357999865,None,85.8653357999865,None,85.8653357999865,86.36748929996975,85.8653357999865,86.36748929996975,85.8653357999865,86.36748929996975,85.8653357999865,86.36748929996975,85.8653357999865,None,0.26260660006664693,,,,,,,,,,,,,,,,,,,,,,,,,,,,,,,,,,,,,,,,,,12008,001,2024_Jun_14_1717,nback,2021.2.3,59.77522128598783,
1-back,instructions\back-1.png,conditions\1back-p.xlsx,instructions\1-BACK.png,"(25, 15)",practice,1,3,stim\gray.png,stim\gray.png,stim\yellow.png,stim\gray.png,left,0,0,0,0,0,1,1,1,0,16,16,16,,,,,,,,,,,,,,,,,,,,,,,,,,,87.3676751999883,88.36916950007435,87.3676751999883,88.36916950007435,87.3676751999883,88.36916950007435,87.3676751999883,88.36916950007435,left,1,87.3676751999883,None,87.3676751999883,None,87.3676751999883,87.86849190003704,87.3676751999883,87.86849190003704,87.3676751999883,87.86849190003704,87.3676751999883,87.86849190003704,87.3676751999883,None,0.2728654999518767,,,,,,,,,,,,,,,,,,,,,,,,,,,,,,,,,,,,,,,,,,12008,001,2024_Jun_14_1717,nback,2021.2.3,59.77522128598783,
1-back,instructions\back-1.png,conditions\1back-p.xlsx,instructions\1-BACK.png,"(25, 15)",practice,1,1,stim\yellow.png,stim\gray.png,stim\gray.png,stim\gray.png,right,0,0,0,0,0,1,1,1,0,17,17,17,,,,,,,,,,,,,,,,,,,,,,,,,,,88.86989159998484,89.87264419998974,88.86989159998484,89.87264419998974,88.86989159998484,89.87264419998974,88.86989159998484,89.87264419998974,right,1,88.86989159998484,None,88.86989159998484,None,88.86989159998484,89.3711617999943,88.86989159998484,89.3711617999943,88.86989159998484,89.3711617999943,88.86989159998484,89.3711617999943,88.86989159998484,None,0.24247929989360273,,,,,,,,,,,,,,,,,,,,,,,,,,,,,,,,,,,,,,,,,,12008,001,2024_Jun_14_1717,nback,2021.2.3,59.77522128598783,
1-back,instructions\back-1.png,conditions\1back-p.xlsx,instructions\1-BACK.png,"(25, 15)",practice,1,4,stim\gray.png,stim\gray.png,stim\gray.png,stim\yellow.png,up,0,0,0,0,0,1,1,1,0,18,18,18,,,,,,,,,,,,,,,,,,,,,,,,,,,90.37336920003872,91.3739082000684,90.37336920003872,91.3739082000684,90.37336920003872,91.3739082000684,90.37336920003872,91.3739082000684,up,1,90.37336920003872,None,90.37336920003872,None,90.37336920003872,90.87347670004237,90.37336920003872,90.87347670004237,90.37336920003872,90.87347670004237,90.37336920003872,90.87347670004237,90.37336920003872,None,0.28249839995987713,,,,,,,,,,,,,,,,,,,,,,,,,,,,,,,,,,,,,,,,,,12008,001,2024_Jun_14_1717,nback,2021.2.3,59.77522128598783,
1-back,instructions\back-1.png,conditions\1back-p.xlsx,instructions\1-BACK.png,"(25, 15)",practice,1,2,stim\gray.png,stim\yellow.png,stim\gray.png,stim\gray.png,down,0,0,0,0,0,1,1,1,0,19,19,19,,,,,,,,,,,,,,,,,,,,,,,,,,,91.87439860007726,92.87692740000784,91.87439860007726,92.87692740000784,91.87439860007726,92.87692740000784,91.87439860007726,92.87692740000784,down,1,91.87439860007726,None,91.87439860007726,None,91.87439860007726,92.37595610006247,91.87439860007726,92.37595610006247,91.87439860007726,92.37595610006247,91.87439860007726,92.37595610006247,91.87439860007726,None,0.31811809993814677,,,,,,,,,,,,,,,,,,,,,,,,,,,,,,,,,,,,,,,,,,12008,001,2024_Jun_14_1717,nback,2021.2.3,59.77522128598783,
1-back,instructions\back-1.png,conditions\1back-p.xlsx,instructions\1-BACK.png,"(25, 15)",,,,,,,,,0,0,0,0,0,1,1,1,,,,,,,,,,,,,,,,,,,,,,,,,,,,,,,,,,,,,,,,,,,,,,,,,,,,,,,,,,,,,,,,,,,,,,,,,,,,,,,,,,,,,,,,,,,,,,,,,12008,001,2024_Jun_14_1717,nback,2021.2.3,59.77522128598783,
2-back,instructions\back-2.png,conditions\2back-p.xlsx,instructions\2-BACK.png,"(25, 15)",practice,2,1,stim\yellow.png,stim\gray.png,stim\gray.png,stim\gray.png,None,0,0,0,0,0,2,2,2,0,0,0,0,,,,,,,,,,,,,,,,,93.57803189998958,None,space,7.638834599987604,93.57803189998958,None,101.48894660000224,105.99799299996812,105.92983000003733,None,106.26366419997066,107.26548409997486,106.26366419997066,107.26548409997486,106.26366419997066,107.26548409997486,106.26366419997066,107.26548409997486,None,1,106.26366419997066,None,106.26366419997066,None,106.26366419997066,106.76371029997244,106.26366419997066,106.76371029997244,106.26366419997066,106.76371029997244,106.26366419997066,106.76371029997244,106.26366419997066,None,,,,,,,,,,,,,,,,,,,,,,,,,,,,,,,,,,,,,,,,,,,12008,001,2024_Jun_14_1717,nback,2021.2.3,59.77522128598783,
2-back,instructions\back-2.png,conditions\2back-p.xlsx,instructions\2-BACK.png,"(25, 15)",practice,2,2,stim\gray.png,stim\yellow.png,stim\gray.png,stim\gray.png,None,0,0,0,0,0,2,2,2,0,1,1,1,,,,,,,,,,,,,,,,,,,,,,,,,,,107.74856760003604,108.74981219996698,107.74856760003604,108.74981219996698,107.74856760003604,108.74981219996698,107.74856760003604,108.74981219996698,up,0,107.74856760003604,None,107.74856760003604,None,107.74856760003604,108.24905780004337,107.74856760003604,108.24905780004337,107.74856760003604,108.24905780004337,107.74856760003604,108.24905780004337,107.74856760003604,None,1.3398384999018162,,,,,,,,,,,,,,,,,,,,,,,,,,,,,,,,,,,,,,,,,,12008,001,2024_Jun_14_1717,nback,2021.2.3,59.77522128598783,
2-back,instructions\back-2.png,conditions\2back-p.xlsx,instructions\2-BACK.png,"(25, 15)",practice,2,3,stim\gray.png,stim\gray.png,stim\yellow.png,stim\gray.png,up,0,0,0,0,0,2,2,2,0,2,2,2,,,,,,,,,,,,,,,,,,,,,,,,,,,109.25074350007344,110.2528817000566,109.25074350007344,110.2528817000566,109.25074350007344,110.2528817000566,109.25074350007344,110.2528817000566,None,0,109.25074350007344,None,109.25074350007344,None,109.25074350007344,109.75179919996299,109.25074350007344,109.75179919996299,109.25074350007344,109.75179919996299,109.25074350007344,109.75179919996299,109.25074350007344,None,,,,,,,,,,,,,,,,,,,,,,,,,,,,,,,,,,,,,,,,,,,12008,001,2024_Jun_14_1717,nback,2021.2.3,59.77522128598783,
2-back,instructions\back-2.png,conditions\2back-p.xlsx,instructions\2-BACK.png,"(25, 15)",practice,2,4,stim\gray.png,stim\gray.png,stim\gray.png,stim\yellow.png,left,0,0,0,0,0,2,2,2,0,3,3,3,,,,,,,,,,,,,,,,,,,,,,,,,,,110.75384690007195,111.75541380001232,110.75384690007195,111.75541380001232,110.75384690007195,111.75541380001232,110.75384690007195,111.75541380001232,left,1,110.75384690007195,None,110.75384690007195,None,110.75384690007195,111.25431980006397,110.75384690007195,111.25431980006397,110.75384690007195,111.25431980006397,110.75384690007195,111.25431980006397,110.75384690007195,None,0.15059089998248965,,,,,,,,,,,,,,,,,,,,,,,,,,,,,,,,,,,,,,,,,,12008,001,2024_Jun_14_1717,nback,2021.2.3,59.77522128598783,
2-back,instructions\back-2.png,conditions\2back-p.xlsx,instructions\2-BACK.png,"(25, 15)",practice,2,2,stim\gray.png,stim\yellow.png,stim\gray.png,stim\gray.png,right,0,0,0,0,0,2,2,2,0,4,4,4,,,,,,,,,,,,,,,,,,,,,,,,,,,112.25545900000725,113.2575322999619,112.25545900000725,113.2575322999619,112.25545900000725,113.2575322999619,112.25545900000725,113.2575322999619,right,1,112.25545900000725,None,112.25545900000725,None,112.25545900000725,112.75706199998967,112.25545900000725,112.75706199998967,112.25545900000725,112.75706199998967,112.25545900000725,112.75706199998967,112.25545900000725,None,0.12981029995717108,,,,,,,,,,,,,,,,,,,,,,,,,,,,,,,,,,,,,,,,,,12008,001,2024_Jun_14_1717,nback,2021.2.3,59.77522128598783,
2-back,instructions\back-2.png,conditions\2back-p.xlsx,instructions\2-BACK.png,"(25, 15)",practice,2,1,stim\yellow.png,stim\gray.png,stim\gray.png,stim\gray.png,down,0,0,0,0,0,2,2,2,0,5,5,5,,,,,,,,,,,,,,,,,,,,,,,,,,,113.75744850002229,114.75999880000018,113.75744850002229,114.75999880000018,113.75744850002229,114.75999880000018,113.75744850002229,114.75999880000018,down,1,113.75744850002229,None,113.75744850002229,None,113.75744850002229,114.25868660002016,113.75744850002229,114.25868660002016,113.75744850002229,114.25868660002016,113.75744850002229,114.25868660002016,113.75744850002229,None,0.05158690002281219,,,,,,,,,,,,,,,,,,,,,,,,,,,,,,,,,,,,,,,,,,12008,001,2024_Jun_14_1717,nback,2021.2.3,59.77522128598783,
2-back,instructions\back-2.png,conditions\2back-p.xlsx,instructions\2-BACK.png,"(25, 15)",practice,2,4,stim\gray.png,stim\gray.png,stim\gray.png,stim\yellow.png,left,0,0,0,0,0,2,2,2,0,6,6,6,,,,,,,,,,,,,,,,,,,,,,,,,,,115.24309370003175,116.24476370005868,115.24309370003175,116.24476370005868,115.24309370003175,116.24476370005868,115.24309370003175,116.24476370005868,up,0,115.24309370003175,None,115.24309370003175,None,115.24309370003175,115.74516449996736,115.24309370003175,115.74516449996736,115.24309370003175,115.74516449996736,115.24309370003175,115.74516449996736,115.24309370003175,None,1.4213449000380933,,,,,,,,,,,,,,,,,,,,,,,,,,,,,,,,,,,,,,,,,,12008,001,2024_Jun_14_1717,nback,2021.2.3,59.77522128598783,
2-back,instructions\back-2.png,conditions\2back-p.xlsx,instructions\2-BACK.png,"(25, 15)",practice,2,3,stim\gray.png,stim\gray.png,stim\yellow.png,stim\gray.png,up,0,0,0,0,0,2,2,2,0,7,7,7,,,,,,,,,,,,,,,,,,,,,,,,,,,116.7460851999931,117.74869100004435,116.7460851999931,117.74869100004435,116.7460851999931,117.74869100004435,116.7460851999931,117.74869100004435,None,0,116.7460851999931,None,116.7460851999931,None,116.7460851999931,117.24695419997443,116.7460851999931,117.24695419997443,116.7460851999931,117.24695419997443,116.7460851999931,117.24695419997443,116.7460851999931,None,,,,,,,,,,,,,,,,,,,,,,,,,,,,,,,,,,,,,,,,,,,12008,001,2024_Jun_14_1717,nback,2021.2.3,59.77522128598783,
2-back,instructions\back-2.png,conditions\2back-p.xlsx,instructions\2-BACK.png,"(25, 15)",practice,2,3,stim\gray.png,stim\gray.png,stim\yellow.png,stim\gray.png,down,0,0,0,0,0,2,2,2,0,8,8,8,,,,,,,,,,,,,,,,,,,,,,,,,,,118.24743700004183,119.24900299997535,118.24743700004183,119.24900299997535,118.24743700004183,119.24900299997535,118.24743700004183,119.24900299997535,down,1,118.24743700004183,None,118.24743700004183,None,118.24743700004183,118.74840879999101,118.24743700004183,118.74840879999101,118.24743700004183,118.74840879999101,118.24743700004183,118.74840879999101,118.24743700004183,None,0.19329860003199428,,,,,,,,,,,,,,,,,,,,,,,,,,,,,,,,,,,,,,,,,,12008,001,2024_Jun_14_1717,nback,2021.2.3,59.77522128598783,
2-back,instructions\back-2.png,conditions\2back-p.xlsx,instructions\2-BACK.png,"(25, 15)",practice,2,4,stim\gray.png,stim\gray.png,stim\gray.png,stim\yellow.png,right,0,0,0,0,0,2,2,2,0,9,9,9,,,,,,,,,,,,,,,,,,,,,,,,,,,119.74972510000225,120.75191620003898,119.74972510000225,120.75191620003898,119.74972510000225,120.75191620003898,119.74972510000225,120.75191620003898,right,1,119.74972510000225,None,119.74972510000225,None,119.74972510000225,120.25156850006897,119.74972510000225,120.25156850006897,119.74972510000225,120.25156850006897,119.74972510000225,120.25156850006897,119.74972510000225,None,0.14744540001265705,,,,,,,,,,,,,,,,,,,,,,,,,,,,,,,,,,,,,,,,,,12008,001,2024_Jun_14_1717,nback,2021.2.3,59.77522128598783,
2-back,instructions\back-2.png,conditions\2back-p.xlsx,instructions\2-BACK.png,"(25, 15)",practice,2,1,stim\yellow.png,stim\gray.png,stim\gray.png,stim\gray.png,right,0,0,0,0,0,2,2,2,0,10,10,10,,,,,,,,,,,,,,,,,,,,,,,,,,,121.25176989997271,122.25439790007658,121.25176989997271,122.25439790007658,121.25176989997271,122.25439790007658,121.25176989997271,122.25439790007658,down,0,121.25176989997271,None,121.25176989997271,None,121.25176989997271,121.75270000007004,121.25176989997271,121.75270000007004,121.25176989997271,121.75270000007004,121.25176989997271,121.75270000007004,121.25176989997271,None,0.30134309991262853,,,,,,,,,,,,,,,,,,,,,,,,,,,,,,,,,,,,,,,,,,12008,001,2024_Jun_14_1717,nback,2021.2.3,59.77522128598783,
2-back,instructions\back-2.png,conditions\2back-p.xlsx,instructions\2-BACK.png,"(25, 15)",practice,2,2,stim\gray.png,stim\yellow.png,stim\gray.png,stim\gray.png,down,0,0,0,0,0,2,2,2,0,11,11,11,,,,,,,,,,,,,,,,,,,,,,,,,,,122.75447759998497,123.75680620002095,122.75447759998497,123.75680620002095,122.75447759998497,123.75680620002095,122.75447759998497,123.75680620002095,up,0,122.75447759998497,None,122.75447759998497,None,122.75447759998497,123.25533489999361,122.75447759998497,123.25533489999361,122.75447759998497,123.25533489999361,122.75447759998497,123.25533489999361,122.75447759998497,None,0.3754886999959126,,,,,,,,,,,,,,,,,,,,,,,,,,,,,,,,,,,,,,,,,,12008,001,2024_Jun_14_1717,nback,2021.2.3,59.77522128598783,
2-back,instructions\back-2.png,conditions\2back-p.xlsx,instructions\2-BACK.png,"(25, 15)",practice,2,4,stim\gray.png,stim\gray.png,stim\gray.png,stim\yellow.png,up,0,0,0,0,0,2,2,2,0,12,12,12,,,,,,,,,,,,,,,,,,,,,,,,,,,124.2582469000481,125.2604800000554,124.2582469000481,125.2604800000554,124.2582469000481,125.2604800000554,124.2582469000481,125.2604800000554,up,1,124.2582469000481,None,124.2582469000481,None,124.2582469000481,124.75798850005958,124.2582469000481,124.75798850005958,124.2582469000481,124.75798850005958,124.2582469000481,124.75798850005958,124.2582469000481,None,0.134802799904719,,,,,,,,,,,,,,,,,,,,,,,,,,,,,,,,,,,,,,,,,,12008,001,2024_Jun_14_1717,nback,2021.2.3,59.77522128598783,
2-back,instructions\back-2.png,conditions\2back-p.xlsx,instructions\2-BACK.png,"(25, 15)",practice,2,3,stim\gray.png,stim\gray.png,stim\yellow.png,stim\gray.png,left,0,0,0,0,0,2,2,2,0,13,13,13,,,,,,,,,,,,,,,,,,,,,,,,,,,125.75904490007088,126.76107929996215,125.75904490007088,126.76107929996215,125.75904490007088,126.76107929996215,125.75904490007088,126.76107929996215,left,1,125.75904490007088,None,125.75904490007088,None,125.75904490007088,126.26029210002162,125.75904490007088,126.26029210002162,125.75904490007088,126.26029210002162,125.75904490007088,126.26029210002162,125.75904490007088,None,0.1143103000940755,,,,,,,,,,,,,,,,,,,,,,,,,,,,,,,,,,,,,,,,,,12008,001,2024_Jun_14_1717,nback,2021.2.3,59.77522128598783,
2-back,instructions\back-2.png,conditions\2back-p.xlsx,instructions\2-BACK.png,"(25, 15)",practice,2,1,stim\yellow.png,stim\gray.png,stim\gray.png,stim\gray.png,down,0,0,0,0,0,2,2,2,0,14,14,14,,,,,,,,,,,,,,,,,,,,,,,,,,,127.24444510007743,128.24635110003874,127.24444510007743,128.24635110003874,127.24444510007743,128.24635110003874,127.24444510007743,128.24635110003874,down,1,127.24444510007743,None,127.24444510007743,None,127.24444510007743,127.7462512999773,127.24444510007743,127.7462512999773,127.24444510007743,127.7462512999773,127.24444510007743,127.7462512999773,127.24444510007743,None,0.18071539991069585,,,,,,,,,,,,,,,,,,,,,,,,,,,,,,,,,,,,,,,,,,12008,001,2024_Jun_14_1717,nback,2021.2.3,59.77522128598783,
2-back,instructions\back-2.png,conditions\2back-p.xlsx,instructions\2-BACK.png,"(25, 15)",practice,2,2,stim\gray.png,stim\yellow.png,stim\gray.png,stim\gray.png,right,0,0,0,0,0,2,2,2,0,15,15,15,,,,,,,,,,,,,,,,,,,,,,,,,,,128.74683409999125,129.74888079997618,128.74683409999125,129.74888079997618,128.74683409999125,129.74888079997618,128.74683409999125,129.74888079997618,right,1,128.74683409999125,None,128.74683409999125,None,128.74683409999125,129.24740590003785,128.74683409999125,129.24740590003785,128.74683409999125,129.24740590003785,128.74683409999125,129.24740590003785,128.74683409999125,None,0.23080789996311069,,,,,,,,,,,,,,,,,,,,,,,,,,,,,,,,,,,,,,,,,,12008,001,2024_Jun_14_1717,nback,2021.2.3,59.77522128598783,
2-back,instructions\back-2.png,conditions\2back-p.xlsx,instructions\2-BACK.png,"(25, 15)",practice,2,3,stim\gray.png,stim\gray.png,stim\yellow.png,stim\gray.png,up,0,0,0,0,0,2,2,2,0,16,16,16,,,,,,,,,,,,,,,,,,,,,,,,,,,130.24933680007234,131.25141210004222,130.24933680007234,131.25141210004222,130.24933680007234,131.25141210004222,130.24933680007234,131.25141210004222,up,1,130.24933680007234,None,130.24933680007234,None,130.24933680007234,130.74983190000057,130.24933680007234,130.74983190000057,130.24933680007234,130.74983190000057,130.24933680007234,130.74983190000057,130.24933680007234,None,0.2960333999944851,,,,,,,,,,,,,,,,,,,,,,,,,,,,,,,,,,,,,,,,,,12008,001,2024_Jun_14_1717,nback,2021.2.3,59.77522128598783,
2-back,instructions\back-2.png,conditions\2back-p.xlsx,instructions\2-BACK.png,"(25, 15)",practice,2,1,stim\yellow.png,stim\gray.png,stim\gray.png,stim\gray.png,left,0,0,0,0,0,2,2,2,0,17,17,17,,,,,,,,,,,,,,,,,,,,,,,,,,,131.75140349997673,132.7546801000135,131.75140349997673,132.7546801000135,131.75140349997673,132.7546801000135,131.75140349997673,132.7546801000135,left,1,131.75140349997673,None,131.75140349997673,None,131.75140349997673,132.25207609997597,131.75140349997673,132.25207609997597,131.75140349997673,132.25207609997597,131.75140349997673,132.25207609997597,131.75140349997673,None,0.17767889995593578,,,,,,,,,,,,,,,,,,,,,,,,,,,,,,,,,,,,,,,,,,12008,001,2024_Jun_14_1717,nback,2021.2.3,59.77522128598783,
2-back,instructions\back-2.png,conditions\2back-p.xlsx,instructions\2-BACK.png,"(25, 15)",practice,2,4,stim\gray.png,stim\gray.png,stim\gray.png,stim\yellow.png,right,0,0,0,0,0,2,2,2,0,18,18,18,,,,,,,,,,,,,,,,,,,,,,,,,,,133.253418300068,134.25622590002604,133.253418300068,134.25622590002604,133.253418300068,134.25622590002604,133.253418300068,134.25622590002604,right,1,133.253418300068,None,133.253418300068,None,133.253418300068,133.75436080002692,133.253418300068,133.75436080002692,133.253418300068,133.75436080002692,133.253418300068,133.75436080002692,133.253418300068,None,0.1480586000252515,,,,,,,,,,,,,,,,,,,,,,,,,,,,,,,,,,,,,,,,,,12008,001,2024_Jun_14_1717,nback,2021.2.3,59.77522128598783,
2-back,instructions\back-2.png,conditions\2back-p.xlsx,instructions\2-BACK.png,"(25, 15)",practice,2,2,stim\gray.png,stim\yellow.png,stim\gray.png,stim\gray.png,up,0,0,0,0,0,2,2,2,0,19,19,19,,,,,,,,,,,,,,,,,,,,,,,,,,,134.75568030006252,135.75757740007248,134.75568030006252,135.75757740007248,134.75568030006252,135.75757740007248,134.75568030006252,135.75757740007248,up,1,134.75568030006252,None,134.75568030006252,None,134.75568030006252,135.25751140003558,134.75568030006252,135.25751140003558,134.75568030006252,135.25751140003558,134.75568030006252,135.25751140003558,134.75568030006252,None,0.22189279994927347,,,,,,,,,,,,,,,,,,,,,,,,,,,,,,,,,,,,,,,,,,12008,001,2024_Jun_14_1717,nback,2021.2.3,59.77522128598783,
2-back,instructions\back-2.png,conditions\2back-p.xlsx,instructions\2-BACK.png,"(25, 15)",,,,,,,,,0,0,0,0,0,2,2,2,,,,,,,,,,,,,,,,,,,,,,,,,,,,,,,,,,,,,,,,,,,,,,,,,,,,,,,,,,,,,,,,,,,,,,,,,,,,,,,,,,,,,,,,,,,,,,,,,12008,001,2024_Jun_14_1717,nback,2021.2.3,59.77522128598783,
,,,,,,,,,,,,,0,0,0,0,,,,,,,,,,,,,,,,,,,,,,,,,,,,,,,,,,,,,,,,,,,,,,,,,,,,,,,,,,,,136.25900920003187,None,s,4.849128299974836,136.25900920003187,None,,,,,,,,,,,,,,,,,,,,,,,,,,,,,,,,,,,,12008,001,2024_Jun_14_1717,nback,2021.2.3,59.77522128598783,
0-back,instructions\back-0.png,conditions\0back-p.xlsx,instructions\0-BACK.png,"(15, 8)",practice,0,1,stim\yellow.png,stim\gray.png,stim\gray.png,stim\gray.png,up,1,0,1,0,0,0,0,0,0,0,0,0,,,,,,,,,,,,,,,,,141.19853789999615,None,space,7.051202800008468,141.19853789999615,None,148.54345160000958,153.05063439998776,152.96642010007054,None,153.3021472999826,154.30190449999645,153.3021472999826,154.30190449999645,153.3021472999826,154.30190449999645,153.3021472999826,154.30190449999645,up,1,153.3021472999826,None,153.3021472999826,None,153.3021472999826,153.80135239998344,153.3021472999826,153.80135239998344,153.3021472999826,153.80135239998344,153.3021472999826,153.80135239998344,153.3021472999826,None,0.9075430000666529,,,,,,,,,,,,,,,,,,,,,,,,,,,,,,,,,,,,,,,,,,12008,001,2024_Jun_14_1717,nback,2021.2.3,59.77522128598783,
0-back,instructions\back-0.png,conditions\0back-p.xlsx,instructions\0-BACK.png,"(15, 8)",practice,0,2,stim\gray.png,stim\yellow.png,stim\gray.png,stim\gray.png,left,1,0,1,0,0,0,0,0,0,1,1,1,,,,,,,,,,,,,,,,,,,,,,,,,,,154.78607869998086,155.78833510004915,154.78607869998086,155.78833510004915,154.78607869998086,155.78833510004915,154.78607869998086,155.78833510004915,left,1,154.78607869998086,None,154.78607869998086,None,154.78607869998086,155.28714360005688,154.78607869998086,155.28714360005688,154.78607869998086,155.28714360005688,154.78607869998086,155.28714360005688,154.78607869998086,None,0.5036249000113457,,,,,,,,,,,,,,,,,,,,,,,,,,,,,,,,,,,,,,,,,,12008,001,2024_Jun_14_1717,nback,2021.2.3,59.77522128598783,
0-back,instructions\back-0.png,conditions\0back-p.xlsx,instructions\0-BACK.png,"(15, 8)",practice,0,3,stim\gray.png,stim\gray.png,stim\yellow.png,stim\gray.png,right,1,0,1,0,0,0,0,0,0,2,2,2,,,,,,,,,,,,,,,,,,,,,,,,,,,156.28829250007402,157.29071049997583,156.28829250007402,157.29071049997583,156.28829250007402,157.29071049997583,156.28829250007402,157.29071049997583,right,1,156.28829250007402,None,156.28829250007402,None,156.28829250007402,156.78921910002828,156.28829250007402,156.78921910002828,156.28829250007402,156.78921910002828,156.28829250007402,156.78921910002828,156.28829250007402,None,1.2497649000724778,,,,,,,,,,,,,,,,,,,,,,,,,,,,,,,,,,,,,,,,,,12008,001,2024_Jun_14_1717,nback,2021.2.3,59.77522128598783,
0-back,instructions\back-0.png,conditions\0back-p.xlsx,instructions\0-BACK.png,"(15, 8)",practice,0,4,stim\gray.png,stim\gray.png,stim\gray.png,stim\yellow.png,down,1,0,1,0,0,0,0,0,0,3,3,3,,,,,,,,,,,,,,,,,,,,,,,,,,,157.79128350003157,158.7929120999761,157.79128350003157,158.7929120999761,157.79128350003157,158.7929120999761,157.79128350003157,158.7929120999761,down,1,157.79128350003157,None,157.79128350003157,None,157.79128350003157,158.29221760004293,157.79128350003157,158.29221760004293,157.79128350003157,158.29221760004293,157.79128350003157,158.29221760004293,157.79128350003157,None,1.0669026999967173,,,,,,,,,,,,,,,,,,,,,,,,,,,,,,,,,,,,,,,,,,12008,001,2024_Jun_14_1717,nback,2021.2.3,59.77522128598783,
0-back,instructions\back-0.png,conditions\0back-p.xlsx,instructions\0-BACK.png,"(15, 8)",practice,0,2,stim\gray.png,stim\yellow.png,stim\gray.png,stim\gray.png,left,1,0,1,0,0,0,0,0,0,4,4,4,,,,,,,,,,,,,,,,,,,,,,,,,,,159.29290260002017,160.2945529000135,159.29290260002017,160.2945529000135,159.29290260002017,160.2945529000135,159.29290260002017,160.2945529000135,left,1,159.29290260002017,None,159.29290260002017,None,159.29290260002017,159.79391530004796,159.29290260002017,159.79391530004796,159.29290260002017,159.79391530004796,159.29290260002017,159.79391530004796,159.29290260002017,None,0.8288861999753863,,,,,,,,,,,,,,,,,,,,,,,,,,,,,,,,,,,,,,,,,,12008,001,2024_Jun_14_1717,nback,2021.2.3,59.77522128598783,
0-back,instructions\back-0.png,conditions\0back-p.xlsx,instructions\0-BACK.png,"(15, 8)",practice,0,1,stim\yellow.png,stim\gray.png,stim\gray.png,stim\gray.png,up,1,0,1,0,0,0,0,0,0,5,5,5,,,,,,,,,,,,,,,,,,,,,,,,,,,160.79630110005382,161.79676589998417,160.79630110005382,161.79676589998417,160.79630110005382,161.79676589998417,160.79630110005382,161.79676589998417,up,1,160.79630110005382,None,160.79630110005382,None,160.79630110005382,161.29713439999614,160.79630110005382,161.29713439999614,160.79630110005382,161.29713439999614,160.79630110005382,161.29713439999614,160.79630110005382,None,0.4616030999459326,,,,,,,,,,,,,,,,,,,,,,,,,,,,,,,,,,,,,,,,,,12008,001,2024_Jun_14_1717,nback,2021.2.3,59.77522128598783,
0-back,instructions\back-0.png,conditions\0back-p.xlsx,instructions\0-BACK.png,"(15, 8)",practice,0,4,stim\gray.png,stim\gray.png,stim\gray.png,stim\yellow.png,down,1,0,1,0,0,0,0,0,0,6,6,6,,,,,,,,,,,,,,,,,,,,,,,,,,,162.29751209996175,163.29898189997766,162.29751209996175,163.29898189997766,162.29751209996175,163.29898189997766,162.29751209996175,163.29898189997766,down,1,162.29751209996175,None,162.29751209996175,None,162.29751209996175,162.79818350006826,162.29751209996175,162.79818350006826,162.29751209996175,162.79818350006826,162.29751209996175,162.79818350006826,162.29751209996175,None,0.5604158999631181,,,,,,,,,,,,,,,,,,,,,,,,,,,,,,,,,,,,,,,,,,12008,001,2024_Jun_14_1717,nback,2021.2.3,59.77522128598783,
0-back,instructions\back-0.png,conditions\0back-p.xlsx,instructions\0-BACK.png,"(15, 8)",practice,0,3,stim\gray.png,stim\gray.png,stim\yellow.png,stim\gray.png,right,1,0,1,0,0,0,0,0,0,7,7,7,,,,,,,,,,,,,,,,,,,,,,,,,,,163.7827685000375,164.78539109998383,163.7827685000375,164.78539109998383,163.7827685000375,164.78539109998383,163.7827685000375,164.78539109998383,right,1,163.7827685000375,None,163.7827685000375,None,163.7827685000375,164.28485890000593,163.7827685000375,164.28485890000593,163.7827685000375,164.28485890000593,163.7827685000375,164.28485890000593,163.7827685000375,None,0.5310023999772966,,,,,,,,,,,,,,,,,,,,,,,,,,,,,,,,,,,,,,,,,,12008,001,2024_Jun_14_1717,nback,2021.2.3,59.77522128598783,
0-back,instructions\back-0.png,conditions\0back-p.xlsx,instructions\0-BACK.png,"(15, 8)",practice,0,3,stim\gray.png,stim\gray.png,stim\yellow.png,stim\gray.png,right,1,0,1,0,0,0,0,0,0,8,8,8,,,,,,,,,,,,,,,,,,,,,,,,,,,165.28510590002406,166.28680340002757,165.28510590002406,166.28680340002757,165.28510590002406,166.28680340002757,165.28510590002406,166.28680340002757,right,1,165.28510590002406,None,165.28510590002406,None,165.28510590002406,165.78596550005022,165.28510590002406,165.78596550005022,165.28510590002406,165.78596550005022,165.28510590002406,165.78596550005022,165.28510590002406,None,0.4928440999938175,,,,,,,,,,,,,,,,,,,,,,,,,,,,,,,,,,,,,,,,,,12008,001,2024_Jun_14_1717,nback,2021.2.3,59.77522128598783,
0-back,instructions\back-0.png,conditions\0back-p.xlsx,instructions\0-BACK.png,"(15, 8)",practice,0,4,stim\gray.png,stim\gray.png,stim\gray.png,stim\yellow.png,down,1,0,1,0,0,0,0,0,0,9,9,9,,,,,,,,,,,,,,,,,,,,,,,,,,,166.78739620000124,167.79011100006755,166.78739620000124,167.79011100006755,166.78739620000124,167.79011100006755,166.78739620000124,167.79011100006755,down,1,166.78739620000124,None,166.78739620000124,None,166.78739620000124,167.28861200006213,166.78739620000124,167.28861200006213,166.78739620000124,167.28861200006213,166.78739620000124,167.28861200006213,166.78739620000124,None,0.5670810000738129,,,,,,,,,,,,,,,,,,,,,,,,,,,,,,,,,,,,,,,,,,12008,001,2024_Jun_14_1717,nback,2021.2.3,59.77522128598783,
0-back,instructions\back-0.png,conditions\0back-p.xlsx,instructions\0-BACK.png,"(15, 8)",practice,0,1,stim\yellow.png,stim\gray.png,stim\gray.png,stim\gray.png,up,1,0,1,0,0,0,0,0,0,10,10,10,,,,,,,,,,,,,,,,,,,,,,,,,,,168.28968479996547,169.2925914999796,168.28968479996547,169.2925914999796,168.28968479996547,169.2925914999796,168.28968479996547,169.2925914999796,up,1,168.28968479996547,None,168.28968479996547,None,168.28968479996547,168.79044000001159,168.28968479996547,168.79044000001159,168.28968479996547,168.79044000001159,168.28968479996547,168.79044000001159,168.28968479996547,None,0.5920785999624059,,,,,,,,,,,,,,,,,,,,,,,,,,,,,,,,,,,,,,,,,,12008,001,2024_Jun_14_1717,nback,2021.2.3,59.77522128598783,
0-back,instructions\back-0.png,conditions\0back-p.xlsx,instructions\0-BACK.png,"(15, 8)",practice,0,2,stim\gray.png,stim\yellow.png,stim\gray.png,stim\gray.png,left,1,0,1,0,0,0,0,0,0,11,11,11,,,,,,,,,,,,,,,,,,,,,,,,,,,169.7923041000031,170.79422370006796,169.7923041000031,170.79422370006796,169.7923041000031,170.79422370006796,169.7923041000031,170.79422370006796,left,1,169.7923041000031,None,169.7923041000031,None,169.7923041000031,170.2933465000242,169.7923041000031,170.2933465000242,169.7923041000031,170.2933465000242,169.7923041000031,170.2933465000242,169.7923041000031,None,0.6020173000870273,,,,,,,,,,,,,,,,,,,,,,,,,,,,,,,,,,,,,,,,,,12008,001,2024_Jun_14_1717,nback,2021.2.3,59.77522128598783,
0-back,instructions\back-0.png,conditions\0back-p.xlsx,instructions\0-BACK.png,"(15, 8)",practice,0,4,stim\gray.png,stim\gray.png,stim\gray.png,stim\yellow.png,down,1,0,1,0,0,0,0,0,0,12,12,12,,,,,,,,,,,,,,,,,,,,,,,,,,,171.29404060007073,172.29590230004396,171.29404060007073,172.29590230004396,171.29404060007073,172.29590230004396,171.29404060007073,172.29590230004396,down,1,171.29404060007073,None,171.29404060007073,None,171.29404060007073,171.7949479999952,171.29404060007073,171.7949479999952,171.29404060007073,171.7949479999952,171.29404060007073,171.7949479999952,171.29404060007073,None,0.43622779997531325,,,,,,,,,,,,,,,,,,,,,,,,,,,,,,,,,,,,,,,,,,12008,001,2024_Jun_14_1717,nback,2021.2.3,59.77522128598783,
0-back,instructions\back-0.png,conditions\0back-p.xlsx,instructions\0-BACK.png,"(15, 8)",practice,0,3,stim\gray.png,stim\gray.png,stim\yellow.png,stim\gray.png,right,1,0,1,0,0,0,0,0,0,13,13,13,,,,,,,,,,,,,,,,,,,,,,,,,,,172.79646380001213,173.79931230004877,172.79646380001213,173.79931230004877,172.79646380001213,173.79931230004877,172.79646380001213,173.79931230004877,right,1,172.79646380001213,None,172.79646380001213,None,172.79646380001213,173.29716560000088,172.79646380001213,173.29716560000088,172.79646380001213,173.29716560000088,172.79646380001213,173.29716560000088,172.79646380001213,None,0.437947699916549,,,,,,,,,,,,,,,,,,,,,,,,,,,,,,,,,,,,,,,,,,12008,001,2024_Jun_14_1717,nback,2021.2.3,59.77522128598783,
0-back,instructions\back-0.png,conditions\0back-p.xlsx,instructions\0-BACK.png,"(15, 8)",practice,0,1,stim\yellow.png,stim\gray.png,stim\gray.png,stim\gray.png,up,1,0,1,0,0,0,0,0,0,14,14,14,,,,,,,,,,,,,,,,,,,,,,,,,,,174.28310840006452,175.28440040000714,174.28310840006452,175.28440040000714,174.28310840006452,175.28440040000714,174.28310840006452,175.28440040000714,up,1,174.28310840006452,None,174.28310840006452,None,174.28310840006452,174.78316260001156,174.28310840006452,174.78316260001156,174.28310840006452,174.78316260001156,174.28310840006452,174.78316260001156,174.28310840006452,None,0.40708919998724014,,,,,,,,,,,,,,,,,,,,,,,,,,,,,,,,,,,,,,,,,,12008,001,2024_Jun_14_1717,nback,2021.2.3,59.77522128598783,
0-back,instructions\back-0.png,conditions\0back-p.xlsx,instructions\0-BACK.png,"(15, 8)",practice,0,2,stim\gray.png,stim\yellow.png,stim\gray.png,stim\gray.png,left,1,0,1,0,0,0,0,0,0,15,15,15,,,,,,,,,,,,,,,,,,,,,,,,,,,175.78517220006324,176.7867389000021,175.78517220006324,176.7867389000021,175.78517220006324,176.7867389000021,175.78517220006324,176.7867389000021,left,1,175.78517220006324,None,175.78517220006324,None,175.78517220006324,176.2853335000109,175.78517220006324,176.2853335000109,175.78517220006324,176.2853335000109,175.78517220006324,176.2853335000109,175.78517220006324,None,0.5530435000546277,,,,,,,,,,,,,,,,,,,,,,,,,,,,,,,,,,,,,,,,,,12008,001,2024_Jun_14_1717,nback,2021.2.3,59.77522128598783,
0-back,instructions\back-0.png,conditions\0back-p.xlsx,instructions\0-BACK.png,"(15, 8)",practice,0,3,stim\gray.png,stim\gray.png,stim\yellow.png,stim\gray.png,right,1,0,1,0,0,0,0,0,0,16,16,16,,,,,,,,,,,,,,,,,,,,,,,,,,,177.28746879997198,178.28929099999368,177.28746879997198,178.28929099999368,177.28746879997198,178.28929099999368,177.28746879997198,178.28929099999368,right,1,177.28746879997198,None,177.28746879997198,None,177.28746879997198,177.7889967999654,177.28746879997198,177.7889967999654,177.28746879997198,177.7889967999654,177.28746879997198,177.7889967999654,177.28746879997198,None,0.4832397000864148,,,,,,,,,,,,,,,,,,,,,,,,,,,,,,,,,,,,,,,,,,12008,001,2024_Jun_14_1717,nback,2021.2.3,59.77522128598783,
0-back,instructions\back-0.png,conditions\0back-p.xlsx,instructions\0-BACK.png,"(15, 8)",practice,0,1,stim\yellow.png,stim\gray.png,stim\gray.png,stim\gray.png,up,1,0,1,0,0,0,0,0,0,17,17,17,,,,,,,,,,,,,,,,,,,,,,,,,,,178.78877720003948,179.79072879999876,178.78877720003948,179.79072879999876,178.78877720003948,179.79072879999876,178.78877720003948,179.79072879999876,up,1,178.78877720003948,None,178.78877720003948,None,178.78877720003948,179.28964400000405,178.78877720003948,179.28964400000405,178.78877720003948,179.28964400000405,178.78877720003948,179.28964400000405,178.78877720003948,None,0.6861864998936653,,,,,,,,,,,,,,,,,,,,,,,,,,,,,,,,,,,,,,,,,,12008,001,2024_Jun_14_1717,nback,2021.2.3,59.77522128598783,
0-back,instructions\back-0.png,conditions\0back-p.xlsx,instructions\0-BACK.png,"(15, 8)",practice,0,4,stim\gray.png,stim\gray.png,stim\gray.png,stim\yellow.png,down,1,0,1,0,0,0,0,0,0,18,18,18,,,,,,,,,,,,,,,,,,,,,,,,,,,180.29104190005455,181.29373889998533,180.29104190005455,181.29373889998533,180.29104190005455,181.29373889998533,180.29104190005455,181.29373889998533,down,1,180.29104190005455,None,180.29104190005455,None,180.29104190005455,180.79173439997248,180.29104190005455,180.79173439997248,180.29104190005455,180.79173439997248,180.29104190005455,180.79173439997248,180.29104190005455,None,0.7914165999973193,,,,,,,,,,,,,,,,,,,,,,,,,,,,,,,,,,,,,,,,,,12008,001,2024_Jun_14_1717,nback,2021.2.3,59.77522128598783,
0-back,instructions\back-0.png,conditions\0back-p.xlsx,instructions\0-BACK.png,"(15, 8)",practice,0,2,stim\gray.png,stim\yellow.png,stim\gray.png,stim\gray.png,left,1,0,1,0,0,0,0,0,0,19,19,19,,,,,,,,,,,,,,,,,,,,,,,,,,,181.7936854000436,182.7957312000217,181.7936854000436,182.7957312000217,181.7936854000436,182.7957312000217,181.7936854000436,182.7957312000217,left,1,181.7936854000436,None,181.7936854000436,None,181.7936854000436,182.294072000077,181.7936854000436,182.294072000077,181.7936854000436,182.294072000077,181.7936854000436,182.294072000077,181.7936854000436,None,0.8487733999500051,,,,,,,,,,,,,,,,,,,,,,,,,,,,,,,,,,,,,,,,,,12008,001,2024_Jun_14_1717,nback,2021.2.3,59.77522128598783,
0-back,instructions\back-0.png,conditions\0back-p.xlsx,instructions\0-BACK.png,"(15, 8)",,,,,,,,,1,0,1,0,0,0,0,0,,,,,,,,,,,,,,,,,,,,,,,,,,,,,,,,,,,,,,,,,,,,,,,,,,,,,,,,,,,,,,,,,,,,,,,,,,,,,,,,,,,,,,,,,,,,,,,,,12008,001,2024_Jun_14_1717,nback,2021.2.3,59.77522128598783,
1-back,instructions\back-1.png,conditions\1back-p.xlsx,instructions\1-BACK.png,"(25, 15)",practice,1,1,stim\yellow.png,stim\gray.png,stim\gray.png,stim\gray.png,None,1,0,1,0,0,1,1,1,0,0,0,0,,,,,,,,,,,,,,,,,183.49603150004987,None,space,3.4508377000456676,183.49603150004987,None,187.08454110007733,191.59220319997985,191.5587265000213,None,191.99265380005818,192.9945105999941,191.99265380005818,192.9945105999941,191.99265380005818,192.9945105999941,191.99265380005818,192.9945105999941,None,1,191.99265380005818,None,191.99265380005818,None,191.99265380005818,192.49358250002842,191.99265380005818,192.49358250002842,191.99265380005818,192.49358250002842,191.99265380005818,192.49358250002842,191.99265380005818,None,,,,,,,,,,,,,,,,,,,,,,,,,,,,,,,,,,,,,,,,,,,12008,001,2024_Jun_14_1717,nback,2021.2.3,59.77522128598783,
1-back,instructions\back-1.png,conditions\1back-p.xlsx,instructions\1-BACK.png,"(25, 15)",practice,1,2,stim\gray.png,stim\yellow.png,stim\gray.png,stim\gray.png,up,1,0,1,0,0,1,1,1,0,1,1,1,,,,,,,,,,,,,,,,,,,,,,,,,,,193.47766630002297,194.47913590003736,193.47766630002297,194.47913590003736,193.47766630002297,194.47913590003736,193.47766630002297,194.47913590003736,up,1,193.47766630002297,None,193.47766630002297,None,193.47766630002297,193.97909280005842,193.47766630002297,193.97909280005842,193.47766630002297,193.97909280005842,193.47766630002297,193.97909280005842,193.47766630002297,None,0.3254785999888554,,,,,,,,,,,,,,,,,,,,,,,,,,,,,,,,,,,,,,,,,,12008,001,2024_Jun_14_1717,nback,2021.2.3,59.77522128598783,
1-back,instructions\back-1.png,conditions\1back-p.xlsx,instructions\1-BACK.png,"(25, 15)",practice,1,3,stim\gray.png,stim\gray.png,stim\yellow.png,stim\gray.png,left,1,0,1,0,0,1,1,1,0,2,2,2,,,,,,,,,,,,,,,,,,,,,,,,,,,194.98005630006082,195.98163749999367,194.98005630006082,195.98163749999367,194.98005630006082,195.98163749999367,194.98005630006082,195.98163749999367,left,1,194.98005630006082,None,194.98005630006082,None,194.98005630006082,195.4806743999943,194.98005630006082,195.4806743999943,194.98005630006082,195.4806743999943,194.98005630006082,195.4806743999943,194.98005630006082,None,0.23085369996260852,,,,,,,,,,,,,,,,,,,,,,,,,,,,,,,,,,,,,,,,,,12008,001,2024_Jun_14_1717,nback,2021.2.3,59.77522128598783,
1-back,instructions\back-1.png,conditions\1back-p.xlsx,instructions\1-BACK.png,"(25, 15)",practice,1,4,stim\gray.png,stim\gray.png,stim\gray.png,stim\yellow.png,right,1,0,1,0,0,1,1,1,0,3,3,3,,,,,,,,,,,,,,,,,,,,,,,,,,,196.4822113000555,197.48448230000213,196.4822113000555,197.48448230000213,196.4822113000555,197.48448230000213,196.4822113000555,197.48448230000213,right,1,196.4822113000555,None,196.4822113000555,None,196.4822113000555,196.9836793000577,196.4822113000555,196.9836793000577,196.4822113000555,196.9836793000577,196.4822113000555,196.9836793000577,196.4822113000555,None,0.20086630003061146,,,,,,,,,,,,,,,,,,,,,,,,,,,,,,,,,,,,,,,,,,12008,001,2024_Jun_14_1717,nback,2021.2.3,59.77522128598783,
1-back,instructions\back-1.png,conditions\1back-p.xlsx,instructions\1-BACK.png,"(25, 15)",practice,1,2,stim\gray.png,stim\yellow.png,stim\gray.png,stim\gray.png,down,1,0,1,0,0,1,1,1,0,4,4,4,,,,,,,,,,,,,,,,,,,,,,,,,,,197.98466409998946,198.98704849998467,197.98466409998946,198.98704849998467,197.98466409998946,198.98704849998467,197.98466409998946,198.98704849998467,down,1,197.98466409998946,None,197.98466409998946,None,197.98466409998946,198.48547660000622,197.98466409998946,198.48547660000622,197.98466409998946,198.48547660000622,197.98466409998946,198.48547660000622,197.98466409998946,None,0.2261222000233829,,,,,,,,,,,,,,,,,,,,,,,,,,,,,,,,,,,,,,,,,,12008,001,2024_Jun_14_1717,nback,2021.2.3,59.77522128598783,
1-back,instructions\back-1.png,conditions\1back-p.xlsx,instructions\1-BACK.png,"(25, 15)",practice,1,1,stim\yellow.png,stim\gray.png,stim\gray.png,stim\gray.png,left,1,0,1,0,0,1,1,1,0,5,5,5,,,,,,,,,,,,,,,,,,,,,,,,,,,199.48689659999218,200.48877519997768,199.48689659999218,200.48877519997768,199.48689659999218,200.48877519997768,199.48689659999218,200.48877519997768,left,1,199.48689659999218,None,199.48689659999218,None,199.48689659999218,199.98768809996545,199.48689659999218,199.98768809996545,199.48689659999218,199.98768809996545,199.48689659999218,199.98768809996545,199.48689659999218,None,0.284871399984695,,,,,,,,,,,,,,,,,,,,,,,,,,,,,,,,,,,,,,,,,,12008,001,2024_Jun_14_1717,nback,2021.2.3,59.77522128598783,
1-back,instructions\back-1.png,conditions\1back-p.xlsx,instructions\1-BACK.png,"(25, 15)",practice,1,4,stim\gray.png,stim\gray.png,stim\gray.png,stim\yellow.png,up,1,0,1,0,0,1,1,1,0,6,6,6,,,,,,,,,,,,,,,,,,,,,,,,,,,200.9730164000066,201.97427190002054,200.9730164000066,201.97427190002054,200.9730164000066,201.97427190002054,200.9730164000066,201.97427190002054,up,1,200.9730164000066,None,200.9730164000066,None,200.9730164000066,201.47422940004617,200.9730164000066,201.47422940004617,200.9730164000066,201.47422940004617,200.9730164000066,201.47422940004617,200.9730164000066,None,0.2622992000542581,,,,,,,,,,,,,,,,,,,,,,,,,,,,,,,,,,,,,,,,,,12008,001,2024_Jun_14_1717,nback,2021.2.3,59.77522128598783,
1-back,instructions\back-1.png,conditions\1back-p.xlsx,instructions\1-BACK.png,"(25, 15)",practice,1,3,stim\gray.png,stim\gray.png,stim\yellow.png,stim\gray.png,down,1,0,1,0,0,1,1,1,0,7,7,7,,,,,,,,,,,,,,,,,,,,,,,,,,,202.4745888999896,203.47617589996662,202.4745888999896,203.47617589996662,202.4745888999896,203.47617589996662,202.4745888999896,203.47617589996662,down,1,202.4745888999896,None,202.4745888999896,None,202.4745888999896,202.97561950003728,202.4745888999896,202.97561950003728,202.4745888999896,202.97561950003728,202.4745888999896,202.97561950003728,202.4745888999896,None,0.3126884000375867,,,,,,,,,,,,,,,,,,,,,,,,,,,,,,,,,,,,,,,,,,12008,001,2024_Jun_14_1717,nback,2021.2.3,59.77522128598783,
1-back,instructions\back-1.png,conditions\1back-p.xlsx,instructions\1-BACK.png,"(25, 15)",practice,1,3,stim\gray.png,stim\gray.png,stim\yellow.png,stim\gray.png,right,1,0,1,0,0,1,1,1,0,8,8,8,,,,,,,,,,,,,,,,,,,,,,,,,,,203.9769219000591,204.9792905000504,203.9769219000591,204.9792905000504,203.9769219000591,204.9792905000504,203.9769219000591,204.9792905000504,right,1,203.9769219000591,None,203.9769219000591,None,203.9769219000591,204.47852170001715,203.9769219000591,204.47852170001715,203.9769219000591,204.47852170001715,203.9769219000591,204.47852170001715,203.9769219000591,None,0.2505049000028521,,,,,,,,,,,,,,,,,,,,,,,,,,,,,,,,,,,,,,,,,,12008,001,2024_Jun_14_1717,nback,2021.2.3,59.77522128598783,
1-back,instructions\back-1.png,conditions\1back-p.xlsx,instructions\1-BACK.png,"(25, 15)",practice,1,4,stim\gray.png,stim\gray.png,stim\gray.png,stim\yellow.png,right,1,0,1,0,0,1,1,1,0,9,9,9,,,,,,,,,,,,,,,,,,,,,,,,,,,205.4791011000052,206.48064119997434,205.4791011000052,206.48064119997434,205.4791011000052,206.48064119997434,205.4791011000052,206.48064119997434,right,1,205.4791011000052,None,205.4791011000052,None,205.4791011000052,205.98073030007072,205.4791011000052,205.98073030007072,205.4791011000052,205.98073030007072,205.4791011000052,205.98073030007072,205.4791011000052,None,0.31630499998573214,,,,,,,,,,,,,,,,,,,,,,,,,,,,,,,,,,,,,,,,,,12008,001,2024_Jun_14_1717,nback,2021.2.3,59.77522128598783,
1-back,instructions\back-1.png,conditions\1back-p.xlsx,instructions\1-BACK.png,"(25, 15)",practice,1,1,stim\yellow.png,stim\gray.png,stim\gray.png,stim\gray.png,down,1,0,1,0,0,1,1,1,0,10,10,10,,,,,,,,,,,,,,,,,,,,,,,,,,,206.9818871000316,207.984025200014,206.9818871000316,207.984025200014,206.9818871000316,207.984025200014,206.9818871000316,207.984025200014,down,1,206.9818871000316,None,206.9818871000316,None,206.9818871000316,207.48311799997464,206.9818871000316,207.48311799997464,206.9818871000316,207.48311799997464,206.9818871000316,207.48311799997464,206.9818871000316,None,0.24581530003342777,,,,,,,,,,,,,,,,,,,,,,,,,,,,,,,,,,,,,,,,,,12008,001,2024_Jun_14_1717,nback,2021.2.3,59.77522128598783,
1-back,instructions\back-1.png,conditions\1back-p.xlsx,instructions\1-BACK.png,"(25, 15)",practice,1,2,stim\gray.png,stim\yellow.png,stim\gray.png,stim\gray.png,up,1,0,1,0,0,1,1,1,0,11,11,11,,,,,,,,,,,,,,,,,,,,,,,,,,,208.48341470002197,209.48638600006234,208.48341470002197,209.48638600006234,208.48341470002197,209.48638600006234,208.48341470002197,209.48638600006234,up,1,208.48341470002197,None,208.48341470002197,None,208.48341470002197,208.98451330000535,208.48341470002197,208.98451330000535,208.48341470002197,208.98451330000535,208.48341470002197,208.98451330000535,208.48341470002197,None,0.2721342999720946,,,,,,,,,,,,,,,,,,,,,,,,,,,,,,,,,,,,,,,,,,12008,001,2024_Jun_14_1717,nback,2021.2.3,59.77522128598783,
1-back,instructions\back-1.png,conditions\1back-p.xlsx,instructions\1-BACK.png,"(25, 15)",practice,1,4,stim\gray.png,stim\gray.png,stim\gray.png,stim\yellow.png,left,1,0,1,0,0,1,1,1,0,12,12,12,,,,,,,,,,,,,,,,,,,,,,,,,,,209.98591990000568,210.98743640002795,209.98591990000568,210.98743640002795,209.98591990000568,210.98743640002795,209.98591990000568,210.98743640002795,left,1,209.98591990000568,None,209.98591990000568,None,209.98591990000568,210.48721330007538,209.98591990000568,210.48721330007538,209.98591990000568,210.48721330007538,209.98591990000568,210.48721330007538,209.98591990000568,None,0.18529270007275045,,,,,,,,,,,,,,,,,,,,,,,,,,,,,,,,,,,,,,,,,,12008,001,2024_Jun_14_1717,nback,2021.2.3,59.77522128598783,
1-back,instructions\back-1.png,conditions\1back-p.xlsx,instructions\1-BACK.png,"(25, 15)",practice,1,3,stim\gray.png,stim\gray.png,stim\yellow.png,stim\gray.png,down,1,0,1,0,0,1,1,1,0,13,13,13,,,,,,,,,,,,,,,,,,,,,,,,,,,211.4722392000258,212.4730572999688,211.4722392000258,212.4730572999688,211.4722392000258,212.4730572999688,211.4722392000258,212.4730572999688,down,1,211.4722392000258,None,211.4722392000258,None,211.4722392000258,211.97318630001973,211.4722392000258,211.97318630001973,211.4722392000258,211.97318630001973,211.4722392000258,211.97318630001973,211.4722392000258,None,0.2268675999948755,,,,,,,,,,,,,,,,,,,,,,,,,,,,,,,,,,,,,,,,,,12008,001,2024_Jun_14_1717,nback,2021.2.3,59.77522128598783,
1-back,instructions\back-1.png,conditions\1back-p.xlsx,instructions\1-BACK.png,"(25, 15)",practice,1,1,stim\yellow.png,stim\gray.png,stim\gray.png,stim\gray.png,right,1,0,1,0,0,1,1,1,0,14,14,14,,,,,,,,,,,,,,,,,,,,,,,,,,,212.97377539996523,213.97531939996406,212.97377539996523,213.97531939996406,212.97377539996523,213.97531939996406,212.97377539996523,213.97531939996406,right,1,212.97377539996523,None,212.97377539996523,None,212.97377539996523,213.47539929999039,212.97377539996523,213.47539929999039,212.97377539996523,213.47539929999039,212.97377539996523,213.47539929999039,212.97377539996523,None,0.23788379994221032,,,,,,,,,,,,,,,,,,,,,,,,,,,,,,,,,,,,,,,,,,12008,001,2024_Jun_14_1717,nback,2021.2.3,59.77522128598783,
1-back,instructions\back-1.png,conditions\1back-p.xlsx,instructions\1-BACK.png,"(25, 15)",practice,1,2,stim\gray.png,stim\yellow.png,stim\gray.png,stim\gray.png,up,1,0,1,0,0,1,1,1,0,15,15,15,,,,,,,,,,,,,,,,,,,,,,,,,,,214.47593269997742,215.4787731000688,214.47593269997742,215.4787731000688,214.47593269997742,215.4787731000688,214.47593269997742,215.4787731000688,up,1,214.47593269997742,None,214.47593269997742,None,214.47593269997742,214.97782470006496,214.47593269997742,214.97782470006496,214.47593269997742,214.97782470006496,214.47593269997742,214.97782470006496,214.47593269997742,None,0.22309550002682954,,,,,,,,,,,,,,,,,,,,,,,,,,,,,,,,,,,,,,,,,,12008,001,2024_Jun_14_1717,nback,2021.2.3,59.77522128598783,
1-back,instructions\back-1.png,conditions\1back-p.xlsx,instructions\1-BACK.png,"(25, 15)",practice,1,3,stim\gray.png,stim\gray.png,stim\yellow.png,stim\gray.png,left,1,0,1,0,0,1,1,1,0,16,16,16,,,,,,,,,,,,,,,,,,,,,,,,,,,215.9788916000398,216.9803402000107,215.9788916000398,216.9803402000107,215.9788916000398,216.9803402000107,215.9788916000398,216.9803402000107,left,1,215.9788916000398,None,215.9788916000398,None,215.9788916000398,216.47976310004015,215.9788916000398,216.47976310004015,215.9788916000398,216.47976310004015,215.9788916000398,216.47976310004015,215.9788916000398,None,0.16062099998816848,,,,,,,,,,,,,,,,,,,,,,,,,,,,,,,,,,,,,,,,,,12008,001,2024_Jun_14_1717,nback,2021.2.3,59.77522128598783,
1-back,instructions\back-1.png,conditions\1back-p.xlsx,instructions\1-BACK.png,"(25, 15)",practice,1,1,stim\yellow.png,stim\gray.png,stim\gray.png,stim\gray.png,right,1,0,1,0,0,1,1,1,0,17,17,17,,,,,,,,,,,,,,,,,,,,,,,,,,,217.48051759996451,218.48228990007192,217.48051759996451,218.48228990007192,217.48051759996451,218.48228990007192,217.48051759996451,218.48228990007192,right,1,217.48051759996451,None,217.48051759996451,None,217.48051759996451,217.98143270006403,217.48051759996451,217.98143270006403,217.48051759996451,217.98143270006403,217.48051759996451,217.98143270006403,217.48051759996451,None,0.2113381999079138,,,,,,,,,,,,,,,,,,,,,,,,,,,,,,,,,,,,,,,,,,12008,001,2024_Jun_14_1717,nback,2021.2.3,59.77522128598783,
1-back,instructions\back-1.png,conditions\1back-p.xlsx,instructions\1-BACK.png,"(25, 15)",practice,1,4,stim\gray.png,stim\gray.png,stim\gray.png,stim\yellow.png,up,1,0,1,0,0,1,1,1,0,18,18,18,,,,,,,,,,,,,,,,,,,,,,,,,,,218.98275039996952,219.9863403000636,218.98275039996952,219.9863403000636,218.98275039996952,219.9863403000636,218.98275039996952,219.9863403000636,up,1,218.98275039996952,None,218.98275039996952,None,218.98275039996952,219.48367820004933,218.98275039996952,219.48367820004933,218.98275039996952,219.48367820004933,218.98275039996952,219.48367820004933,218.98275039996952,None,0.23706239997409284,,,,,,,,,,,,,,,,,,,,,,,,,,,,,,,,,,,,,,,,,,12008,001,2024_Jun_14_1717,nback,2021.2.3,59.77522128598783,
1-back,instructions\back-1.png,conditions\1back-p.xlsx,instructions\1-BACK.png,"(25, 15)",practice,1,2,stim\gray.png,stim\yellow.png,stim\gray.png,stim\gray.png,down,1,0,1,0,0,1,1,1,0,19,19,19,,,,,,,,,,,,,,,,,,,,,,,,,,,220.4851323000621,221.48766710003838,220.4851323000621,221.48766710003838,220.4851323000621,221.48766710003838,220.4851323000621,221.48766710003838,down,1,220.4851323000621,None,220.4851323000621,None,220.4851323000621,220.9859680000227,220.4851323000621,220.9859680000227,220.4851323000621,220.9859680000227,220.4851323000621,220.9859680000227,220.4851323000621,None,0.13482260005548596,,,,,,,,,,,,,,,,,,,,,,,,,,,,,,,,,,,,,,,,,,12008,001,2024_Jun_14_1717,nback,2021.2.3,59.77522128598783,
1-back,instructions\back-1.png,conditions\1back-p.xlsx,instructions\1-BACK.png,"(25, 15)",,,,,,,,,1,0,1,0,0,1,1,1,,,,,,,,,,,,,,,,,,,,,,,,,,,,,,,,,,,,,,,,,,,,,,,,,,,,,,,,,,,,,,,,,,,,,,,,,,,,,,,,,,,,,,,,,,,,,,,,,12008,001,2024_Jun_14_1717,nback,2021.2.3,59.77522128598783,
2-back,instructions\back-2.png,conditions\2back-p.xlsx,instructions\2-BACK.png,"(25, 15)",practice,2,1,stim\yellow.png,stim\gray.png,stim\gray.png,stim\gray.png,None,1,0,1,0,0,2,2,2,0,0,0,0,,,,,,,,,,,,,,,,,222.17131880007219,None,space,3.0401408000616357,222.17131880007219,None,225.42578970000613,229.93255180004053,229.83334860007744,None,230.25056489999406,231.25194290000945,230.25056489999406,231.25194290000945,230.25056489999406,231.25194290000945,230.25056489999406,231.25194290000945,None,1,230.25056489999406,None,230.25056489999406,None,230.25056489999406,230.75081560004037,230.25056489999406,230.75081560004037,230.25056489999406,230.75081560004037,230.25056489999406,230.75081560004037,230.25056489999406,None,,,,,,,,,,,,,,,,,,,,,,,,,,,,,,,,,,,,,,,,,,,12008,001,2024_Jun_14_1717,nback,2021.2.3,59.77522128598783,
2-back,instructions\back-2.png,conditions\2back-p.xlsx,instructions\2-BACK.png,"(25, 15)",practice,2,2,stim\gray.png,stim\yellow.png,stim\gray.png,stim\gray.png,None,1,0,1,0,0,2,2,2,0,1,1,1,,,,,,,,,,,,,,,,,,,,,,,,,,,231.73556379997171,232.7370341999922,231.73556379997171,232.7370341999922,231.73556379997171,232.7370341999922,231.73556379997171,232.7370341999922,None,1,231.73556379997171,None,231.73556379997171,None,231.73556379997171,232.2365425999742,231.73556379997171,232.2365425999742,231.73556379997171,232.2365425999742,231.73556379997171,232.2365425999742,231.73556379997171,None,,,,,,,,,,,,,,,,,,,,,,,,,,,,,,,,,,,,,,,,,,,12008,001,2024_Jun_14_1717,nback,2021.2.3,59.77522128598783,
2-back,instructions\back-2.png,conditions\2back-p.xlsx,instructions\2-BACK.png,"(25, 15)",practice,2,3,stim\gray.png,stim\gray.png,stim\yellow.png,stim\gray.png,up,1,0,1,0,0,2,2,2,0,2,2,2,,,,,,,,,,,,,,,,,,,,,,,,,,,233.23771410004701,234.23900729999878,233.23771410004701,234.23900729999878,233.23771410004701,234.23900729999878,233.23771410004701,234.23900729999878,up,1,233.23771410004701,None,233.23771410004701,None,233.23771410004701,233.73838520003483,233.23771410004701,233.73838520003483,233.23771410004701,233.73838520003483,233.23771410004701,233.73838520003483,233.23771410004701,None,0.15818629995919764,,,,,,,,,,,,,,,,,,,,,,,,,,,,,,,,,,,,,,,,,,12008,001,2024_Jun_14_1717,nback,2021.2.3,59.77522128598783,
2-back,instructions\back-2.png,conditions\2back-p.xlsx,instructions\2-BACK.png,"(25, 15)",practice,2,4,stim\gray.png,stim\gray.png,stim\gray.png,stim\yellow.png,left,1,0,1,0,0,2,2,2,0,3,3,3,,,,,,,,,,,,,,,,,,,,,,,,,,,234.7398741999641,235.741816499969,234.7398741999641,235.741816499969,234.7398741999641,235.741816499969,234.7398741999641,235.741816499969,left,1,234.7398741999641,None,234.7398741999641,None,234.7398741999641,235.24132130004,234.7398741999641,235.24132130004,234.7398741999641,235.24132130004,234.7398741999641,235.24132130004,234.7398741999641,None,0.20899650000501424,,,,,,,,,,,,,,,,,,,,,,,,,,,,,,,,,,,,,,,,,,12008,001,2024_Jun_14_1717,nback,2021.2.3,59.77522128598783,
2-back,instructions\back-2.png,conditions\2back-p.xlsx,instructions\2-BACK.png,"(25, 15)",practice,2,2,stim\gray.png,stim\yellow.png,stim\gray.png,stim\gray.png,right,1,0,1,0,0,2,2,2,0,4,4,4,,,,,,,,,,,,,,,,,,,,,,,,,,,236.2423407000024,237.24437980004586,236.2423407000024,237.24437980004586,236.2423407000024,237.24437980004586,236.2423407000024,237.24437980004586,right,1,236.2423407000024,None,236.2423407000024,None,236.2423407000024,236.74386879999656,236.2423407000024,236.74386879999656,236.2423407000024,236.74386879999656,236.2423407000024,236.74386879999656,236.2423407000024,None,0.13800280005671084,,,,,,,,,,,,,,,,,,,,,,,,,,,,,,,,,,,,,,,,,,12008,001,2024_Jun_14_1717,nback,2021.2.3,59.77522128598783,
2-back,instructions\back-2.png,conditions\2back-p.xlsx,instructions\2-BACK.png,"(25, 15)",practice,2,1,stim\yellow.png,stim\gray.png,stim\gray.png,stim\gray.png,down,1,0,1,0,0,2,2,2,0,5,5,5,,,,,,,,,,,,,,,,,,,,,,,,,,,237.74467010004446,238.74689100007527,237.74467010004446,238.74689100007527,237.74467010004446,238.74689100007527,237.74467010004446,238.74689100007527,down,1,237.74467010004446,None,237.74467010004446,None,237.74467010004446,238.2465362000512,237.74467010004446,238.2465362000512,237.74467010004446,238.2465362000512,237.74467010004446,238.2465362000512,237.74467010004446,None,0.1472515999339521,,,,,,,,,,,,,,,,,,,,,,,,,,,,,,,,,,,,,,,,,,12008,001,2024_Jun_14_1717,nback,2021.2.3,59.77522128598783,
2-back,instructions\back-2.png,conditions\2back-p.xlsx,instructions\2-BACK.png,"(25, 15)",practice,2,4,stim\gray.png,stim\gray.png,stim\gray.png,stim\yellow.png,left,1,0,1,0,0,2,2,2,0,6,6,6,,,,,,,,,,,,,,,,,,,,,,,,,,,239.24675020005088,240.24912070005666,239.24675020005088,240.24912070005666,239.24675020005088,240.24912070005666,239.24675020005088,240.24912070005666,left,1,239.24675020005088,None,239.24675020005088,None,239.24675020005088,239.74764980003238,239.24675020005088,239.74764980003238,239.24675020005088,239.74764980003238,239.24675020005088,239.74764980003238,239.24675020005088,None,0.11793120007496327,,,,,,,,,,,,,,,,,,,,,,,,,,,,,,,,,,,,,,,,,,12008,001,2024_Jun_14_1717,nback,2021.2.3,59.77522128598783,
2-back,instructions\back-2.png,conditions\2back-p.xlsx,instructions\2-BACK.png,"(25, 15)",practice,2,3,stim\gray.png,stim\gray.png,stim\yellow.png,stim\gray.png,up,1,0,1,0,0,2,2,2,0,7,7,7,,,,,,,,,,,,,,,,,,,,,,,,,,,240.7323430000106,241.7340683999937,240.7323430000106,241.7340683999937,240.7323430000106,241.7340683999937,240.7323430000106,241.7340683999937,up,1,240.7323430000106,None,240.7323430000106,None,240.7323430000106,241.23304159997497,240.7323430000106,241.23304159997497,240.7323430000106,241.23304159997497,240.7323430000106,241.23304159997497,240.7323430000106,None,0.07192580006085336,,,,,,,,,,,,,,,,,,,,,,,,,,,,,,,,,,,,,,,,,,12008,001,2024_Jun_14_1717,nback,2021.2.3,59.77522128598783,
2-back,instructions\back-2.png,conditions\2back-p.xlsx,instructions\2-BACK.png,"(25, 15)",practice,2,3,stim\gray.png,stim\gray.png,stim\yellow.png,stim\gray.png,down,1,0,1,0,0,2,2,2,0,8,8,8,,,,,,,,,,,,,,,,,,,,,,,,,,,242.23468630004209,243.236658000038,242.23468630004209,243.236658000038,242.23468630004209,243.236658000038,242.23468630004209,243.236658000038,down,1,242.23468630004209,None,242.23468630004209,None,242.23468630004209,242.73571270005777,242.23468630004209,242.73571270005777,242.23468630004209,242.73571270005777,242.23468630004209,242.73571270005777,242.23468630004209,None,0.09770379995461553,,,,,,,,,,,,,,,,,,,,,,,,,,,,,,,,,,,,,,,,,,12008,001,2024_Jun_14_1717,nback,2021.2.3,59.77522128598783,
2-back,instructions\back-2.png,conditions\2back-p.xlsx,instructions\2-BACK.png,"(25, 15)",practice,2,4,stim\gray.png,stim\gray.png,stim\gray.png,stim\yellow.png,right,1,0,1,0,0,2,2,2,0,9,9,9,,,,,,,,,,,,,,,,,,,,,,,,,,,243.73680970002897,244.73832400003448,243.73680970002897,244.73832400003448,243.73680970002897,244.73832400003448,243.73680970002897,244.73832400003448,right,1,243.73680970002897,None,243.73680970002897,None,243.73680970002897,244.2375541999936,243.73680970002897,244.2375541999936,243.73680970002897,244.2375541999936,243.73680970002897,244.2375541999936,243.73680970002897,None,0.09994900005403906,,,,,,,,,,,,,,,,,,,,,,,,,,,,,,,,,,,,,,,,,,12008,001,2024_Jun_14_1717,nback,2021.2.3,59.77522128598783,
2-back,instructions\back-2.png,conditions\2back-p.xlsx,instructions\2-BACK.png,"(25, 15)",practice,2,1,stim\yellow.png,stim\gray.png,stim\gray.png,stim\gray.png,right,1,0,1,0,0,2,2,2,0,10,10,10,,,,,,,,,,,,,,,,,,,,,,,,,,,245.24051719997078,246.24141999997664,245.24051719997078,246.24141999997664,245.24051719997078,246.24141999997664,245.24051719997078,246.24141999997664,right,1,245.24051719997078,None,245.24051719997078,None,245.24051719997078,245.74055250000674,245.24051719997078,245.74055250000674,245.24051719997078,245.74055250000674,245.24051719997078,245.74055250000674,245.24051719997078,None,0.14784340001642704,,,,,,,,,,,,,,,,,,,,,,,,,,,,,,,,,,,,,,,,,,12008,001,2024_Jun_14_1717,nback,2021.2.3,59.77522128598783,
2-back,instructions\back-2.png,conditions\2back-p.xlsx,instructions\2-BACK.png,"(25, 15)",practice,2,2,stim\gray.png,stim\yellow.png,stim\gray.png,stim\gray.png,down,1,0,1,0,0,2,2,2,0,11,11,11,,,,,,,,,,,,,,,,,,,,,,,,,,,246.7416640999727,247.74371070007328,246.7416640999727,247.74371070007328,246.7416640999727,247.74371070007328,246.7416640999727,247.74371070007328,down,1,246.7416640999727,None,246.7416640999727,None,246.7416640999727,247.2422130999621,246.7416640999727,247.2422130999621,246.7416640999727,247.2422130999621,246.7416640999727,247.2422130999621,246.7416640999727,None,0.150812599924393,,,,,,,,,,,,,,,,,,,,,,,,,,,,,,,,,,,,,,,,,,12008,001,2024_Jun_14_1717,nback,2021.2.3,59.77522128598783,
2-back,instructions\back-2.png,conditions\2back-p.xlsx,instructions\2-BACK.png,"(25, 15)",practice,2,4,stim\gray.png,stim\gray.png,stim\gray.png,stim\yellow.png,up,1,0,1,0,0,2,2,2,0,12,12,12,,,,,,,,,,,,,,,,,,,,,,,,,,,248.24364110000897,249.24600180005655,248.24364110000897,249.24600180005655,248.24364110000897,249.24600180005655,248.24364110000897,249.24600180005655,up,1,248.24364110000897,None,248.24364110000897,None,248.24364110000897,248.74445920006838,248.24364110000897,248.74445920006838,248.24364110000897,248.74445920006838,248.24364110000897,248.74445920006838,248.24364110000897,None,0.017057099961675704,,,,,,,,,,,,,,,,,,,,,,,,,,,,,,,,,,,,,,,,,,12008,001,2024_Jun_14_1717,nback,2021.2.3,59.77522128598783,
2-back,instructions\back-2.png,conditions\2back-p.xlsx,instructions\2-BACK.png,"(25, 15)",practice,2,3,stim\gray.png,stim\gray.png,stim\yellow.png,stim\gray.png,left,1,0,1,0,0,2,2,2,0,13,13,13,,,,,,,,,,,,,,,,,,,,,,,,,,,249.74594070005696,250.7475087000057,249.74594070005696,250.7475087000057,249.74594070005696,250.7475087000057,249.74594070005696,250.7475087000057,None,0,249.74594070005696,None,249.74594070005696,None,249.74594070005696,250.24784009996802,249.74594070005696,250.24784009996802,249.74594070005696,250.24784009996802,249.74594070005696,250.24784009996802,249.74594070005696,None,,,,,,,,,,,,,,,,,,,,,,,,,,,,,,,,,,,,,,,,,,,12008,001,2024_Jun_14_1717,nback,2021.2.3,59.77522128598783,
2-back,instructions\back-2.png,conditions\2back-p.xlsx,instructions\2-BACK.png,"(25, 15)",practice,2,1,stim\yellow.png,stim\gray.png,stim\gray.png,stim\gray.png,down,1,0,1,0,0,2,2,2,0,14,14,14,,,,,,,,,,,,,,,,,,,,,,,,,,,251.23205740004778,252.2328933000099,251.23205740004778,252.2328933000099,251.23205740004778,252.2328933000099,251.23205740004778,252.2328933000099,down,1,251.23205740004778,None,251.23205740004778,None,251.23205740004778,251.73265200003516,251.23205740004778,251.73265200003516,251.23205740004778,251.73265200003516,251.23205740004778,251.73265200003516,251.23205740004778,None,0.028707799967378378,,,,,,,,,,,,,,,,,,,,,,,,,,,,,,,,,,,,,,,,,,12008,001,2024_Jun_14_1717,nback,2021.2.3,59.77522128598783,
2-back,instructions\back-2.png,conditions\2back-p.xlsx,instructions\2-BACK.png,"(25, 15)",practice,2,2,stim\gray.png,stim\yellow.png,stim\gray.png,stim\gray.png,right,1,0,1,0,0,2,2,2,0,15,15,15,,,,,,,,,,,,,,,,,,,,,,,,,,,252.73378880007658,253.73572760005482,252.73378880007658,253.73572760005482,252.73378880007658,253.73572760005482,252.73378880007658,253.73572760005482,right,1,252.73378880007658,None,252.73378880007658,None,252.73378880007658,253.2350637000054,252.73378880007658,253.2350637000054,252.73378880007658,253.2350637000054,252.73378880007658,253.2350637000054,252.73378880007658,None,0.07119150005746633,,,,,,,,,,,,,,,,,,,,,,,,,,,,,,,,,,,,,,,,,,12008,001,2024_Jun_14_1717,nback,2021.2.3,59.77522128598783,
2-back,instructions\back-2.png,conditions\2back-p.xlsx,instructions\2-BACK.png,"(25, 15)",practice,2,3,stim\gray.png,stim\gray.png,stim\yellow.png,stim\gray.png,up,1,0,1,0,0,2,2,2,0,16,16,16,,,,,,,,,,,,,,,,,,,,,,,,,,,254.23595250002109,255.238274000003,254.23595250002109,255.238274000003,254.23595250002109,255.238274000003,254.23595250002109,255.238274000003,up,1,254.23595250002109,None,254.23595250002109,None,254.23595250002109,254.7367535000667,254.23595250002109,254.7367535000667,254.23595250002109,254.7367535000667,254.23595250002109,254.7367535000667,254.23595250002109,None,0.11302609997801483,,,,,,,,,,,,,,,,,,,,,,,,,,,,,,,,,,,,,,,,,,12008,001,2024_Jun_14_1717,nback,2021.2.3,59.77522128598783,
2-back,instructions\back-2.png,conditions\2back-p.xlsx,instructions\2-BACK.png,"(25, 15)",practice,2,1,stim\yellow.png,stim\gray.png,stim\gray.png,stim\gray.png,left,1,0,1,0,0,2,2,2,0,17,17,17,,,,,,,,,,,,,,,,,,,,,,,,,,,255.73895849997643,256.73995840002317,255.73895849997643,256.73995840002317,255.73895849997643,256.73995840002317,255.73895849997643,256.73995840002317,left,1,255.73895849997643,None,255.73895849997643,None,255.73895849997643,256.2390693000052,255.73895849997643,256.2390693000052,255.73895849997643,256.2390693000052,255.73895849997643,256.2390693000052,255.73895849997643,None,0.16171759995631874,,,,,,,,,,,,,,,,,,,,,,,,,,,,,,,,,,,,,,,,,,12008,001,2024_Jun_14_1717,nback,2021.2.3,59.77522128598783,
2-back,instructions\back-2.png,conditions\2back-p.xlsx,instructions\2-BACK.png,"(25, 15)",practice,2,4,stim\gray.png,stim\gray.png,stim\gray.png,stim\yellow.png,right,1,0,1,0,0,2,2,2,0,18,18,18,,,,,,,,,,,,,,,,,,,,,,,,,,,257.24062459997367,258.242478900007,257.24062459997367,258.242478900007,257.24062459997367,258.242478900007,257.24062459997367,258.242478900007,right,1,257.24062459997367,None,257.24062459997367,None,257.24062459997367,257.7420889000641,257.24062459997367,257.7420889000641,257.24062459997367,257.7420889000641,257.24062459997367,257.7420889000641,257.24062459997367,None,0.20393499999772757,,,,,,,,,,,,,,,,,,,,,,,,,,,,,,,,,,,,,,,,,,12008,001,2024_Jun_14_1717,nback,2021.2.3,59.77522128598783,
2-back,instructions\back-2.png,conditions\2back-p.xlsx,instructions\2-BACK.png,"(25, 15)",practice,2,2,stim\gray.png,stim\yellow.png,stim\gray.png,stim\gray.png,up,1,0,1,0,0,2,2,2,0,19,19,19,,,,,,,,,,,,,,,,,,,,,,,,,,,258.74294699996244,259.7444621999748,258.74294699996244,259.7444621999748,258.74294699996244,259.7444621999748,258.74294699996244,259.7444621999748,up,1,258.74294699996244,None,258.74294699996244,None,258.74294699996244,259.2436102000065,258.74294699996244,259.2436102000065,258.74294699996244,259.2436102000065,258.74294699996244,259.2436102000065,258.74294699996244,None,0.23786170000676066,,,,,,,,,,,,,,,,,,,,,,,,,,,,,,,,,,,,,,,,,,12008,001,2024_Jun_14_1717,nback,2021.2.3,59.77522128598783,
2-back,instructions\back-2.png,conditions\2back-p.xlsx,instructions\2-BACK.png,"(25, 15)",,,,,,,,,1,0,1,0,0,2,2,2,,,,,,,,,,,,,,,,,,,,,,,,,,,,,,,,,,,,,,,,,,,,,,,,,,,,,,,,,,,,,,,,,,,,,,,,,,,,,,,,,,,,,,,,,,,,,,,,,12008,001,2024_Jun_14_1717,nback,2021.2.3,59.77522128598783,
,,,,,,,,,,,,,1,0,1,0,,,,,,,,,,,,,,,,,,,,,,,,,,,,,,,,,,,,,,,,,,,,,,,,,,,,,,,,,,,,260.245905400021,None,space,6.294779199990444,260.245905400021,None,,,,,,,,,,,,,,,,,,,,,,,,,,,,,,,,,,,,12008,001,2024_Jun_14_1717,nback,2021.2.3,59.77522128598783,
,,,,,,,,,,,,,,,,,,,,,,,,,,,,,,,,,,,,,,,,,,,,,,,,,,,,,,,,,,,,,,,,,,,,,,,,,,,,,,,,,,266.57217060006224,None,space,21.20995419996325,266.57217060006224,None,,,,,,,,,,,,,,,,,,,,,,,,,,,,,,12008,001,2024_Jun_14_1717,nback,2021.2.3,59.77522128598783,
0-back,instructions\back-0.png,conditions\01back-e.xlsx,,,experiment,0,2,stim\gray.png,stim\yellow.png,stim\gray.png,stim\gray.png,left,,,,,,,,,,,,,0,0,0,4,0,0,0,0,,,,,,,,,,,,,,,288.02052849996835,292.52906410000287,292.4779507999774,None,,,,,,,,,,,,,,,,,,,,,,,,,,,,,,,,,,,,,,left,1,1.0251869999337941,292.8282841000473,None,292.8282841000473,None,292.8282841000473,293.82901129999664,292.8282841000473,293.82901129999664,292.8282841000473,293.82901129999664,292.8282841000473,293.82901129999664,292.8282841000473,293.32897220004816,292.8282841000473,293.32897220004816,292.8282841000473,293.32897220004816,292.8282841000473,293.32897220004816,292.8282841000473,None,,,,,12008,001,2024_Jun_14_1717,nback,2021.2.3,59.77522128598783,
0-back,instructions\back-0.png,conditions\01back-e.xlsx,,,experiment,0,4,stim\gray.png,stim\gray.png,stim\gray.png,stim\yellow.png,down,,,,,,,,,,,,,0,0,0,4,0,1,1,1,,,,,,,,,,,,,,,,,,,,,,,,,,,,,,,,,,,,,,,,,,,,,,,,,,,,,,,,down,1,1.1007580000441521,294.31305200001225,None,294.31305200001225,None,294.31305200001225,295.3149960000301,294.31305200001225,295.3149960000301,294.31305200001225,295.3149960000301,294.31305200001225,295.3149960000301,294.31305200001225,294.8138457000023,294.31305200001225,294.8138457000023,294.31305200001225,294.8138457000023,294.31305200001225,294.8138457000023,294.31305200001225,None,,,,,12008,001,2024_Jun_14_1717,nback,2021.2.3,59.77522128598783,
0-back,instructions\back-0.png,conditions\01back-e.xlsx,,,experiment,0,1,stim\yellow.png,stim\gray.png,stim\gray.png,stim\gray.png,up,,,,,,,,,,,,,0,0,0,4,0,2,2,2,,,,,,,,,,,,,,,,,,,,,,,,,,,,,,,,,,,,,,,,,,,,,,,,,,,,,,,,up,1,0.8382805000292137,295.81535619997885,None,295.81535619997885,None,295.81535619997885,296.8176267000381,295.81535619997885,296.8176267000381,295.81535619997885,296.8176267000381,295.81535619997885,296.8176267000381,295.81535619997885,296.3169525000267,295.81535619997885,296.3169525000267,295.81535619997885,296.3169525000267,295.81535619997885,296.3169525000267,295.81535619997885,None,,,,,12008,001,2024_Jun_14_1717,nback,2021.2.3,59.77522128598783,
0-back,instructions\back-0.png,conditions\01back-e.xlsx,,,experiment,0,2,stim\gray.png,stim\yellow.png,stim\gray.png,stim\gray.png,left,,,,,,,,,,,,,0,0,0,4,0,3,3,3,,,,,,,,,,,,,,,,,,,,,,,,,,,,,,,,,,,,,,,,,,,,,,,,,,,,,,,,left,1,0.7360587000148371,297.31772539997473,None,297.31772539997473,None,297.31772539997473,298.31964820006397,297.31772539997473,298.31964820006397,297.31772539997473,298.31964820006397,297.31772539997473,298.31964820006397,297.31772539997473,297.8195734000765,297.31772539997473,297.8195734000765,297.31772539997473,297.8195734000765,297.31772539997473,297.8195734000765,297.31772539997473,None,,,,,12008,001,2024_Jun_14_1717,nback,2021.2.3,59.77522128598783,
0-back,instructions\back-0.png,conditions\01back-e.xlsx,,,experiment,0,3,stim\gray.png,stim\gray.png,stim\yellow.png,stim\gray.png,right,,,,,,,,,,,,,0,0,0,4,0,4,4,4,,,,,,,,,,,,,,,,,,,,,,,,,,,,,,,,,,,,,,,,,,,,,,,,,,,,,,,,right,1,0.857160700019449,298.8204119000584,None,298.8204119000584,None,298.8204119000584,299.8212701000739,298.8204119000584,299.8212701000739,298.8204119000584,299.8212701000739,298.8204119000584,299.8212701000739,298.8204119000584,299.32084429997485,298.8204119000584,299.32084429997485,298.8204119000584,299.32084429997485,298.8204119000584,299.32084429997485,298.8204119000584,None,,,,,12008,001,2024_Jun_14_1717,nback,2021.2.3,59.77522128598783,
0-back,instructions\back-0.png,conditions\01back-e.xlsx,,,experiment,0,1,stim\yellow.png,stim\gray.png,stim\gray.png,stim\gray.png,up,,,,,,,,,,,,,0,0,0,4,0,5,5,5,,,,,,,,,,,,,,,,,,,,,,,,,,,,,,,,,,,,,,,,,,,,,,,,,,,,,,,,up,1,0.9797758999047801,300.322236899985,None,300.322236899985,None,300.322236899985,301.32366550003644,300.322236899985,301.32366550003644,300.322236899985,301.32366550003644,300.322236899985,301.32366550003644,300.322236899985,300.82423310005106,300.322236899985,300.82423310005106,300.322236899985,300.82423310005106,300.322236899985,300.82423310005106,300.322236899985,None,,,,,12008,001,2024_Jun_14_1717,nback,2021.2.3,59.77522128598783,
0-back,instructions\back-0.png,conditions\01back-e.xlsx,,,experiment,0,4,stim\gray.png,stim\gray.png,stim\gray.png,stim\yellow.png,down,,,,,,,,,,,,,0,0,0,4,0,6,6,6,,,,,,,,,,,,,,,,,,,,,,,,,,,,,,,,,,,,,,,,,,,,,,,,,,,,,,,,down,1,0.957671899930574,301.80821689998265,None,301.80821689998265,None,301.80821689998265,302.81002930004615,301.80821689998265,302.81002930004615,301.80821689998265,302.81002930004615,301.80821689998265,302.81002930004615,301.80821689998265,302.30845879996195,301.80821689998265,302.30845879996195,301.80821689998265,302.30845879996195,301.80821689998265,302.30845879996195,301.80821689998265,None,,,,,12008,001,2024_Jun_14_1717,nback,2021.2.3,59.77522128598783,
0-back,instructions\back-0.png,conditions\01back-e.xlsx,,,experiment,0,3,stim\gray.png,stim\gray.png,stim\yellow.png,stim\gray.png,right,,,,,,,,,,,,,0,0,0,4,0,7,7,7,,,,,,,,,,,,,,,,,,,,,,,,,,,,,,,,,,,,,,,,,,,,,,,,,,,,,,,,right,1,0.9363983999937773,303.31009970000014,None,303.31009970000014,None,303.31009970000014,304.31239530001767,303.31009970000014,304.31239530001767,303.31009970000014,304.31239530001767,303.31009970000014,304.31239530001767,303.31009970000014,303.81160110002384,303.31009970000014,303.81160110002384,303.31009970000014,303.81160110002384,303.31009970000014,303.81160110002384,303.31009970000014,None,,,,,12008,001,2024_Jun_14_1717,nback,2021.2.3,59.77522128598783,
0-back,instructions\back-0.png,conditions\01back-e.xlsx,,,experiment,0,4,stim\gray.png,stim\gray.png,stim\gray.png,stim\yellow.png,down,,,,,,,,,,,,,0,0,0,4,0,8,8,8,,,,,,,,,,,,,,,,,,,,,,,,,,,,,,,,,,,,,,,,,,,,,,,,,,,,,,,,down,1,0.8421572999795899,304.81219560001045,None,304.81219560001045,None,304.81219560001045,305.8146474000532,304.81219560001045,305.8146474000532,304.81219560001045,305.8146474000532,304.81219560001045,305.8146474000532,304.81219560001045,305.31311880005524,304.81219560001045,305.31311880005524,304.81219560001045,305.31311880005524,304.81219560001045,305.31311880005524,304.81219560001045,None,,,,,12008,001,2024_Jun_14_1717,nback,2021.2.3,59.77522128598783,
0-back,instructions\back-0.png,conditions\01back-e.xlsx,,,experiment,0,3,stim\gray.png,stim\gray.png,stim\yellow.png,stim\gray.png,right,,,,,,,,,,,,,0,0,0,4,0,9,9,9,,,,,,,,,,,,,,,,,,,,,,,,,,,,,,,,,,,,,,,,,,,,,,,,,,,,,,,,right,1,0.8434081999585032,306.3148815999739,None,306.3148815999739,None,306.3148815999739,307.31685760000255,306.3148815999739,307.31685760000255,306.3148815999739,307.31685760000255,306.3148815999739,307.31685760000255,306.3148815999739,306.81661049998365,306.3148815999739,306.81661049998365,306.3148815999739,306.81661049998365,306.3148815999739,306.81661049998365,306.3148815999739,None,,,,,12008,001,2024_Jun_14_1717,nback,2021.2.3,59.77522128598783,
0-back,instructions\back-0.png,conditions\01back-e.xlsx,,,experiment,0,3,stim\gray.png,stim\gray.png,stim\yellow.png,stim\gray.png,right,,,,,,,,,,,,,0,0,0,4,0,10,10,10,,,,,,,,,,,,,,,,,,,,,,,,,,,,,,,,,,,,,,,,,,,,,,,,,,,,,,,,right,1,0.9489879999309778,307.81679650000297,None,307.81679650000297,None,307.81679650000297,308.81915230001323,307.81679650000297,308.81915230001323,307.81679650000297,308.81915230001323,307.81679650000297,308.81915230001323,307.81679650000297,308.3176543000154,307.81679650000297,308.3176543000154,307.81679650000297,308.3176543000154,307.81679650000297,308.3176543000154,307.81679650000297,None,,,,,12008,001,2024_Jun_14_1717,nback,2021.2.3,59.77522128598783,
0-back,instructions\back-0.png,conditions\01back-e.xlsx,,,experiment,0,1,stim\yellow.png,stim\gray.png,stim\gray.png,stim\gray.png,up,,,,,,,,,,,,,0,0,0,4,0,11,11,11,,,,,,,,,,,,,,,,,,,,,,,,,,,,,,,,,,,,,,,,,,,,,,,,,,,,,,,,up,1,0.8466340999584645,309.31968389998656,None,309.31968389998656,None,309.31968389998656,310.32052690000273,309.31968389998656,310.32052690000273,309.31968389998656,310.32052690000273,309.31968389998656,310.32052690000273,309.31968389998656,309.819875300047,309.31968389998656,309.819875300047,309.31968389998656,309.819875300047,309.31968389998656,309.819875300047,309.31968389998656,None,,,,,12008,001,2024_Jun_14_1717,nback,2021.2.3,59.77522128598783,
0-back,instructions\back-0.png,conditions\01back-e.xlsx,,,experiment,0,3,stim\gray.png,stim\gray.png,stim\yellow.png,stim\gray.png,right,,,,,,,,,,,,,0,0,0,4,0,12,12,12,,,,,,,,,,,,,,,,,,,,,,,,,,,,,,,,,,,,,,,,,,,,,,,,,,,,,,,,right,1,0.9597790000261739,310.8222926000599,None,310.8222926000599,None,310.8222926000599,311.8248301000567,310.8222926000599,311.8248301000567,310.8222926000599,311.8248301000567,310.8222926000599,311.8248301000567,310.8222926000599,311.3231727000093,310.8222926000599,311.3231727000093,310.8222926000599,311.3231727000093,310.8222926000599,311.3231727000093,310.8222926000599,None,,,,,12008,001,2024_Jun_14_1717,nback,2021.2.3,59.77522128598783,
0-back,instructions\back-0.png,conditions\01back-e.xlsx,,,experiment,0,1,stim\yellow.png,stim\gray.png,stim\gray.png,stim\gray.png,up,,,,,,,,,,,,,0,0,0,4,0,13,13,13,,,,,,,,,,,,,,,,,,,,,,,,,,,,,,,,,,,,,,,,,,,,,,,,,,,,,,,,up,1,0.9473259000806138,312.306708100019,None,312.306708100019,None,312.306708100019,313.3090820000507,312.306708100019,313.3090820000507,312.306708100019,313.3090820000507,312.306708100019,313.3090820000507,312.306708100019,312.80772120004985,312.306708100019,312.80772120004985,312.306708100019,312.80772120004985,312.306708100019,312.80772120004985,312.306708100019,None,,,,,12008,001,2024_Jun_14_1717,nback,2021.2.3,59.77522128598783,
