backseq,backinstr,backfile,instruction,Trialtype,back,number,P1,P2,P3,P4,corrAns,trials_practice.thisRepN,trials_practice.thisTrialN,trials_practice.thisN,trials_practice.thisIndex,trials.thisRepN,trials.thisTrialN,trials.thisN,trials.thisIndex,trials_3.thisRepN,trials_3.thisTrialN,trials_3.thisN,trials_3.thisIndex,trials_2.thisRepN,trials_2.thisTrialN,trials_2.thisN,trials_2.thisIndex,trials_4.thisRepN,trials_4.thisTrialN,trials_4.thisN,trials_4.thisIndex,image.started,image_2.started,key_resp.started,key_resp.keys,key_resp.rt,image_3.started,key_resp_2.started,key_resp_2.keys,key_resp_2.rt,image_4.started,text.started,image_4.stopped,text.stopped,H1.started,H2.started,H3.started,H4.started,key_resp_3.started,text_4.started,F1.started,F2.started,F3.started,F4.started,image_7.started,F1.stopped,F2.stopped,F3.stopped,F4.stopped,key_resp_3.keys,key_resp_3.corr,key_resp_3.rt,H1.stopped,H2.stopped,H3.stopped,H4.stopped,key_resp_3.stopped,text_4.stopped,image_7.stopped,text_5.started,key_resp_6.started,key_resp_6.keys,key_resp_6.rt,image_5.started,key_resp_4.started,key_resp_4.keys,key_resp_4.rt,key_resp_5.started,text_3.started,H1_2.started,H2_2.started,H3_2.started,H4_2.started,F1_2.started,F2_2.started,F3_2.started,F4_2.started,image_8.started,F1_2.stopped,F2_2.stopped,F3_2.stopped,F4_2.stopped,key_resp_5.keys,key_resp_5.corr,key_resp_5.rt,key_resp_5.stopped,text_3.stopped,H1_2.stopped,H2_2.stopped,H3_2.stopped,H4_2.stopped,image_8.stopped,text_2.started,text_2.stopped,image_6.started,participant,session,date,expName,psychopyVersion,frameRate,
,,,,,,,,,,,,,,,,,,,,,,,,,,,,,,,,23.229285200010054,24.201889800009667,24.201889800009667,space,48.97833750001155,,,,,,,,,,,,,,,,,,,,,,,,,,,,,,,,,,,,,,,,,,,,,,,,,,,,,,,,,,,,,,,,,,,,,,12007,1,2024-06-14_17h17.42.471,nback,2022.2.4,None,
0-back,instructions\back-0.png,conditions\0back-p.xlsx,instructions\0-BACK.png,practice,0,1,stim\yellow.png,stim\gray.png,stim\gray.png,stim\gray.png,up,0,0,0,0,0,0,0,0,0,0,0,0,,,,,,,,,,,,,,73.31669300000067,73.31669300000067,space,8.812979800000903,82.24650400000974,86.6367678000097,86.74797530000797,87.1744813999976,87.1744813999976,87.1744813999976,87.1744813999976,87.1744813999976,87.1744813999976,87.1744813999976,87.1744813999976,87.1744813999976,87.1744813999976,87.1744813999976,87.1744813999976,87.6690593000094,87.6690593000094,87.6690593000094,87.6690593000094,up,1,0.6519172999978764,,,,,,,,,,,,,,,,,,,,,,,,,,,,,,,,,,,,,,,,,,,,12007,1,2024-06-14_17h17.42.471,nback,2022.2.4,None,
0-back,instructions\back-0.png,conditions\0back-p.xlsx,instructions\0-BACK.png,practice,0,2,stim\gray.png,stim\yellow.png,stim\gray.png,stim\gray.png,left,0,0,0,0,0,0,0,0,0,1,1,1,,,,,,,,,,,,,,,,,,,,,,88.66436320000503,88.66436320000503,88.66436320000503,88.66436320000503,88.66436320000503,88.66436320000503,88.66436320000503,88.66436320000503,88.66436320000503,88.66436320000503,88.66436320000503,89.15892539999913,89.15892539999913,89.15892539999913,89.15892539999913,left,1,0.5777340000058757,,,,,,,,,,,,,,,,,,,,,,,,,,,,,,,,,,,,,,,,,,,,12007,1,2024-06-14_17h17.42.471,nback,2022.2.4,None,
0-back,instructions\back-0.png,conditions\0back-p.xlsx,instructions\0-BACK.png,practice,0,3,stim\gray.png,stim\gray.png,stim\yellow.png,stim\gray.png,right,0,0,0,0,0,0,0,0,0,2,2,2,,,,,,,,,,,,,,,,,,,,,,90.1630817999976,90.1630817999976,90.1630817999976,90.1630817999976,90.1630817999976,90.1630817999976,90.1630817999976,90.1630817999976,90.1630817999976,90.1630817999976,90.1630817999976,90.65805589999945,90.65805589999945,90.65805589999945,90.65805589999945,right,1,0.4464229000004707,,,,,,,,,,,,,,,,,,,,,,,,,,,,,,,,,,,,,,,,,,,,12007,1,2024-06-14_17h17.42.471,nback,2022.2.4,None,
0-back,instructions\back-0.png,conditions\0back-p.xlsx,instructions\0-BACK.png,practice,0,4,stim\gray.png,stim\gray.png,stim\gray.png,stim\yellow.png,down,0,0,0,0,0,0,0,0,0,3,3,3,,,,,,,,,,,,,,,,,,,,,,91.65218299999833,91.65218299999833,91.65218299999833,91.65218299999833,91.65218299999833,91.65218299999833,91.65218299999833,91.65218299999833,91.65218299999833,91.65218299999833,91.65218299999833,92.14865820000705,92.14865820000705,92.14865820000705,92.14865820000705,down,1,0.4065491000073962,93.15139890000864,93.15139890000864,93.15139890000864,93.15139890000864,93.15139890000864,93.15139890000864,93.15139890000864,,,,,,,,,,,,,,,,,,,,,,,,,,,,,,,,,,,,,12007,1,2024-06-14_17h17.42.471,nback,2022.2.4,None,
0-back,instructions\back-0.png,conditions\0back-p.xlsx,instructions\0-BACK.png,practice,0,2,stim\gray.png,stim\yellow.png,stim\gray.png,stim\gray.png,left,0,0,0,0,0,0,0,0,0,4,4,4,,,,,,,,,,,,,,,,,,,,,,93.15139890000864,93.15139890000864,93.15139890000864,93.15139890000864,93.15139890000864,93.15139890000864,93.15139890000864,93.15139890000864,93.15139890000864,93.15139890000864,93.15139890000864,93.64805760000309,93.64805760000309,93.64805760000309,93.64805760000309,left,1,0.5225726000062423,,,,,,,,,,,,,,,,,,,,,,,,,,,,,,,,,,,,,,,,,,,,12007,1,2024-06-14_17h17.42.471,nback,2022.2.4,None,
0-back,instructions\back-0.png,conditions\0back-p.xlsx,instructions\0-BACK.png,practice,0,1,stim\yellow.png,stim\gray.png,stim\gray.png,stim\gray.png,up,0,0,0,0,0,0,0,0,0,5,5,5,,,,,,,,,,,,,,,,,,,,,,94.65195110000786,94.65195110000786,94.65195110000786,94.65195110000786,94.65195110000786,94.65195110000786,94.65195110000786,94.65195110000786,94.65195110000786,94.65195110000786,94.65195110000786,95.1488268999965,95.1488268999965,95.1488268999965,95.1488268999965,up,1,0.4064386999962153,,,,,,,,,,,,,,,,,,,,,,,,,,,,,,,,,,,,,,,,,,,,12007,1,2024-06-14_17h17.42.471,nback,2022.2.4,None,
0-back,instructions\back-0.png,conditions\0back-p.xlsx,instructions\0-BACK.png,practice,0,4,stim\gray.png,stim\gray.png,stim\gray.png,stim\yellow.png,down,0,0,0,0,0,0,0,0,0,6,6,6,,,,,,,,,,,,,,,,,,,,,,96.1515509000019,96.1515509000019,96.1515509000019,96.1515509000019,96.1515509000019,96.1515509000019,96.1515509000019,96.1515509000019,96.1515509000019,96.1515509000019,96.1515509000019,96.64904570000363,96.64904570000363,96.64904570000363,96.64904570000363,right,0,0.16238660000090022,97.65171639999608,97.65171639999608,97.65171639999608,97.65171639999608,97.65171639999608,97.65171639999608,97.65171639999608,,,,,,,,,,,,,,,,,,,,,,,,,,,,,,,,,,,,,12007,1,2024-06-14_17h17.42.471,nback,2022.2.4,None,
0-back,instructions\back-0.png,conditions\0back-p.xlsx,instructions\0-BACK.png,practice,0,3,stim\gray.png,stim\gray.png,stim\yellow.png,stim\gray.png,right,0,0,0,0,0,0,0,0,0,7,7,7,,,,,,,,,,,,,,,,,,,,,,97.65171639999608,97.65171639999608,97.65171639999608,97.65171639999608,97.65171639999608,97.65171639999608,97.65171639999608,97.65171639999608,97.65171639999608,97.65171639999608,97.65171639999608,98.14723580000282,98.14723580000282,98.14723580000282,98.14723580000282,right,1,0.33439419999194797,,,,,,,,,,,,,,,,,,,,,,,,,,,,,,,,,,,,,,,,,,,,12007,1,2024-06-14_17h17.42.471,nback,2022.2.4,None,
0-back,instructions\back-0.png,conditions\0back-p.xlsx,instructions\0-BACK.png,practice,0,3,stim\gray.png,stim\gray.png,stim\yellow.png,stim\gray.png,right,0,0,0,0,0,0,0,0,0,8,8,8,,,,,,,,,,,,,,,,,,,,,,99.15101929999946,99.15101929999946,99.15101929999946,99.15101929999946,99.15101929999946,99.15101929999946,99.15101929999946,99.15101929999946,99.15101929999946,99.15101929999946,99.15101929999946,99.64659340000071,99.64659340000071,99.64659340000071,99.64659340000071,right,1,0.45815619999484625,100.64987850000034,100.64987850000034,100.64987850000034,100.64987850000034,100.64987850000034,100.64987850000034,100.64987850000034,,,,,,,,,,,,,,,,,,,,,,,,,,,,,,,,,,,,,12007,1,2024-06-14_17h17.42.471,nback,2022.2.4,None,
0-back,instructions\back-0.png,conditions\0back-p.xlsx,instructions\0-BACK.png,practice,0,4,stim\gray.png,stim\gray.png,stim\gray.png,stim\yellow.png,down,0,0,0,0,0,0,0,0,0,9,9,9,,,,,,,,,,,,,,,,,,,,,,100.64987850000034,100.64987850000034,100.64987850000034,100.64987850000034,100.64987850000034,100.64987850000034,100.64987850000034,100.64987850000034,100.64987850000034,100.64987850000034,100.64987850000034,101.14577820000704,101.14577820000704,101.14577820000704,101.14577820000704,down,1,0.4650480999989668,,,,,,,,,,,,,,,,,,,,,,,,,,,,,,,,,,,,,,,,,,,,12007,1,2024-06-14_17h17.42.471,nback,2022.2.4,None,
0-back,instructions\back-0.png,conditions\0back-p.xlsx,instructions\0-BACK.png,practice,0,1,stim\yellow.png,stim\gray.png,stim\gray.png,stim\gray.png,up,0,0,0,0,0,0,0,0,0,10,10,10,,,,,,,,,,,,,,,,,,,,,,102.15132070000982,102.15132070000982,102.15132070000982,102.15132070000982,102.15132070000982,102.15132070000982,102.15132070000982,102.15132070000982,102.15132070000982,102.15132070000982,102.15132070000982,102.64695619999839,102.64695619999839,102.64695619999839,102.64695619999839,up,1,0.5386022999882698,,,,,,,,,,,,,,,,,,,,,,,,,,,,,,,,,,,,,,,,,,,,12007,1,2024-06-14_17h17.42.471,nback,2022.2.4,None,
0-back,instructions\back-0.png,conditions\0back-p.xlsx,instructions\0-BACK.png,practice,0,2,stim\gray.png,stim\yellow.png,stim\gray.png,stim\gray.png,left,0,0,0,0,0,0,0,0,0,11,11,11,,,,,,,,,,,,,,,,,,,,,,103.65315349999582,103.65315349999582,103.65315349999582,103.65315349999582,103.65315349999582,103.65315349999582,103.65315349999582,103.65315349999582,103.65315349999582,103.65315349999582,103.65315349999582,104.14935730000434,104.14935730000434,104.14935730000434,104.14935730000434,left,1,0.2922209000098519,,,,,,,,,,,,,,,,,,,,,,,,,,,,,,,,,,,,,,,,,,,,12007,1,2024-06-14_17h17.42.471,nback,2022.2.4,None,
0-back,instructions\back-0.png,conditions\0back-p.xlsx,instructions\0-BACK.png,practice,0,4,stim\gray.png,stim\gray.png,stim\gray.png,stim\yellow.png,down,0,0,0,0,0,0,0,0,0,12,12,12,,,,,,,,,,,,,,,,,,,,,,105.16069720000087,105.16069720000087,105.16069720000087,105.16069720000087,105.16069720000087,105.16069720000087,105.16069720000087,105.16069720000087,105.16069720000087,105.16069720000087,105.16069720000087,105.65984950000711,105.65984950000711,105.65984950000711,105.65984950000711,down,1,0.6343221999850357,,,,,,,,,,,,,,,,,,,,,,,,,,,,,,,,,,,,,,,,,,,,12007,1,2024-06-14_17h17.42.471,nback,2022.2.4,None,
0-back,instructions\back-0.png,conditions\0back-p.xlsx,instructions\0-BACK.png,practice,0,3,stim\gray.png,stim\gray.png,stim\yellow.png,stim\gray.png,right,0,0,0,0,0,0,0,0,0,13,13,13,,,,,,,,,,,,,,,,,,,,,,106.66299399999843,106.66299399999843,106.66299399999843,106.66299399999843,106.66299399999843,106.66299399999843,106.66299399999843,106.66299399999843,106.66299399999843,106.66299399999843,106.66299399999843,107.16049950000888,107.16049950000888,107.16049950000888,107.16049950000888,right,1,0.36263570000301115,,,,,,,,,,,,,,,,,,,,,,,,,,,,,,,,,,,,,,,,,,,,12007,1,2024-06-14_17h17.42.471,nback,2022.2.4,None,
0-back,instructions\back-0.png,conditions\0back-p.xlsx,instructions\0-BACK.png,practice,0,1,stim\yellow.png,stim\gray.png,stim\gray.png,stim\gray.png,up,0,0,0,0,0,0,0,0,0,14,14,14,,,,,,,,,,,,,,,,,,,,,,108.16236800000479,108.16236800000479,108.16236800000479,108.16236800000479,108.16236800000479,108.16236800000479,108.16236800000479,108.16236800000479,108.16236800000479,108.16236800000479,108.16236800000479,108.65989460000128,108.65989460000128,108.65989460000128,108.65989460000128,up,1,0.25535810001019854,,,,,,,,,,,,,,,,,,,,,,,,,,,,,,,,,,,,,,,,,,,,12007,1,2024-06-14_17h17.42.471,nback,2022.2.4,None,
0-back,instructions\back-0.png,conditions\0back-p.xlsx,instructions\0-BACK.png,practice,0,2,stim\gray.png,stim\yellow.png,stim\gray.png,stim\gray.png,left,0,0,0,0,0,0,0,0,0,15,15,15,,,,,,,,,,,,,,,,,,,,,,109.6623685000086,109.6623685000086,109.6623685000086,109.6623685000086,109.6623685000086,109.6623685000086,109.6623685000086,109.6623685000086,109.6623685000086,109.6623685000086,109.6623685000086,110.1601559999981,110.1601559999981,110.1601559999981,110.1601559999981,left,1,0.2586728000023868,,,,,,,,,,,,,,,,,,,,,,,,,,,,,,,,,,,,,,,,,,,,12007,1,2024-06-14_17h17.42.471,nback,2022.2.4,None,
0-back,instructions\back-0.png,conditions\0back-p.xlsx,instructions\0-BACK.png,practice,0,3,stim\gray.png,stim\gray.png,stim\yellow.png,stim\gray.png,right,0,0,0,0,0,0,0,0,0,16,16,16,,,,,,,,,,,,,,,,,,,,,,111.15177589999803,111.15177589999803,111.15177589999803,111.15177589999803,111.15177589999803,111.15177589999803,111.15177589999803,111.15177589999803,111.15177589999803,111.15177589999803,111.15177589999803,111.64877400000114,111.64877400000114,111.64877400000114,111.64877400000114,right,1,0.46548910001001786,,,,,,,,,,,,,,,,,,,,,,,,,,,,,,,,,,,,,,,,,,,,12007,1,2024-06-14_17h17.42.471,nback,2022.2.4,None,
0-back,instructions\back-0.png,conditions\0back-p.xlsx,instructions\0-BACK.png,practice,0,1,stim\yellow.png,stim\gray.png,stim\gray.png,stim\gray.png,up,0,0,0,0,0,0,0,0,0,17,17,17,,,,,,,,,,,,,,,,,,,,,,112.65225369999825,112.65225369999825,112.65225369999825,112.65225369999825,112.65225369999825,112.65225369999825,112.65225369999825,112.65225369999825,112.65225369999825,112.65225369999825,112.65225369999825,113.15181419999863,113.15181419999863,113.15181419999863,113.15181419999863,up,1,0.42969710000033956,114.15660879999632,114.15660879999632,114.15660879999632,114.15660879999632,114.15660879999632,114.15660879999632,114.15660879999632,,,,,,,,,,,,,,,,,,,,,,,,,,,,,,,,,,,,,12007,1,2024-06-14_17h17.42.471,nback,2022.2.4,None,
0-back,instructions\back-0.png,conditions\0back-p.xlsx,instructions\0-BACK.png,practice,0,4,stim\gray.png,stim\gray.png,stim\gray.png,stim\yellow.png,down,0,0,0,0,0,0,0,0,0,18,18,18,,,,,,,,,,,,,,,,,,,,,,114.15660879999632,114.15660879999632,114.15660879999632,114.15660879999632,114.15660879999632,114.15660879999632,114.15660879999632,114.15660879999632,114.15660879999632,114.15660879999632,114.15660879999632,114.65824070000963,114.65824070000963,114.65824070000963,114.65824070000963,down,1,0.6768696999934036,,,,,,,,,,,,,,,,,,,,,,,,,,,,,,,,,,,,,,,,,,,,12007,1,2024-06-14_17h17.42.471,nback,2022.2.4,None,
0-back,instructions\back-0.png,conditions\0back-p.xlsx,instructions\0-BACK.png,practice,0,2,stim\gray.png,stim\yellow.png,stim\gray.png,stim\gray.png,left,0,0,0,0,0,0,0,0,0,19,19,19,,,,,,,,,,,,,,,,,,,,,,115.66185730000143,115.66185730000143,115.66185730000143,115.66185730000143,115.66185730000143,115.66185730000143,115.66185730000143,115.66185730000143,115.66185730000143,115.66185730000143,115.66185730000143,116.15808940000716,116.15808940000716,116.15808940000716,116.15808940000716,left,1,0.3808348000020487,,,,,,,,,,,,,,,,,,,,,,,,,,,,,,,,,,,,,,,,,,,,12007,1,2024-06-14_17h17.42.471,nback,2022.2.4,None,
0-back,instructions\back-0.png,conditions\0back-p.xlsx,instructions\0-BACK.png,,,,,,,,,0,0,0,0,0,0,0,0,,,,,,,,,,,,,,,,,,,,,,,,,,,,,,,,,,,,,,,,,,,,,,,,,,,,,,,,,,,,,,,,,,,,,,,,,,,,,,,,,,,,,,,12007,1,2024-06-14_17h17.42.471,nback,2022.2.4,None,
1-back,instructions\back-1.png,conditions\1back-p.xlsx,instructions\1-BACK.png,practice,1,1,stim\yellow.png,stim\gray.png,stim\gray.png,stim\gray.png,None,0,0,0,0,0,1,1,1,0,0,0,0,,,,,,,,,,,,,,117.31112600000051,117.31112600000051,space,14.33737339999061,131.7526577999961,136.14843349999865,136.24833410000429,136.67760789999738,136.67760789999738,136.67760789999738,136.67760789999738,136.67760789999738,136.67760789999738,136.67760789999738,136.67760789999738,136.67760789999738,136.67760789999738,136.67760789999738,136.67760789999738,137.1809915000049,137.1809915000049,137.1809915000049,137.1809915000049,None,1,,,,,,,,,,,,,,,,,,,,,,,,,,,,,,,,,,,,,,,,,,,,,12007,1,2024-06-14_17h17.42.471,nback,2022.2.4,None,
1-back,instructions\back-1.png,conditions\1back-p.xlsx,instructions\1-BACK.png,practice,1,2,stim\gray.png,stim\yellow.png,stim\gray.png,stim\gray.png,up,0,0,0,0,0,1,1,1,0,1,1,1,,,,,,,,,,,,,,,,,,,,,,138.17432990000816,138.17432990000816,138.17432990000816,138.17432990000816,138.17432990000816,138.17432990000816,138.17432990000816,138.17432990000816,138.17432990000816,138.17432990000816,138.17432990000816,138.67125990000204,138.67125990000204,138.67125990000204,138.67125990000204,None,0,,,,,,,,,,,,,,,,,,,,,,,,,,,,,,,,,,,,,,,,,,,,,12007,1,2024-06-14_17h17.42.471,nback,2022.2.4,None,
1-back,instructions\back-1.png,conditions\1back-p.xlsx,instructions\1-BACK.png,practice,1,3,stim\gray.png,stim\gray.png,stim\yellow.png,stim\gray.png,left,0,0,0,0,0,1,1,1,0,2,2,2,,,,,,,,,,,,,,,,,,,,,,139.67197660000238,139.67197660000238,139.67197660000238,139.67197660000238,139.67197660000238,139.67197660000238,139.67197660000238,139.67197660000238,139.67197660000238,139.67197660000238,139.67197660000238,140.17027600000438,140.17027600000438,140.17027600000438,140.17027600000438,up,0,0.7297580000013113,,,,,,,,,,,,,,,,,,,,,,,,,,,,,,,,,,,,,,,,,,,,12007,1,2024-06-14_17h17.42.471,nback,2022.2.4,None,
1-back,instructions\back-1.png,conditions\1back-p.xlsx,instructions\1-BACK.png,practice,1,4,stim\gray.png,stim\gray.png,stim\gray.png,stim\yellow.png,right,0,0,0,0,0,1,1,1,0,3,3,3,,,,,,,,,,,,,,,,,,,,,,141.17824900000414,141.17824900000414,141.17824900000414,141.17824900000414,141.17824900000414,141.17824900000414,141.17824900000414,141.17824900000414,141.17824900000414,141.17824900000414,141.17824900000414,141.68068910000147,141.68068910000147,141.68068910000147,141.68068910000147,right,1,1.2394329999951879,,,,,,,,,,,,,,,,,,,,,,,,,,,,,,,,,,,,,,,,,,,,12007,1,2024-06-14_17h17.42.471,nback,2022.2.4,None,
1-back,instructions\back-1.png,conditions\1back-p.xlsx,instructions\1-BACK.png,practice,1,2,stim\gray.png,stim\yellow.png,stim\gray.png,stim\gray.png,down,0,0,0,0,0,1,1,1,0,4,4,4,,,,,,,,,,,,,,,,,,,,,,142.67274449999968,142.67274449999968,142.67274449999968,142.67274449999968,142.67274449999968,142.67274449999968,142.67274449999968,142.67274449999968,142.67274449999968,142.67274449999968,142.67274449999968,143.17042310000397,143.17042310000397,143.17042310000397,143.17042310000397,None,0,,,,,,,,,,,,,,,,,,,,,,,,,,,,,,,,,,,,,,,,,,,,,12007,1,2024-06-14_17h17.42.471,nback,2022.2.4,None,
1-back,instructions\back-1.png,conditions\1back-p.xlsx,instructions\1-BACK.png,practice,1,1,stim\yellow.png,stim\gray.png,stim\gray.png,stim\gray.png,left,0,0,0,0,0,1,1,1,0,5,5,5,,,,,,,,,,,,,,,,,,,,,,144.1739976999961,144.1739976999961,144.1739976999961,144.1739976999961,144.1739976999961,144.1739976999961,144.1739976999961,144.1739976999961,144.1739976999961,144.1739976999961,144.1739976999961,144.66950709999946,144.66950709999946,144.66950709999946,144.66950709999946,None,0,,,,,,,,,,,,,,,,,,,,,,,,,,,,,,,,,,,,,,,,,,,,,12007,1,2024-06-14_17h17.42.471,nback,2022.2.4,None,
1-back,instructions\back-1.png,conditions\1back-p.xlsx,instructions\1-BACK.png,practice,1,4,stim\gray.png,stim\gray.png,stim\gray.png,stim\yellow.png,up,0,0,0,0,0,1,1,1,0,6,6,6,,,,,,,,,,,,,,,,,,,,,,145.67221140000038,145.67221140000038,145.67221140000038,145.67221140000038,145.67221140000038,145.67221140000038,145.67221140000038,145.67221140000038,145.67221140000038,145.67221140000038,145.67221140000038,146.1691928000073,146.1691928000073,146.1691928000073,146.1691928000073,up,1,0.626085800002329,,,,,,,,,,,,,,,,,,,,,,,,,,,,,,,,,,,,,,,,,,,,12007,1,2024-06-14_17h17.42.471,nback,2022.2.4,None,
1-back,instructions\back-1.png,conditions\1back-p.xlsx,instructions\1-BACK.png,practice,1,3,stim\gray.png,stim\gray.png,stim\yellow.png,stim\gray.png,down,0,0,0,0,0,1,1,1,0,7,7,7,,,,,,,,,,,,,,,,,,,,,,147.17173290000937,147.17173290000937,147.17173290000937,147.17173290000937,147.17173290000937,147.17173290000937,147.17173290000937,147.17173290000937,147.17173290000937,147.17173290000937,147.17173290000937,147.66865910000342,147.66865910000342,147.66865910000342,147.66865910000342,down,1,0.797896199990646,,,,,,,,,,,,,,,,,,,,,,,,,,,,,,,,,,,,,,,,,,,,12007,1,2024-06-14_17h17.42.471,nback,2022.2.4,None,
1-back,instructions\back-1.png,conditions\1back-p.xlsx,instructions\1-BACK.png,practice,1,3,stim\gray.png,stim\gray.png,stim\yellow.png,stim\gray.png,right,0,0,0,0,0,1,1,1,0,8,8,8,,,,,,,,,,,,,,,,,,,,,,148.67440220000572,148.67440220000572,148.67440220000572,148.67440220000572,148.67440220000572,148.67440220000572,148.67440220000572,148.67440220000572,148.67440220000572,148.67440220000572,148.67440220000572,149.16814979999617,149.16814979999617,149.16814979999617,149.16814979999617,right,1,0.9362331000011181,,,,,,,,,,,,,,,,,,,,,,,,,,,,,,,,,,,,,,,,,,,,12007,1,2024-06-14_17h17.42.471,nback,2022.2.4,None,
1-back,instructions\back-1.png,conditions\1back-p.xlsx,instructions\1-BACK.png,practice,1,4,stim\gray.png,stim\gray.png,stim\gray.png,stim\yellow.png,right,0,0,0,0,0,1,1,1,0,9,9,9,,,,,,,,,,,,,,,,,,,,,,150.17262549999577,150.17262549999577,150.17262549999577,150.17262549999577,150.17262549999577,150.17262549999577,150.17262549999577,150.17262549999577,150.17262549999577,150.17262549999577,150.17262549999577,150.66934550000587,150.66934550000587,150.66934550000587,150.66934550000587,None,0,,,,,,,,,,,,,,,,,,,,,,,,,,,,,,,,,,,,,,,,,,,,,12007,1,2024-06-14_17h17.42.471,nback,2022.2.4,None,
1-back,instructions\back-1.png,conditions\1back-p.xlsx,instructions\1-BACK.png,practice,1,1,stim\yellow.png,stim\gray.png,stim\gray.png,stim\gray.png,down,0,0,0,0,0,1,1,1,0,10,10,10,,,,,,,,,,,,,,,,,,,,,,151.6736460999964,151.6736460999964,151.6736460999964,151.6736460999964,151.6736460999964,151.6736460999964,151.6736460999964,151.6736460999964,151.6736460999964,151.6736460999964,151.6736460999964,152.17132120000315,152.17132120000315,152.17132120000315,152.17132120000315,down,1,0.7199714000016684,,,,,,,,,,,,,,,,,,,,,,,,,,,,,,,,,,,,,,,,,,,,12007,1,2024-06-14_17h17.42.471,nback,2022.2.4,None,
1-back,instructions\back-1.png,conditions\1back-p.xlsx,instructions\1-BACK.png,practice,1,2,stim\gray.png,stim\yellow.png,stim\gray.png,stim\gray.png,up,0,0,0,0,0,1,1,1,0,11,11,11,,,,,,,,,,,,,,,,,,,,,,153.17291400000977,153.17291400000977,153.17291400000977,153.17291400000977,153.17291400000977,153.17291400000977,153.17291400000977,153.17291400000977,153.17291400000977,153.17291400000977,153.17291400000977,153.6714176000096,153.6714176000096,153.6714176000096,153.6714176000096,up,1,0.7407339000055799,,,,,,,,,,,,,,,,,,,,,,,,,,,,,,,,,,,,,,,,,,,,12007,1,2024-06-14_17h17.42.471,nback,2022.2.4,None,
1-back,instructions\back-1.png,conditions\1back-p.xlsx,instructions\1-BACK.png,practice,1,4,stim\gray.png,stim\gray.png,stim\gray.png,stim\yellow.png,left,0,0,0,0,0,1,1,1,0,12,12,12,,,,,,,,,,,,,,,,,,,,,,154.67229509999743,154.67229509999743,154.67229509999743,154.67229509999743,154.67229509999743,154.67229509999743,154.67229509999743,154.67229509999743,154.67229509999743,154.67229509999743,154.67229509999743,155.17163019999862,155.17163019999862,155.17163019999862,155.17163019999862,None,0,,,,,,,,,,,,,,,,,,,,,,,,,,,,,,,,,,,,,,,,,,,,,12007,1,2024-06-14_17h17.42.471,nback,2022.2.4,None,
1-back,instructions\back-1.png,conditions\1back-p.xlsx,instructions\1-BACK.png,practice,1,3,stim\gray.png,stim\gray.png,stim\yellow.png,stim\gray.png,down,0,0,0,0,0,1,1,1,0,13,13,13,,,,,,,,,,,,,,,,,,,,,,156.17382429999998,156.17382429999998,156.17382429999998,156.17382429999998,156.17382429999998,156.17382429999998,156.17382429999998,156.17382429999998,156.17382429999998,156.17382429999998,156.17382429999998,156.67119809999713,156.67119809999713,156.67119809999713,156.67119809999713,down,1,0.2591286999959266,,,,,,,,,,,,,,,,,,,,,,,,,,,,,,,,,,,,,,,,,,,,12007,1,2024-06-14_17h17.42.471,nback,2022.2.4,None,
1-back,instructions\back-1.png,conditions\1back-p.xlsx,instructions\1-BACK.png,practice,1,1,stim\yellow.png,stim\gray.png,stim\gray.png,stim\gray.png,right,0,0,0,0,0,1,1,1,0,14,14,14,,,,,,,,,,,,,,,,,,,,,,157.67295459999877,157.67295459999877,157.67295459999877,157.67295459999877,157.67295459999877,157.67295459999877,157.67295459999877,157.67295459999877,157.67295459999877,157.67295459999877,157.67295459999877,158.17148770000495,158.17148770000495,158.17148770000495,158.17148770000495,down,0,0.8166904999961844,,,,,,,,,,,,,,,,,,,,,,,,,,,,,,,,,,,,,,,,,,,,12007,1,2024-06-14_17h17.42.471,nback,2022.2.4,None,
1-back,instructions\back-1.png,conditions\1back-p.xlsx,instructions\1-BACK.png,practice,1,2,stim\gray.png,stim\yellow.png,stim\gray.png,stim\gray.png,up,0,0,0,0,0,1,1,1,0,15,15,15,,,,,,,,,,,,,,,,,,,,,,159.17227490000369,159.17227490000369,159.17227490000369,159.17227490000369,159.17227490000369,159.17227490000369,159.17227490000369,159.17227490000369,159.17227490000369,159.17227490000369,159.17227490000369,159.6711964999995,159.6711964999995,159.6711964999995,159.6711964999995,right,0,0.7413424999976996,,,,,,,,,,,,,,,,,,,,,,,,,,,,,,,,,,,,,,,,,,,,12007,1,2024-06-14_17h17.42.471,nback,2022.2.4,None,
1-back,instructions\back-1.png,conditions\1back-p.xlsx,instructions\1-BACK.png,practice,1,3,stim\gray.png,stim\gray.png,stim\yellow.png,stim\gray.png,left,0,0,0,0,0,1,1,1,0,16,16,16,,,,,,,,,,,,,,,,,,,,,,160.67390350000642,160.67390350000642,160.67390350000642,160.67390350000642,160.67390350000642,160.67390350000642,160.67390350000642,160.67390350000642,160.67390350000642,160.67390350000642,160.67390350000642,161.17035179999948,161.17035179999948,161.17035179999948,161.17035179999948,left,1,0.6798909000062849,,,,,,,,,,,,,,,,,,,,,,,,,,,,,,,,,,,,,,,,,,,,12007,1,2024-06-14_17h17.42.471,nback,2022.2.4,None,
1-back,instructions\back-1.png,conditions\1back-p.xlsx,instructions\1-BACK.png,practice,1,1,stim\yellow.png,stim\gray.png,stim\gray.png,stim\gray.png,right,0,0,0,0,0,1,1,1,0,17,17,17,,,,,,,,,,,,,,,,,,,,,,162.1741989000002,162.1741989000002,162.1741989000002,162.1741989000002,162.1741989000002,162.1741989000002,162.1741989000002,162.1741989000002,162.1741989000002,162.1741989000002,162.1741989000002,162.67100820000633,162.67100820000633,162.67100820000633,162.67100820000633,right,1,0.5554057999979705,,,,,,,,,,,,,,,,,,,,,,,,,,,,,,,,,,,,,,,,,,,,12007,1,2024-06-14_17h17.42.471,nback,2022.2.4,None,
1-back,instructions\back-1.png,conditions\1back-p.xlsx,instructions\1-BACK.png,practice,1,4,stim\gray.png,stim\gray.png,stim\gray.png,stim\yellow.png,up,0,0,0,0,0,1,1,1,0,18,18,18,,,,,,,,,,,,,,,,,,,,,,163.67847929999698,163.67847929999698,163.67847929999698,163.67847929999698,163.67847929999698,163.67847929999698,163.67847929999698,163.67847929999698,163.67847929999698,163.67847929999698,163.67847929999698,164.17995710000105,164.17995710000105,164.17995710000105,164.17995710000105,up,1,0.9389711999974679,,,,,,,,,,,,,,,,,,,,,,,,,,,,,,,,,,,,,,,,,,,,12007,1,2024-06-14_17h17.42.471,nback,2022.2.4,None,
1-back,instructions\back-1.png,conditions\1back-p.xlsx,instructions\1-BACK.png,practice,1,2,stim\gray.png,stim\yellow.png,stim\gray.png,stim\gray.png,down,0,0,0,0,0,1,1,1,0,19,19,19,,,,,,,,,,,,,,,,,,,,,,165.18577120000555,165.18577120000555,165.18577120000555,165.18577120000555,165.18577120000555,165.18577120000555,165.18577120000555,165.18577120000555,165.18577120000555,165.18577120000555,165.18577120000555,165.68274800000654,165.68274800000654,165.68274800000654,165.68274800000654,down,1,0.7674336999916704,,,,,,,,,,,,,,,,,,,,,,,,,,,,,,,,,,,,,,,,,,,,12007,1,2024-06-14_17h17.42.471,nback,2022.2.4,None,
1-back,instructions\back-1.png,conditions\1back-p.xlsx,instructions\1-BACK.png,,,,,,,,,0,0,0,0,0,1,1,1,,,,,,,,,,,,,,,,,,,,,,,,,,,,,,,,,,,,,,,,,,,,,,,,,,,,,,,,,,,,,,,,,,,,,,,,,,,,,,,,,,,,,,,12007,1,2024-06-14_17h17.42.471,nback,2022.2.4,None,
2-back,instructions\back-2.png,conditions\2back-p.xlsx,instructions\2-BACK.png,practice,2,1,stim\yellow.png,stim\gray.png,stim\gray.png,stim\gray.png,None,0,0,0,0,0,2,2,2,0,0,0,0,,,,,,,,,,,,,,166.8256709999987,166.8256709999987,space,28.43742079999356,195.43639519999851,199.76992880000034,199.93711949999852,200.29877960000886,200.29877960000886,200.29877960000886,200.29877960000886,200.29877960000886,200.29877960000886,200.29877960000886,200.29877960000886,200.29877960000886,200.29877960000886,200.29877960000886,200.29877960000886,200.80359700000554,200.80359700000554,200.80359700000554,200.80359700000554,None,1,,,,,,,,,,,,,,,,,,,,,,,,,,,,,,,,,,,,,,,,,,,,,12007,1,2024-06-14_17h17.42.471,nback,2022.2.4,None,
2-back,instructions\back-2.png,conditions\2back-p.xlsx,instructions\2-BACK.png,practice,2,2,stim\gray.png,stim\yellow.png,stim\gray.png,stim\gray.png,None,0,0,0,0,0,2,2,2,0,1,1,1,,,,,,,,,,,,,,,,,,,,,,201.79439619999903,201.79439619999903,201.79439619999903,201.79439619999903,201.79439619999903,201.79439619999903,201.79439619999903,201.79439619999903,201.79439619999903,201.79439619999903,201.79439619999903,202.2931677000015,202.2931677000015,202.2931677000015,202.2931677000015,None,1,,,,,,,,,,,,,,,,,,,,,,,,,,,,,,,,,,,,,,,,,,,,,12007,1,2024-06-14_17h17.42.471,nback,2022.2.4,None,
2-back,instructions\back-2.png,conditions\2back-p.xlsx,instructions\2-BACK.png,practice,2,3,stim\gray.png,stim\gray.png,stim\yellow.png,stim\gray.png,up,0,0,0,0,0,2,2,2,0,2,2,2,,,,,,,,,,,,,,,,,,,,,,203.29576580000867,203.29576580000867,203.29576580000867,203.29576580000867,203.29576580000867,203.29576580000867,203.29576580000867,203.29576580000867,203.29576580000867,203.29576580000867,203.29576580000867,203.79337240000314,203.79337240000314,203.79337240000314,203.79337240000314,left,0,0.6736080999980913,,,,,,,,,,,,,,,,,,,,,,,,,,,,,,,,,,,,,,,,,,,,12007,1,2024-06-14_17h17.42.471,nback,2022.2.4,None,
2-back,instructions\back-2.png,conditions\2back-p.xlsx,instructions\2-BACK.png,practice,2,4,stim\gray.png,stim\gray.png,stim\gray.png,stim\yellow.png,left,0,0,0,0,0,2,2,2,0,3,3,3,,,,,,,,,,,,,,,,,,,,,,204.7953114999982,204.7953114999982,204.7953114999982,204.7953114999982,204.7953114999982,204.7953114999982,204.7953114999982,204.7953114999982,204.7953114999982,204.7953114999982,204.7953114999982,205.29368860000977,205.29368860000977,205.29368860000977,205.29368860000977,None,0,,,,,,,,,,,,,,,,,,,,,,,,,,,,,,,,,,,,,,,,,,,,,12007,1,2024-06-14_17h17.42.471,nback,2022.2.4,None,
2-back,instructions\back-2.png,conditions\2back-p.xlsx,instructions\2-BACK.png,practice,2,2,stim\gray.png,stim\yellow.png,stim\gray.png,stim\gray.png,right,0,0,0,0,0,2,2,2,0,4,4,4,,,,,,,,,,,,,,,,,,,,,,206.2962797000073,206.2962797000073,206.2962797000073,206.2962797000073,206.2962797000073,206.2962797000073,206.2962797000073,206.2962797000073,206.2962797000073,206.2962797000073,206.2962797000073,206.79292469999928,206.79292469999928,206.79292469999928,206.79292469999928,left,0,0.7287660999863874,,,,,,,,,,,,,,,,,,,,,,,,,,,,,,,,,,,,,,,,,,,,12007,1,2024-06-14_17h17.42.471,nback,2022.2.4,None,
2-back,instructions\back-2.png,conditions\2back-p.xlsx,instructions\2-BACK.png,practice,2,1,stim\yellow.png,stim\gray.png,stim\gray.png,stim\gray.png,down,0,0,0,0,0,2,2,2,0,5,5,5,,,,,,,,,,,,,,,,,,,,,,207.79594480000378,207.79594480000378,207.79594480000378,207.79594480000378,207.79594480000378,207.79594480000378,207.79594480000378,207.79594480000378,207.79594480000378,207.79594480000378,207.79594480000378,208.29333129999577,208.29333129999577,208.29333129999577,208.29333129999577,None,0,,,,,,,,,,,,,,,,,,,,,,,,,,,,,,,,,,,,,,,,,,,,,12007,1,2024-06-14_17h17.42.471,nback,2022.2.4,None,
2-back,instructions\back-2.png,conditions\2back-p.xlsx,instructions\2-BACK.png,practice,2,4,stim\gray.png,stim\gray.png,stim\gray.png,stim\yellow.png,left,0,0,0,0,0,2,2,2,0,6,6,6,,,,,,,,,,,,,,,,,,,,,,209.29306830000132,209.29306830000132,209.29306830000132,209.29306830000132,209.29306830000132,209.29306830000132,209.29306830000132,209.29306830000132,209.29306830000132,209.29306830000132,209.29306830000132,209.79269290000957,209.79269290000957,209.79269290000957,209.79269290000957,right,0,1.0122680000058608,,,,,,,,,,,,,,,,,,,,,,,,,,,,,,,,,,,,,,,,,,,,12007,1,2024-06-14_17h17.42.471,nback,2022.2.4,None,
2-back,instructions\back-2.png,conditions\2back-p.xlsx,instructions\2-BACK.png,practice,2,3,stim\gray.png,stim\gray.png,stim\yellow.png,stim\gray.png,up,0,0,0,0,0,2,2,2,0,7,7,7,,,,,,,,,,,,,,,,,,,,,,210.7961992000055,210.7961992000055,210.7961992000055,210.7961992000055,210.7961992000055,210.7961992000055,210.7961992000055,210.7961992000055,210.7961992000055,210.7961992000055,210.7961992000055,211.29330940000364,211.29330940000364,211.29330940000364,211.29330940000364,None,0,,,,,,,,,,,,,,,,,,,,,,,,,,,,,,,,,,,,,,,,,,,,,12007,1,2024-06-14_17h17.42.471,nback,2022.2.4,None,
2-back,instructions\back-2.png,conditions\2back-p.xlsx,instructions\2-BACK.png,practice,2,3,stim\gray.png,stim\gray.png,stim\yellow.png,stim\gray.png,down,0,0,0,0,0,2,2,2,0,8,8,8,,,,,,,,,,,,,,,,,,,,,,212.30380880000303,212.30380880000303,212.30380880000303,212.30380880000303,212.30380880000303,212.30380880000303,212.30380880000303,212.30380880000303,212.30380880000303,212.30380880000303,212.30380880000303,212.80427799999597,212.80427799999597,212.80427799999597,212.80427799999597,None,0,,,,,,,,,,,,,,,,,,,,,,,,,,,,,,,,,,,,,,,,,,,,,12007,1,2024-06-14_17h17.42.471,nback,2022.2.4,None,
2-back,instructions\back-2.png,conditions\2back-p.xlsx,instructions\2-BACK.png,practice,2,4,stim\gray.png,stim\gray.png,stim\gray.png,stim\yellow.png,right,0,0,0,0,0,2,2,2,0,9,9,9,,,,,,,,,,,,,,,,,,,,,,213.79414250000264,213.79414250000264,213.79414250000264,213.79414250000264,213.79414250000264,213.79414250000264,213.79414250000264,213.79414250000264,213.79414250000264,213.79414250000264,213.79414250000264,214.292761100005,214.292761100005,214.292761100005,214.292761100005,None,0,,,,,,,,,,,,,,,,,,,,,,,,,,,,,,,,,,,,,,,,,,,,,12007,1,2024-06-14_17h17.42.471,nback,2022.2.4,None,
2-back,instructions\back-2.png,conditions\2back-p.xlsx,instructions\2-BACK.png,practice,2,1,stim\yellow.png,stim\gray.png,stim\gray.png,stim\gray.png,right,0,0,0,0,0,2,2,2,0,10,10,10,,,,,,,,,,,,,,,,,,,,,,215.29415290000907,215.29415290000907,215.29415290000907,215.29415290000907,215.29415290000907,215.29415290000907,215.29415290000907,215.29415290000907,215.29415290000907,215.29415290000907,215.29415290000907,215.79152969999996,215.79152969999996,215.79152969999996,215.79152969999996,None,0,,,,,,,,,,,,,,,,,,,,,,,,,,,,,,,,,,,,,,,,,,,,,12007,1,2024-06-14_17h17.42.471,nback,2022.2.4,None,
2-back,instructions\back-2.png,conditions\2back-p.xlsx,instructions\2-BACK.png,practice,2,2,stim\gray.png,stim\yellow.png,stim\gray.png,stim\gray.png,down,0,0,0,0,0,2,2,2,0,11,11,11,,,,,,,,,,,,,,,,,,,,,,216.79410810000263,216.79410810000263,216.79410810000263,216.79410810000263,216.79410810000263,216.79410810000263,216.79410810000263,216.79410810000263,216.79410810000263,216.79410810000263,216.79410810000263,217.29172890000336,217.29172890000336,217.29172890000336,217.29172890000336,None,0,,,,,,,,,,,,,,,,,,,,,,,,,,,,,,,,,,,,,,,,,,,,,12007,1,2024-06-14_17h17.42.471,nback,2022.2.4,None,
2-back,instructions\back-2.png,conditions\2back-p.xlsx,instructions\2-BACK.png,practice,2,4,stim\gray.png,stim\gray.png,stim\gray.png,stim\yellow.png,up,0,0,0,0,0,2,2,2,0,12,12,12,,,,,,,,,,,,,,,,,,,,,,218.29506380000385,218.29506380000385,218.29506380000385,218.29506380000385,218.29506380000385,218.29506380000385,218.29506380000385,218.29506380000385,218.29506380000385,218.29506380000385,218.29506380000385,218.79300800000783,218.79300800000783,218.79300800000783,218.79300800000783,None,0,,,,,,,,,,,,,,,,,,,,,,,,,,,,,,,,,,,,,,,,,,,,,12007,1,2024-06-14_17h17.42.471,nback,2022.2.4,None,
2-back,instructions\back-2.png,conditions\2back-p.xlsx,instructions\2-BACK.png,practice,2,3,stim\gray.png,stim\gray.png,stim\yellow.png,stim\gray.png,left,0,0,0,0,0,2,2,2,0,13,13,13,,,,,,,,,,,,,,,,,,,,,,219.79463450000912,219.79463450000912,219.79463450000912,219.79463450000912,219.79463450000912,219.79463450000912,219.79463450000912,219.79463450000912,219.79463450000912,219.79463450000912,219.79463450000912,220.29343320000044,220.29343320000044,220.29343320000044,220.29343320000044,None,0,,,,,,,,,,,,,,,,,,,,,,,,,,,,,,,,,,,,,,,,,,,,,12007,1,2024-06-14_17h17.42.471,nback,2022.2.4,None,
2-back,instructions\back-2.png,conditions\2back-p.xlsx,instructions\2-BACK.png,practice,2,1,stim\yellow.png,stim\gray.png,stim\gray.png,stim\gray.png,down,0,0,0,0,0,2,2,2,0,14,14,14,,,,,,,,,,,,,,,,,,,,,,221.29676740001014,221.29676740001014,221.29676740001014,221.29676740001014,221.29676740001014,221.29676740001014,221.29676740001014,221.29676740001014,221.29676740001014,221.29676740001014,221.29676740001014,221.79267039999831,221.79267039999831,221.79267039999831,221.79267039999831,None,0,,,,,,,,,,,,,,,,,,,,,,,,,,,,,,,,,,,,,,,,,,,,,12007,1,2024-06-14_17h17.42.471,nback,2022.2.4,None,
2-back,instructions\back-2.png,conditions\2back-p.xlsx,instructions\2-BACK.png,practice,2,2,stim\gray.png,stim\yellow.png,stim\gray.png,stim\gray.png,right,0,0,0,0,0,2,2,2,0,15,15,15,,,,,,,,,,,,,,,,,,,,,,222.7950536999997,222.7950536999997,222.7950536999997,222.7950536999997,222.7950536999997,222.7950536999997,222.7950536999997,222.7950536999997,222.7950536999997,222.7950536999997,222.7950536999997,223.2936083000095,223.2936083000095,223.2936083000095,223.2936083000095,None,0,,,,,,,,,,,,,,,,,,,,,,,,,,,,,,,,,,,,,,,,,,,,,12007,1,2024-06-14_17h17.42.471,nback,2022.2.4,None,
2-back,instructions\back-2.png,conditions\2back-p.xlsx,instructions\2-BACK.png,practice,2,3,stim\gray.png,stim\gray.png,stim\yellow.png,stim\gray.png,up,0,0,0,0,0,2,2,2,0,16,16,16,,,,,,,,,,,,,,,,,,,,,,224.29519710000022,224.29519710000022,224.29519710000022,224.29519710000022,224.29519710000022,224.29519710000022,224.29519710000022,224.29519710000022,224.29519710000022,224.29519710000022,224.29519710000022,224.79331940000702,224.79331940000702,224.79331940000702,224.79331940000702,None,0,,,,,,,,,,,,,,,,,,,,,,,,,,,,,,,,,,,,,,,,,,,,,12007,1,2024-06-14_17h17.42.471,nback,2022.2.4,None,
2-back,instructions\back-2.png,conditions\2back-p.xlsx,instructions\2-BACK.png,practice,2,1,stim\yellow.png,stim\gray.png,stim\gray.png,stim\gray.png,left,0,0,0,0,0,2,2,2,0,17,17,17,,,,,,,,,,,,,,,,,,,,,,225.79620160000923,225.79620160000923,225.79620160000923,225.79620160000923,225.79620160000923,225.79620160000923,225.79620160000923,225.79620160000923,225.79620160000923,225.79620160000923,225.79620160000923,226.29314970000996,226.29314970000996,226.29314970000996,226.29314970000996,None,0,,,,,,,,,,,,,,,,,,,,,,,,,,,,,,,,,,,,,,,,,,,,,12007,1,2024-06-14_17h17.42.471,nback,2022.2.4,None,
2-back,instructions\back-2.png,conditions\2back-p.xlsx,instructions\2-BACK.png,practice,2,4,stim\gray.png,stim\gray.png,stim\gray.png,stim\yellow.png,right,0,0,0,0,0,2,2,2,0,18,18,18,,,,,,,,,,,,,,,,,,,,,,227.3006027000083,227.3006027000083,227.3006027000083,227.3006027000083,227.3006027000083,227.3006027000083,227.3006027000083,227.3006027000083,227.3006027000083,227.3006027000083,227.3006027000083,227.80191609999747,227.80191609999747,227.80191609999747,227.80191609999747,None,0,,,,,,,,,,,,,,,,,,,,,,,,,,,,,,,,,,,,,,,,,,,,,12007,1,2024-06-14_17h17.42.471,nback,2022.2.4,None,
2-back,instructions\back-2.png,conditions\2back-p.xlsx,instructions\2-BACK.png,practice,2,2,stim\gray.png,stim\yellow.png,stim\gray.png,stim\gray.png,up,0,0,0,0,0,2,2,2,0,19,19,19,,,,,,,,,,,,,,,,,,,,,,228.796454299998,228.796454299998,228.796454299998,228.796454299998,228.796454299998,228.796454299998,228.796454299998,228.796454299998,228.796454299998,228.796454299998,228.796454299998,229.2933350000094,229.2933350000094,229.2933350000094,229.2933350000094,None,0,,,,,,,,,,,,,,,,,,,,,,,,,,,,,,,,,,,,,,,,,,,,,12007,1,2024-06-14_17h17.42.471,nback,2022.2.4,None,
2-back,instructions\back-2.png,conditions\2back-p.xlsx,instructions\2-BACK.png,,,,,,,,,0,0,0,0,0,2,2,2,,,,,,,,,,,,,,,,,,,,,,,,,,,,,,,,,,,,,,,,,,,,,,,,,,,,,,,,,,,,,,,,,,,,,,,,,,,,,,,,,,,,,,,12007,1,2024-06-14_17h17.42.471,nback,2022.2.4,None,
,,,,,,,,,,,,0,0,0,0,,,,,,,,,,,,,,,,,,,,,,,,,,,,,,,,,,,,,,,,,,,,,,,,,,,,,,,230.2934658000013,230.2934658000013,s,27.38501479999104,,,,,,,,,,,,,,,,,,,,,,,,,,,,,,,,,12007,1,2024-06-14_17h17.42.471,nback,2022.2.4,None,
0-back,instructions\back-0.png,conditions\0back-p.xlsx,instructions\0-BACK.png,practice,0,1,stim\yellow.png,stim\gray.png,stim\gray.png,stim\gray.png,up,1,0,1,0,0,0,0,0,0,0,0,0,,,,,,,,,,,,,,257.78216760000214,257.78216760000214,space,6.432957099998021,264.36653490000754,268.72585440000694,268.8685364999983,269.2360938000056,269.2360938000056,269.2360938000056,269.2360938000056,269.2360938000056,269.2360938000056,269.2360938000056,269.2360938000056,269.2360938000056,269.2360938000056,269.2360938000056,269.2360938000056,269.73513050000474,269.73513050000474,269.73513050000474,269.73513050000474,up,1,1.0856732999964152,270.7477276999998,270.7477276999998,270.7477276999998,270.7477276999998,270.7477276999998,270.7477276999998,270.7477276999998,,,,,,,,,,,,,,,,,,,,,,,,,,,,,,,,,,,,,12007,1,2024-06-14_17h17.42.471,nback,2022.2.4,None,
0-back,instructions\back-0.png,conditions\0back-p.xlsx,instructions\0-BACK.png,practice,0,2,stim\gray.png,stim\yellow.png,stim\gray.png,stim\gray.png,left,1,0,1,0,0,0,0,0,0,1,1,1,,,,,,,,,,,,,,,,,,,,,,270.7477276999998,270.7477276999998,270.7477276999998,270.7477276999998,270.7477276999998,270.7477276999998,270.7477276999998,270.7477276999998,270.7477276999998,270.7477276999998,270.7477276999998,271.2487349000003,271.2487349000003,271.2487349000003,271.2487349000003,left,1,0.4534457999980077,,,,,,,,,,,,,,,,,,,,,,,,,,,,,,,,,,,,,,,,,,,,12007,1,2024-06-14_17h17.42.471,nback,2022.2.4,None,
0-back,instructions\back-0.png,conditions\0back-p.xlsx,instructions\0-BACK.png,practice,0,3,stim\gray.png,stim\gray.png,stim\yellow.png,stim\gray.png,right,1,0,1,0,0,0,0,0,0,2,2,2,,,,,,,,,,,,,,,,,,,,,,272.2478018999973,272.2478018999973,272.2478018999973,272.2478018999973,272.2478018999973,272.2478018999973,272.2478018999973,272.2478018999973,272.2478018999973,272.2478018999973,272.2478018999973,272.7478468000045,272.7478468000045,272.7478468000045,272.7478468000045,right,1,0.6098281999875326,,,,,,,,,,,,,,,,,,,,,,,,,,,,,,,,,,,,,,,,,,,,12007,1,2024-06-14_17h17.42.471,nback,2022.2.4,None,
0-back,instructions\back-0.png,conditions\0back-p.xlsx,instructions\0-BACK.png,practice,0,4,stim\gray.png,stim\gray.png,stim\gray.png,stim\yellow.png,down,1,0,1,0,0,0,0,0,0,3,3,3,,,,,,,,,,,,,,,,,,,,,,273.75020460000087,273.75020460000087,273.75020460000087,273.75020460000087,273.75020460000087,273.75020460000087,273.75020460000087,273.75020460000087,273.75020460000087,273.75020460000087,273.75020460000087,274.2483721000026,274.2483721000026,274.2483721000026,274.2483721000026,down,1,0.6838937999855261,,,,,,,,,,,,,,,,,,,,,,,,,,,,,,,,,,,,,,,,,,,,12007,1,2024-06-14_17h17.42.471,nback,2022.2.4,None,
0-back,instructions\back-0.png,conditions\0back-p.xlsx,instructions\0-BACK.png,practice,0,2,stim\gray.png,stim\yellow.png,stim\gray.png,stim\gray.png,left,1,0,1,0,0,0,0,0,0,4,4,4,,,,,,,,,,,,,,,,,,,,,,275.2491929000098,275.2491929000098,275.2491929000098,275.2491929000098,275.2491929000098,275.2491929000098,275.2491929000098,275.2491929000098,275.2491929000098,275.2491929000098,275.2491929000098,275.74853260000236,275.74853260000236,275.74853260000236,275.74853260000236,left,1,0.7434106000000611,,,,,,,,,,,,,,,,,,,,,,,,,,,,,,,,,,,,,,,,,,,,12007,1,2024-06-14_17h17.42.471,nback,2022.2.4,None,
0-back,instructions\back-0.png,conditions\0back-p.xlsx,instructions\0-BACK.png,practice,0,1,stim\yellow.png,stim\gray.png,stim\gray.png,stim\gray.png,up,1,0,1,0,0,0,0,0,0,5,5,5,,,,,,,,,,,,,,,,,,,,,,276.75144170000567,276.75144170000567,276.75144170000567,276.75144170000567,276.75144170000567,276.75144170000567,276.75144170000567,276.75144170000567,276.75144170000567,276.75144170000567,276.75144170000567,277.24839449999854,277.24839449999854,277.24839449999854,277.24839449999854,up,1,1.1297739000001457,,,,,,,,,,,,,,,,,,,,,,,,,,,,,,,,,,,,,,,,,,,,12007,1,2024-06-14_17h17.42.471,nback,2022.2.4,None,
0-back,instructions\back-0.png,conditions\0back-p.xlsx,instructions\0-BACK.png,practice,0,4,stim\gray.png,stim\gray.png,stim\gray.png,stim\yellow.png,down,1,0,1,0,0,0,0,0,0,6,6,6,,,,,,,,,,,,,,,,,,,,,,278.25171480000427,278.25171480000427,278.25171480000427,278.25171480000427,278.25171480000427,278.25171480000427,278.25171480000427,278.25171480000427,278.25171480000427,278.25171480000427,278.25171480000427,278.7485644999979,278.7485644999979,278.7485644999979,278.7485644999979,down,1,0.8146372999908635,,,,,,,,,,,,,,,,,,,,,,,,,,,,,,,,,,,,,,,,,,,,12007,1,2024-06-14_17h17.42.471,nback,2022.2.4,None,
0-back,instructions\back-0.png,conditions\0back-p.xlsx,instructions\0-BACK.png,practice,0,3,stim\gray.png,stim\gray.png,stim\yellow.png,stim\gray.png,right,1,0,1,0,0,0,0,0,0,7,7,7,,,,,,,,,,,,,,,,,,,,,,279.74027080000087,279.74027080000087,279.74027080000087,279.74027080000087,279.74027080000087,279.74027080000087,279.74027080000087,279.74027080000087,279.74027080000087,279.74027080000087,279.74027080000087,280.23793750000186,280.23793750000186,280.23793750000186,280.23793750000186,right,1,0.42083209998963866,,,,,,,,,,,,,,,,,,,,,,,,,,,,,,,,,,,,,,,,,,,,12007,1,2024-06-14_17h17.42.471,nback,2022.2.4,None,
0-back,instructions\back-0.png,conditions\0back-p.xlsx,instructions\0-BACK.png,practice,0,3,stim\gray.png,stim\gray.png,stim\yellow.png,stim\gray.png,right,1,0,1,0,0,0,0,0,0,8,8,8,,,,,,,,,,,,,,,,,,,,,,281.24058520000835,281.24058520000835,281.24058520000835,281.24058520000835,281.24058520000835,281.24058520000835,281.24058520000835,281.24058520000835,281.24058520000835,281.24058520000835,281.24058520000835,281.73733060000814,281.73733060000814,281.73733060000814,281.73733060000814,right,1,0.6800149999908172,,,,,,,,,,,,,,,,,,,,,,,,,,,,,,,,,,,,,,,,,,,,12007,1,2024-06-14_17h17.42.471,nback,2022.2.4,None,
0-back,instructions\back-0.png,conditions\0back-p.xlsx,instructions\0-BACK.png,practice,0,4,stim\gray.png,stim\gray.png,stim\gray.png,stim\yellow.png,down,1,0,1,0,0,0,0,0,0,9,9,9,,,,,,,,,,,,,,,,,,,,,,282.74051810000674,282.74051810000674,282.74051810000674,282.74051810000674,282.74051810000674,282.74051810000674,282.74051810000674,282.74051810000674,282.74051810000674,282.74051810000674,282.74051810000674,283.23683059999894,283.23683059999894,283.23683059999894,283.23683059999894,down,1,0.6046640999993542,284.240518400009,284.240518400009,284.240518400009,284.240518400009,284.240518400009,284.240518400009,284.240518400009,,,,,,,,,,,,,,,,,,,,,,,,,,,,,,,,,,,,,12007,1,2024-06-14_17h17.42.471,nback,2022.2.4,None,
0-back,instructions\back-0.png,conditions\0back-p.xlsx,instructions\0-BACK.png,practice,0,1,stim\yellow.png,stim\gray.png,stim\gray.png,stim\gray.png,up,1,0,1,0,0,0,0,0,0,10,10,10,,,,,,,,,,,,,,,,,,,,,,284.240518400009,284.240518400009,284.240518400009,284.240518400009,284.240518400009,284.240518400009,284.240518400009,284.240518400009,284.240518400009,284.240518400009,284.240518400009,284.737552599996,284.737552599996,284.737552599996,284.737552599996,up,1,0.48922659999516327,285.7453983000014,285.7453983000014,285.7453983000014,285.7453983000014,285.7453983000014,285.7453983000014,285.7453983000014,,,,,,,,,,,,,,,,,,,,,,,,,,,,,,,,,,,,,12007,1,2024-06-14_17h17.42.471,nback,2022.2.4,None,
0-back,instructions\back-0.png,conditions\0back-p.xlsx,instructions\0-BACK.png,practice,0,2,stim\gray.png,stim\yellow.png,stim\gray.png,stim\gray.png,left,1,0,1,0,0,0,0,0,0,11,11,11,,,,,,,,,,,,,,,,,,,,,,285.7453983000014,285.7453983000014,285.7453983000014,285.7453983000014,285.7453983000014,285.7453983000014,285.7453983000014,285.7453983000014,285.7453983000014,285.7453983000014,285.7453983000014,286.248393700007,286.248393700007,286.248393700007,286.248393700007,left,1,0.33576950000133365,,,,,,,,,,,,,,,,,,,,,,,,,,,,,,,,,,,,,,,,,,,,12007,1,2024-06-14_17h17.42.471,nback,2022.2.4,None,
0-back,instructions\back-0.png,conditions\0back-p.xlsx,instructions\0-BACK.png,practice,0,4,stim\gray.png,stim\gray.png,stim\gray.png,stim\yellow.png,down,1,0,1,0,0,0,0,0,0,12,12,12,,,,,,,,,,,,,,,,,,,,,,287.2395320000069,287.2395320000069,287.2395320000069,287.2395320000069,287.2395320000069,287.2395320000069,287.2395320000069,287.2395320000069,287.2395320000069,287.2395320000069,287.2395320000069,287.73530670000764,287.73530670000764,287.73530670000764,287.73530670000764,down,1,0.6656812000001082,288.74765469999693,288.74765469999693,288.74765469999693,288.74765469999693,288.74765469999693,288.74765469999693,288.74765469999693,,,,,,,,,,,,,,,,,,,,,,,,,,,,,,,,,,,,,12007,1,2024-06-14_17h17.42.471,nback,2022.2.4,None,
0-back,instructions\back-0.png,conditions\0back-p.xlsx,instructions\0-BACK.png,practice,0,3,stim\gray.png,stim\gray.png,stim\yellow.png,stim\gray.png,right,1,0,1,0,0,0,0,0,0,13,13,13,,,,,,,,,,,,,,,,,,,,,,288.74765469999693,288.74765469999693,288.74765469999693,288.74765469999693,288.74765469999693,288.74765469999693,288.74765469999693,288.74765469999693,288.74765469999693,288.74765469999693,288.74765469999693,289.2489002000075,289.2489002000075,289.2489002000075,289.2489002000075,right,1,0.39787169999908656,,,,,,,,,,,,,,,,,,,,,,,,,,,,,,,,,,,,,,,,,,,,12007,1,2024-06-14_17h17.42.471,nback,2022.2.4,None,
0-back,instructions\back-0.png,conditions\0back-p.xlsx,instructions\0-BACK.png,practice,0,1,stim\yellow.png,stim\gray.png,stim\gray.png,stim\gray.png,up,1,0,1,0,0,0,0,0,0,14,14,14,,,,,,,,,,,,,,,,,,,,,,290.2494310000038,290.2494310000038,290.2494310000038,290.2494310000038,290.2494310000038,290.2494310000038,290.2494310000038,290.2494310000038,290.2494310000038,290.2494310000038,290.2494310000038,290.748659600009,290.748659600009,290.748659600009,290.748659600009,up,1,0.2718910999974469,,,,,,,,,,,,,,,,,,,,,,,,,,,,,,,,,,,,,,,,,,,,12007,1,2024-06-14_17h17.42.471,nback,2022.2.4,None,
0-back,instructions\back-0.png,conditions\0back-p.xlsx,instructions\0-BACK.png,practice,0,2,stim\gray.png,stim\yellow.png,stim\gray.png,stim\gray.png,left,1,0,1,0,0,0,0,0,0,15,15,15,,,,,,,,,,,,,,,,,,,,,,291.74938320000365,291.74938320000365,291.74938320000365,291.74938320000365,291.74938320000365,291.74938320000365,291.74938320000365,291.74938320000365,291.74938320000365,291.74938320000365,291.74938320000365,292.24896130000707,292.24896130000707,292.24896130000707,292.24896130000707,left,1,0.2920782000001054,,,,,,,,,,,,,,,,,,,,,,,,,,,,,,,,,,,,,,,,,,,,12007,1,2024-06-14_17h17.42.471,nback,2022.2.4,None,
0-back,instructions\back-0.png,conditions\0back-p.xlsx,instructions\0-BACK.png,practice,0,3,stim\gray.png,stim\gray.png,stim\yellow.png,stim\gray.png,right,1,0,1,0,0,0,0,0,0,16,16,16,,,,,,,,,,,,,,,,,,,,,,293.25138240000524,293.25138240000524,293.25138240000524,293.25138240000524,293.25138240000524,293.25138240000524,293.25138240000524,293.25138240000524,293.25138240000524,293.25138240000524,293.25138240000524,293.7477860000072,293.7477860000072,293.7477860000072,293.7477860000072,right,1,0.5979428999999072,,,,,,,,,,,,,,,,,,,,,,,,,,,,,,,,,,,,,,,,,,,,12007,1,2024-06-14_17h17.42.471,nback,2022.2.4,None,
0-back,instructions\back-0.png,conditions\0back-p.xlsx,instructions\0-BACK.png,practice,0,1,stim\yellow.png,stim\gray.png,stim\gray.png,stim\gray.png,up,1,0,1,0,0,0,0,0,0,17,17,17,,,,,,,,,,,,,,,,,,,,,,294.75639390001015,294.75639390001015,294.75639390001015,294.75639390001015,294.75639390001015,294.75639390001015,294.75639390001015,294.75639390001015,294.75639390001015,294.75639390001015,294.75639390001015,295.2575083999982,295.2575083999982,295.2575083999982,295.2575083999982,up,1,0.38192410000192467,,,,,,,,,,,,,,,,,,,,,,,,,,,,,,,,,,,,,,,,,,,,12007,1,2024-06-14_17h17.42.471,nback,2022.2.4,None,
0-back,instructions\back-0.png,conditions\0back-p.xlsx,instructions\0-BACK.png,practice,0,4,stim\gray.png,stim\gray.png,stim\gray.png,stim\yellow.png,down,1,0,1,0,0,0,0,0,0,18,18,18,,,,,,,,,,,,,,,,,,,,,,296.25193130000844,296.25193130000844,296.25193130000844,296.25193130000844,296.25193130000844,296.25193130000844,296.25193130000844,296.25193130000844,296.25193130000844,296.25193130000844,296.25193130000844,296.74892110000656,296.74892110000656,296.74892110000656,296.74892110000656,down,1,0.6537640000024112,,,,,,,,,,,,,,,,,,,,,,,,,,,,,,,,,,,,,,,,,,,,12007,1,2024-06-14_17h17.42.471,nback,2022.2.4,None,
0-back,instructions\back-0.png,conditions\0back-p.xlsx,instructions\0-BACK.png,practice,0,2,stim\gray.png,stim\yellow.png,stim\gray.png,stim\gray.png,left,1,0,1,0,0,0,0,0,0,19,19,19,,,,,,,,,,,,,,,,,,,,,,297.74874779999664,297.74874779999664,297.74874779999664,297.74874779999664,297.74874779999664,297.74874779999664,297.74874779999664,297.74874779999664,297.74874779999664,297.74874779999664,297.74874779999664,298.24808770000527,298.24808770000527,298.24808770000527,298.24808770000527,left,1,0.32470240000111517,,,,,,,,,,,,,,,,,,,,,,,,,,,,,,,,,,,,,,,,,,,,12007,1,2024-06-14_17h17.42.471,nback,2022.2.4,None,
0-back,instructions\back-0.png,conditions\0back-p.xlsx,instructions\0-BACK.png,,,,,,,,,1,0,1,0,0,0,0,0,,,,,,,,,,,,,,,,,,,,,,,,,,,,,,,,,,,,,,,,,,,,,,,,,,,,,,,,,,,,,,,,,,,,,,,,,,,,,,,,,,,,,,,12007,1,2024-06-14_17h17.42.471,nback,2022.2.4,None,
1-back,instructions\back-1.png,conditions\1back-p.xlsx,instructions\1-BACK.png,practice,1,1,stim\yellow.png,stim\gray.png,stim\gray.png,stim\gray.png,None,1,0,1,0,0,1,1,1,0,0,0,0,,,,,,,,,,,,,,299.38563489999797,299.38563489999797,space,19.697127399995225,319.18188460000965,323.5931910000072,323.68014640000183,324.09941029999754,324.09941029999754,324.09941029999754,324.09941029999754,324.09941029999754,324.09941029999754,324.09941029999754,324.09941029999754,324.09941029999754,324.09941029999754,324.09941029999754,324.09941029999754,324.60443819999637,324.60443819999637,324.60443819999637,324.60443819999637,None,1,,,,,,,,,,,,,,,,,,,,,,,,,,,,,,,,,,,,,,,,,,,,,12007,1,2024-06-14_17h17.42.471,nback,2022.2.4,None,
1-back,instructions\back-1.png,conditions\1back-p.xlsx,instructions\1-BACK.png,practice,1,2,stim\gray.png,stim\yellow.png,stim\gray.png,stim\gray.png,up,1,0,1,0,0,1,1,1,0,1,1,1,,,,,,,,,,,,,,,,,,,,,,325.60709810000844,325.60709810000844,325.60709810000844,325.60709810000844,325.60709810000844,325.60709810000844,325.60709810000844,325.60709810000844,325.60709810000844,325.60709810000844,325.60709810000844,326.1045202000096,326.1045202000096,326.1045202000096,326.1045202000096,left,0,0.8979471999919042,,,,,,,,,,,,,,,,,,,,,,,,,,,,,,,,,,,,,,,,,,,,12007,1,2024-06-14_17h17.42.471,nback,2022.2.4,None,
1-back,instructions\back-1.png,conditions\1back-p.xlsx,instructions\1-BACK.png,practice,1,3,stim\gray.png,stim\gray.png,stim\yellow.png,stim\gray.png,left,1,0,1,0,0,1,1,1,0,2,2,2,,,,,,,,,,,,,,,,,,,,,,327.10528960000374,327.10528960000374,327.10528960000374,327.10528960000374,327.10528960000374,327.10528960000374,327.10528960000374,327.10528960000374,327.10528960000374,327.10528960000374,327.10528960000374,327.6022076000081,327.6022076000081,327.6022076000081,327.6022076000081,left,1,0.8801594999968074,,,,,,,,,,,,,,,,,,,,,,,,,,,,,,,,,,,,,,,,,,,,12007,1,2024-06-14_17h17.42.471,nback,2022.2.4,None,
1-back,instructions\back-1.png,conditions\1back-p.xlsx,instructions\1-BACK.png,practice,1,4,stim\gray.png,stim\gray.png,stim\gray.png,stim\yellow.png,right,1,0,1,0,0,1,1,1,0,3,3,3,,,,,,,,,,,,,,,,,,,,,,328.60453589999815,328.60453589999815,328.60453589999815,328.60453589999815,328.60453589999815,328.60453589999815,328.60453589999815,328.60453589999815,328.60453589999815,328.60453589999815,328.60453589999815,329.10202659999777,329.10202659999777,329.10202659999777,329.10202659999777,right,1,0.3647331999964081,,,,,,,,,,,,,,,,,,,,,,,,,,,,,,,,,,,,,,,,,,,,12007,1,2024-06-14_17h17.42.471,nback,2022.2.4,None,
1-back,instructions\back-1.png,conditions\1back-p.xlsx,instructions\1-BACK.png,practice,1,2,stim\gray.png,stim\yellow.png,stim\gray.png,stim\gray.png,down,1,0,1,0,0,1,1,1,0,4,4,4,,,,,,,,,,,,,,,,,,,,,,330.10474320000503,330.10474320000503,330.10474320000503,330.10474320000503,330.10474320000503,330.10474320000503,330.10474320000503,330.10474320000503,330.10474320000503,330.10474320000503,330.10474320000503,330.6024941000069,330.6024941000069,330.6024941000069,330.6024941000069,left,0,1.3282274999946821,,,,,,,,,,,,,,,,,,,,,,,,,,,,,,,,,,,,,,,,,,,,12007,1,2024-06-14_17h17.42.471,nback,2022.2.4,None,
1-back,instructions\back-1.png,conditions\1back-p.xlsx,instructions\1-BACK.png,practice,1,1,stim\yellow.png,stim\gray.png,stim\gray.png,stim\gray.png,left,1,0,1,0,0,1,1,1,0,5,5,5,,,,,,,,,,,,,,,,,,,,,,331.6049856000027,331.6049856000027,331.6049856000027,331.6049856000027,331.6049856000027,331.6049856000027,331.6049856000027,331.6049856000027,331.6049856000027,331.6049856000027,331.6049856000027,332.102418399998,332.102418399998,332.102418399998,332.102418399998,down,0,1.044137300006696,,,,,,,,,,,,,,,,,,,,,,,,,,,,,,,,,,,,,,,,,,,,12007,1,2024-06-14_17h17.42.471,nback,2022.2.4,None,
1-back,instructions\back-1.png,conditions\1back-p.xlsx,instructions\1-BACK.png,practice,1,4,stim\gray.png,stim\gray.png,stim\gray.png,stim\yellow.png,up,1,0,1,0,0,1,1,1,0,6,6,6,,,,,,,,,,,,,,,,,,,,,,333.1064686000027,333.1064686000027,333.1064686000027,333.1064686000027,333.1064686000027,333.1064686000027,333.1064686000027,333.1064686000027,333.1064686000027,333.1064686000027,333.1064686000027,333.6030618000077,333.6030618000077,333.6030618000077,333.6030618000077,None,0,,334.6069653000013,334.6069653000013,334.6069653000013,334.6069653000013,334.6069653000013,334.6069653000013,334.6069653000013,,,,,,,,,,,,,,,,,,,,,,,,,,,,,,,,,,,,,12007,1,2024-06-14_17h17.42.471,nback,2022.2.4,None,
1-back,instructions\back-1.png,conditions\1back-p.xlsx,instructions\1-BACK.png,practice,1,3,stim\gray.png,stim\gray.png,stim\yellow.png,stim\gray.png,down,1,0,1,0,0,1,1,1,0,7,7,7,,,,,,,,,,,,,,,,,,,,,,334.6069653000013,334.6069653000013,334.6069653000013,334.6069653000013,334.6069653000013,334.6069653000013,334.6069653000013,334.6069653000013,334.6069653000013,334.6069653000013,334.6069653000013,335.1043223000015,335.1043223000015,335.1043223000015,335.1043223000015,None,0,,336.10734450000746,336.10734450000746,336.10734450000746,336.10734450000746,336.10734450000746,336.10734450000746,336.10734450000746,,,,,,,,,,,,,,,,,,,,,,,,,,,,,,,,,,,,,12007,1,2024-06-14_17h17.42.471,nback,2022.2.4,None,
1-back,instructions\back-1.png,conditions\1back-p.xlsx,instructions\1-BACK.png,practice,1,3,stim\gray.png,stim\gray.png,stim\yellow.png,stim\gray.png,right,1,0,1,0,0,1,1,1,0,8,8,8,,,,,,,,,,,,,,,,,,,,,,336.10734450000746,336.10734450000746,336.10734450000746,336.10734450000746,336.10734450000746,336.10734450000746,336.10734450000746,336.10734450000746,336.10734450000746,336.10734450000746,336.10734450000746,336.60436749999644,336.60436749999644,336.60436749999644,336.60436749999644,right,1,0.3503350999963004,337.6066559000028,337.6066559000028,337.6066559000028,337.6066559000028,337.6066559000028,337.6066559000028,337.6066559000028,,,,,,,,,,,,,,,,,,,,,,,,,,,,,,,,,,,,,12007,1,2024-06-14_17h17.42.471,nback,2022.2.4,None,
1-back,instructions\back-1.png,conditions\1back-p.xlsx,instructions\1-BACK.png,practice,1,4,stim\gray.png,stim\gray.png,stim\gray.png,stim\yellow.png,right,1,0,1,0,0,1,1,1,0,9,9,9,,,,,,,,,,,,,,,,,,,,,,337.6066559000028,337.6066559000028,337.6066559000028,337.6066559000028,337.6066559000028,337.6066559000028,337.6066559000028,337.6066559000028,337.6066559000028,337.6066559000028,337.6066559000028,338.10345880000386,338.10345880000386,338.10345880000386,338.10345880000386,down,0,1.3068621999991592,,,,,,,,,,,,,,,,,,,,,,,,,,,,,,,,,,,,,,,,,,,,12007,1,2024-06-14_17h17.42.471,nback,2022.2.4,None,
1-back,instructions\back-1.png,conditions\1back-p.xlsx,instructions\1-BACK.png,practice,1,1,stim\yellow.png,stim\gray.png,stim\gray.png,stim\gray.png,down,1,0,1,0,0,1,1,1,0,10,10,10,,,,,,,,,,,,,,,,,,,,,,339.1070774999971,339.1070774999971,339.1070774999971,339.1070774999971,339.1070774999971,339.1070774999971,339.1070774999971,339.1070774999971,339.1070774999971,339.1070774999971,339.1070774999971,339.60434350000287,339.60434350000287,339.60434350000287,339.60434350000287,up,0,1.0142501999944216,,,,,,,,,,,,,,,,,,,,,,,,,,,,,,,,,,,,,,,,,,,,12007,1,2024-06-14_17h17.42.471,nback,2022.2.4,None,
1-back,instructions\back-1.png,conditions\1back-p.xlsx,instructions\1-BACK.png,practice,1,2,stim\gray.png,stim\yellow.png,stim\gray.png,stim\gray.png,up,1,0,1,0,0,1,1,1,0,11,11,11,,,,,,,,,,,,,,,,,,,,,,340.60725680000905,340.60725680000905,340.60725680000905,340.60725680000905,340.60725680000905,340.60725680000905,340.60725680000905,340.60725680000905,340.60725680000905,340.60725680000905,340.60725680000905,341.1040279000008,341.1040279000008,341.1040279000008,341.1040279000008,None,0,,,,,,,,,,,,,,,,,,,,,,,,,,,,,,,,,,,,,,,,,,,,,12007,1,2024-06-14_17h17.42.471,nback,2022.2.4,None,
1-back,instructions\back-1.png,conditions\1back-p.xlsx,instructions\1-BACK.png,practice,1,4,stim\gray.png,stim\gray.png,stim\gray.png,stim\yellow.png,left,1,0,1,0,0,1,1,1,0,12,12,12,,,,,,,,,,,,,,,,,,,,,,342.1074254999985,342.1074254999985,342.1074254999985,342.1074254999985,342.1074254999985,342.1074254999985,342.1074254999985,342.1074254999985,342.1074254999985,342.1074254999985,342.1074254999985,342.6043467999989,342.6043467999989,342.6043467999989,342.6043467999989,down,0,1.421824100005324,,,,,,,,,,,,,,,,,,,,,,,,,,,,,,,,,,,,,,,,,,,,12007,1,2024-06-14_17h17.42.471,nback,2022.2.4,None,
1-back,instructions\back-1.png,conditions\1back-p.xlsx,instructions\1-BACK.png,practice,1,3,stim\gray.png,stim\gray.png,stim\yellow.png,stim\gray.png,down,1,0,1,0,0,1,1,1,0,13,13,13,,,,,,,,,,,,,,,,,,,,,,343.60711759999685,343.60711759999685,343.60711759999685,343.60711759999685,343.60711759999685,343.60711759999685,343.60711759999685,343.60711759999685,343.60711759999685,343.60711759999685,343.60711759999685,344.10388100000273,344.10388100000273,344.10388100000273,344.10388100000273,right,0,1.3058541000063997,,,,,,,,,,,,,,,,,,,,,,,,,,,,,,,,,,,,,,,,,,,,12007,1,2024-06-14_17h17.42.471,nback,2022.2.4,None,
1-back,instructions\back-1.png,conditions\1back-p.xlsx,instructions\1-BACK.png,practice,1,1,stim\yellow.png,stim\gray.png,stim\gray.png,stim\gray.png,right,1,0,1,0,0,1,1,1,0,14,14,14,,,,,,,,,,,,,,,,,,,,,,345.1069628999976,345.1069628999976,345.1069628999976,345.1069628999976,345.1069628999976,345.1069628999976,345.1069628999976,345.1069628999976,345.1069628999976,345.1069628999976,345.1069628999976,345.6044753000024,345.6044753000024,345.6044753000024,345.6044753000024,None,0,,,,,,,,,,,,,,,,,,,,,,,,,,,,,,,,,,,,,,,,,,,,,12007,1,2024-06-14_17h17.42.471,nback,2022.2.4,None,
1-back,instructions\back-1.png,conditions\1back-p.xlsx,instructions\1-BACK.png,practice,1,2,stim\gray.png,stim\yellow.png,stim\gray.png,stim\gray.png,up,1,0,1,0,0,1,1,1,0,15,15,15,,,,,,,,,,,,,,,,,,,,,,346.6144515000051,346.6144515000051,346.6144515000051,346.6144515000051,346.6144515000051,346.6144515000051,346.6144515000051,346.6144515000051,346.6144515000051,346.6144515000051,346.6144515000051,347.11525370000163,347.11525370000163,347.11525370000163,347.11525370000163,up,1,0.5060071999905631,,,,,,,,,,,,,,,,,,,,,,,,,,,,,,,,,,,,,,,,,,,,12007,1,2024-06-14_17h17.42.471,nback,2022.2.4,None,
1-back,instructions\back-1.png,conditions\1back-p.xlsx,instructions\1-BACK.png,practice,1,3,stim\gray.png,stim\gray.png,stim\yellow.png,stim\gray.png,left,1,0,1,0,0,1,1,1,0,16,16,16,,,,,,,,,,,,,,,,,,,,,,348.1056260000041,348.1056260000041,348.1056260000041,348.1056260000041,348.1056260000041,348.1056260000041,348.1056260000041,348.1056260000041,348.1056260000041,348.1056260000041,348.1056260000041,348.6059677000012,348.6059677000012,348.6059677000012,348.6059677000012,left,1,0.5435715000057826,,,,,,,,,,,,,,,,,,,,,,,,,,,,,,,,,,,,,,,,,,,,12007,1,2024-06-14_17h17.42.471,nback,2022.2.4,None,
1-back,instructions\back-1.png,conditions\1back-p.xlsx,instructions\1-BACK.png,practice,1,1,stim\yellow.png,stim\gray.png,stim\gray.png,stim\gray.png,right,1,0,1,0,0,1,1,1,0,17,17,17,,,,,,,,,,,,,,,,,,,,,,349.6167145000072,349.6167145000072,349.6167145000072,349.6167145000072,349.6167145000072,349.6167145000072,349.6167145000072,349.6167145000072,349.6167145000072,349.6167145000072,349.6167145000072,350.1156304000033,350.1156304000033,350.1156304000033,350.1156304000033,right,1,0.4962320000049658,,,,,,,,,,,,,,,,,,,,,,,,,,,,,,,,,,,,,,,,,,,,12007,1,2024-06-14_17h17.42.471,nback,2022.2.4,None,
1-back,instructions\back-1.png,conditions\1back-p.xlsx,instructions\1-BACK.png,practice,1,4,stim\gray.png,stim\gray.png,stim\gray.png,stim\yellow.png,up,1,0,1,0,0,1,1,1,0,18,18,18,,,,,,,,,,,,,,,,,,,,,,351.1058000000048,351.1058000000048,351.1058000000048,351.1058000000048,351.1058000000048,351.1058000000048,351.1058000000048,351.1058000000048,351.1058000000048,351.1058000000048,351.1058000000048,351.602237900006,351.602237900006,351.602237900006,351.602237900006,up,1,0.7271745000034571,,,,,,,,,,,,,,,,,,,,,,,,,,,,,,,,,,,,,,,,,,,,12007,1,2024-06-14_17h17.42.471,nback,2022.2.4,None,
1-back,instructions\back-1.png,conditions\1back-p.xlsx,instructions\1-BACK.png,practice,1,2,stim\gray.png,stim\yellow.png,stim\gray.png,stim\gray.png,down,1,0,1,0,0,1,1,1,0,19,19,19,,,,,,,,,,,,,,,,,,,,,,352.604376999996,352.604376999996,352.604376999996,352.604376999996,352.604376999996,352.604376999996,352.604376999996,352.604376999996,352.604376999996,352.604376999996,352.604376999996,353.10366649999924,353.10366649999924,353.10366649999924,353.10366649999924,down,1,0.38817459999700077,354.2295962000062,354.2295962000062,354.2295962000062,354.2295962000062,354.2295962000062,354.2295962000062,354.2295962000062,,,,,,,,,,,,,,,,,,,,,,,,,,,,,,,,,,,,,12007,1,2024-06-14_17h17.42.471,nback,2022.2.4,None,
1-back,instructions\back-1.png,conditions\1back-p.xlsx,instructions\1-BACK.png,,,,,,,,,1,0,1,0,0,1,1,1,,,,,,,,,,,,,,,,,,,,,,,,,,,,,,,,,,,,,,,,,,,,,,,,,,,,,,,,,,,,,,,,,,,,,,,,,,,,,,,,,,,,,,,12007,1,2024-06-14_17h17.42.471,nback,2022.2.4,None,
2-back,instructions\back-2.png,conditions\2back-p.xlsx,instructions\2-BACK.png,practice,2,1,stim\yellow.png,stim\gray.png,stim\gray.png,stim\gray.png,None,1,0,1,0,0,2,2,2,0,0,0,0,,,,,,,,,,,,,,354.2295962000062,354.2295962000062,space,14.919923999987077,369.3036793000065,373.65726380000706,373.80449310000404,374.17024020000827,374.17024020000827,374.17024020000827,374.17024020000827,374.17024020000827,374.17024020000827,374.17024020000827,374.17024020000827,374.17024020000827,374.17024020000827,374.17024020000827,374.17024020000827,374.67079089999606,374.67079089999606,374.67079089999606,374.67079089999606,None,1,,375.67361549999623,375.67361549999623,375.67361549999623,375.67361549999623,375.67361549999623,375.67361549999623,375.67361549999623,,,,,,,,,,,,,,,,,,,,,,,,,,,,,,,,,,,,,12007,1,2024-06-14_17h17.42.471,nback,2022.2.4,None,
2-back,instructions\back-2.png,conditions\2back-p.xlsx,instructions\2-BACK.png,practice,2,2,stim\gray.png,stim\yellow.png,stim\gray.png,stim\gray.png,None,1,0,1,0,0,2,2,2,0,1,1,1,,,,,,,,,,,,,,,,,,,,,,375.67361549999623,375.67361549999623,375.67361549999623,375.67361549999623,375.67361549999623,375.67361549999623,375.67361549999623,375.67361549999623,375.67361549999623,375.67361549999623,375.67361549999623,376.1707844000048,376.1707844000048,376.1707844000048,376.1707844000048,None,1,,377.1727907000022,377.1727907000022,377.1727907000022,377.1727907000022,377.1727907000022,377.1727907000022,377.1727907000022,,,,,,,,,,,,,,,,,,,,,,,,,,,,,,,,,,,,,12007,1,2024-06-14_17h17.42.471,nback,2022.2.4,None,
2-back,instructions\back-2.png,conditions\2back-p.xlsx,instructions\2-BACK.png,practice,2,3,stim\gray.png,stim\gray.png,stim\yellow.png,stim\gray.png,up,1,0,1,0,0,2,2,2,0,2,2,2,,,,,,,,,,,,,,,,,,,,,,377.1727907000022,377.1727907000022,377.1727907000022,377.1727907000022,377.1727907000022,377.1727907000022,377.1727907000022,377.1727907000022,377.1727907000022,377.1727907000022,377.1727907000022,377.669739200006,377.669739200006,377.669739200006,377.669739200006,left,0,0.6449712000030559,378.67303060000995,378.67303060000995,378.67303060000995,378.67303060000995,378.67303060000995,378.67303060000995,378.67303060000995,,,,,,,,,,,,,,,,,,,,,,,,,,,,,,,,,,,,,12007,1,2024-06-14_17h17.42.471,nback,2022.2.4,None,
2-back,instructions\back-2.png,conditions\2back-p.xlsx,instructions\2-BACK.png,practice,2,4,stim\gray.png,stim\gray.png,stim\gray.png,stim\yellow.png,left,1,0,1,0,0,2,2,2,0,3,3,3,,,,,,,,,,,,,,,,,,,,,,378.67303060000995,378.67303060000995,378.67303060000995,378.67303060000995,378.67303060000995,378.67303060000995,378.67303060000995,378.67303060000995,378.67303060000995,378.67303060000995,378.67303060000995,379.1700320000091,379.1700320000091,379.1700320000091,379.1700320000091,up,0,0.7118138000078034,380.1727386999992,380.1727386999992,380.1727386999992,380.1727386999992,380.1727386999992,380.1727386999992,380.1727386999992,,,,,,,,,,,,,,,,,,,,,,,,,,,,,,,,,,,,,12007,1,2024-06-14_17h17.42.471,nback,2022.2.4,None,
2-back,instructions\back-2.png,conditions\2back-p.xlsx,instructions\2-BACK.png,practice,2,2,stim\gray.png,stim\yellow.png,stim\gray.png,stim\gray.png,right,1,0,1,0,0,2,2,2,0,4,4,4,,,,,,,,,,,,,,,,,,,,,,380.1727386999992,380.1727386999992,380.1727386999992,380.1727386999992,380.1727386999992,380.1727386999992,380.1727386999992,380.1727386999992,380.1727386999992,380.1727386999992,380.1727386999992,380.6708287000074,380.6708287000074,380.6708287000074,380.6708287000074,None,0,,381.6709627000091,381.6709627000091,381.6709627000091,381.6709627000091,381.6709627000091,381.6709627000091,381.6709627000091,,,,,,,,,,,,,,,,,,,,,,,,,,,,,,,,,,,,,12007,1,2024-06-14_17h17.42.471,nback,2022.2.4,None,
2-back,instructions\back-2.png,conditions\2back-p.xlsx,instructions\2-BACK.png,practice,2,1,stim\yellow.png,stim\gray.png,stim\gray.png,stim\gray.png,down,1,0,1,0,0,2,2,2,0,5,5,5,,,,,,,,,,,,,,,,,,,,,,381.6709627000091,381.6709627000091,381.6709627000091,381.6709627000091,381.6709627000091,381.6709627000091,381.6709627000091,381.6709627000091,381.6709627000091,381.6709627000091,381.6709627000091,382.1707813999965,382.1707813999965,382.1707813999965,382.1707813999965,None,0,,383.1727181000024,383.1727181000024,383.1727181000024,383.1727181000024,383.1727181000024,383.1727181000024,383.1727181000024,,,,,,,,,,,,,,,,,,,,,,,,,,,,,,,,,,,,,12007,1,2024-06-14_17h17.42.471,nback,2022.2.4,None,
2-back,instructions\back-2.png,conditions\2back-p.xlsx,instructions\2-BACK.png,practice,2,4,stim\gray.png,stim\gray.png,stim\gray.png,stim\yellow.png,left,1,0,1,0,0,2,2,2,0,6,6,6,,,,,,,,,,,,,,,,,,,,,,383.1727181000024,383.1727181000024,383.1727181000024,383.1727181000024,383.1727181000024,383.1727181000024,383.1727181000024,383.1727181000024,383.1727181000024,383.1727181000024,383.1727181000024,383.6708367000101,383.6708367000101,383.6708367000101,383.6708367000101,left,1,0.5877922999934526,384.6734315000067,384.6734315000067,384.6734315000067,384.6734315000067,384.6734315000067,384.6734315000067,384.6734315000067,,,,,,,,,,,,,,,,,,,,,,,,,,,,,,,,,,,,,12007,1,2024-06-14_17h17.42.471,nback,2022.2.4,None,
2-back,instructions\back-2.png,conditions\2back-p.xlsx,instructions\2-BACK.png,practice,2,3,stim\gray.png,stim\gray.png,stim\yellow.png,stim\gray.png,up,1,0,1,0,0,2,2,2,0,7,7,7,,,,,,,,,,,,,,,,,,,,,,384.6734315000067,384.6734315000067,384.6734315000067,384.6734315000067,384.6734315000067,384.6734315000067,384.6734315000067,384.6734315000067,384.6734315000067,384.6734315000067,384.6734315000067,385.170131699997,385.170131699997,385.170131699997,385.170131699997,None,0,,386.17366010000114,386.17366010000114,386.17366010000114,386.17366010000114,386.17366010000114,386.17366010000114,386.17366010000114,,,,,,,,,,,,,,,,,,,,,,,,,,,,,,,,,,,,,12007,1,2024-06-14_17h17.42.471,nback,2022.2.4,None,
2-back,instructions\back-2.png,conditions\2back-p.xlsx,instructions\2-BACK.png,practice,2,3,stim\gray.png,stim\gray.png,stim\yellow.png,stim\gray.png,down,1,0,1,0,0,2,2,2,0,8,8,8,,,,,,,,,,,,,,,,,,,,,,386.17366010000114,386.17366010000114,386.17366010000114,386.17366010000114,386.17366010000114,386.17366010000114,386.17366010000114,386.17366010000114,386.17366010000114,386.17366010000114,386.17366010000114,386.6707469000103,386.6707469000103,386.6707469000103,386.6707469000103,up,0,0.0995314000028884,387.6727205000061,387.6727205000061,387.6727205000061,387.6727205000061,387.6727205000061,387.6727205000061,387.6727205000061,,,,,,,,,,,,,,,,,,,,,,,,,,,,,,,,,,,,,12007,1,2024-06-14_17h17.42.471,nback,2022.2.4,None,
2-back,instructions\back-2.png,conditions\2back-p.xlsx,instructions\2-BACK.png,practice,2,4,stim\gray.png,stim\gray.png,stim\gray.png,stim\yellow.png,right,1,0,1,0,0,2,2,2,0,9,9,9,,,,,,,,,,,,,,,,,,,,,,387.6727205000061,387.6727205000061,387.6727205000061,387.6727205000061,387.6727205000061,387.6727205000061,387.6727205000061,387.6727205000061,387.6727205000061,387.6727205000061,387.6727205000061,388.1686863000068,388.1686863000068,388.1686863000068,388.1686863000068,down,0,0.4166597000003094,389.17279330000747,389.17279330000747,389.17279330000747,389.17279330000747,389.17279330000747,389.17279330000747,389.17279330000747,,,,,,,,,,,,,,,,,,,,,,,,,,,,,,,,,,,,,12007,1,2024-06-14_17h17.42.471,nback,2022.2.4,None,
2-back,instructions\back-2.png,conditions\2back-p.xlsx,instructions\2-BACK.png,practice,2,1,stim\yellow.png,stim\gray.png,stim\gray.png,stim\gray.png,right,1,0,1,0,0,2,2,2,0,10,10,10,,,,,,,,,,,,,,,,,,,,,,389.17279330000747,389.17279330000747,389.17279330000747,389.17279330000747,389.17279330000747,389.17279330000747,389.17279330000747,389.17279330000747,389.17279330000747,389.17279330000747,389.17279330000747,389.66912360000424,389.66912360000424,389.66912360000424,389.66912360000424,down,0,1.012262499993085,390.6730014000059,390.6730014000059,390.6730014000059,390.6730014000059,390.6730014000059,390.6730014000059,390.6730014000059,,,,,,,,,,,,,,,,,,,,,,,,,,,,,,,,,,,,,12007,1,2024-06-14_17h17.42.471,nback,2022.2.4,None,
2-back,instructions\back-2.png,conditions\2back-p.xlsx,instructions\2-BACK.png,practice,2,2,stim\gray.png,stim\yellow.png,stim\gray.png,stim\gray.png,down,1,0,1,0,0,2,2,2,0,11,11,11,,,,,,,,,,,,,,,,,,,,,,390.6730014000059,390.6730014000059,390.6730014000059,390.6730014000059,390.6730014000059,390.6730014000059,390.6730014000059,390.6730014000059,390.6730014000059,390.6730014000059,390.6730014000059,391.1688095999998,391.1688095999998,391.1688095999998,391.1688095999998,up,0,0.8331136000051629,392.1729555000056,392.1729555000056,392.1729555000056,392.1729555000056,392.1729555000056,392.1729555000056,392.1729555000056,,,,,,,,,,,,,,,,,,,,,,,,,,,,,,,,,,,,,12007,1,2024-06-14_17h17.42.471,nback,2022.2.4,None,
2-back,instructions\back-2.png,conditions\2back-p.xlsx,instructions\2-BACK.png,practice,2,4,stim\gray.png,stim\gray.png,stim\gray.png,stim\yellow.png,up,1,0,1,0,0,2,2,2,0,12,12,12,,,,,,,,,,,,,,,,,,,,,,392.1729555000056,392.1729555000056,392.1729555000056,392.1729555000056,392.1729555000056,392.1729555000056,392.1729555000056,392.1729555000056,392.1729555000056,392.1729555000056,392.1729555000056,392.6686151000031,392.6686151000031,392.6686151000031,392.6686151000031,up,1,1.0121459999936633,393.670526300004,393.670526300004,393.670526300004,393.670526300004,393.670526300004,393.670526300004,393.670526300004,,,,,,,,,,,,,,,,,,,,,,,,,,,,,,,,,,,,,12007,1,2024-06-14_17h17.42.471,nback,2022.2.4,None,
2-back,instructions\back-2.png,conditions\2back-p.xlsx,instructions\2-BACK.png,practice,2,3,stim\gray.png,stim\gray.png,stim\yellow.png,stim\gray.png,left,1,0,1,0,0,2,2,2,0,13,13,13,,,,,,,,,,,,,,,,,,,,,,393.670526300004,393.670526300004,393.670526300004,393.670526300004,393.670526300004,393.670526300004,393.670526300004,393.670526300004,393.670526300004,393.670526300004,393.670526300004,394.17006109999784,394.17006109999784,394.17006109999784,394.17006109999784,None,0,,395.1734058000002,395.1734058000002,395.1734058000002,395.1734058000002,395.1734058000002,395.1734058000002,395.1734058000002,,,,,,,,,,,,,,,,,,,,,,,,,,,,,,,,,,,,,12007,1,2024-06-14_17h17.42.471,nback,2022.2.4,None,
2-back,instructions\back-2.png,conditions\2back-p.xlsx,instructions\2-BACK.png,practice,2,1,stim\yellow.png,stim\gray.png,stim\gray.png,stim\gray.png,down,1,0,1,0,0,2,2,2,0,14,14,14,,,,,,,,,,,,,,,,,,,,,,395.1734058000002,395.1734058000002,395.1734058000002,395.1734058000002,395.1734058000002,395.1734058000002,395.1734058000002,395.1734058000002,395.1734058000002,395.1734058000002,395.1734058000002,395.6707507999963,395.6707507999963,395.6707507999963,395.6707507999963,down,1,0.8598121999966679,396.6737781999982,396.6737781999982,396.6737781999982,396.6737781999982,396.6737781999982,396.6737781999982,396.6737781999982,,,,,,,,,,,,,,,,,,,,,,,,,,,,,,,,,,,,,12007,1,2024-06-14_17h17.42.471,nback,2022.2.4,None,
2-back,instructions\back-2.png,conditions\2back-p.xlsx,instructions\2-BACK.png,practice,2,2,stim\gray.png,stim\yellow.png,stim\gray.png,stim\gray.png,right,1,0,1,0,0,2,2,2,0,15,15,15,,,,,,,,,,,,,,,,,,,,,,396.6737781999982,396.6737781999982,396.6737781999982,396.6737781999982,396.6737781999982,396.6737781999982,396.6737781999982,396.6737781999982,396.6737781999982,396.6737781999982,396.6737781999982,397.17075760000444,397.17075760000444,397.17075760000444,397.17075760000444,right,1,1.4308676999935415,398.1715669999976,398.1715669999976,398.1715669999976,398.1715669999976,398.1715669999976,398.1715669999976,398.1715669999976,,,,,,,,,,,,,,,,,,,,,,,,,,,,,,,,,,,,,12007,1,2024-06-14_17h17.42.471,nback,2022.2.4,None,
2-back,instructions\back-2.png,conditions\2back-p.xlsx,instructions\2-BACK.png,practice,2,3,stim\gray.png,stim\gray.png,stim\yellow.png,stim\gray.png,up,1,0,1,0,0,2,2,2,0,16,16,16,,,,,,,,,,,,,,,,,,,,,,398.1715669999976,398.1715669999976,398.1715669999976,398.1715669999976,398.1715669999976,398.1715669999976,398.1715669999976,398.1715669999976,398.1715669999976,398.1715669999976,398.1715669999976,398.6708844000095,398.6708844000095,398.6708844000095,398.6708844000095,None,0,,399.6731426000042,399.6731426000042,399.6731426000042,399.6731426000042,399.6731426000042,399.6731426000042,399.6731426000042,,,,,,,,,,,,,,,,,,,,,,,,,,,,,,,,,,,,,12007,1,2024-06-14_17h17.42.471,nback,2022.2.4,None,
2-back,instructions\back-2.png,conditions\2back-p.xlsx,instructions\2-BACK.png,practice,2,1,stim\yellow.png,stim\gray.png,stim\gray.png,stim\gray.png,left,1,0,1,0,0,2,2,2,0,17,17,17,,,,,,,,,,,,,,,,,,,,,,399.6731426000042,399.6731426000042,399.6731426000042,399.6731426000042,399.6731426000042,399.6731426000042,399.6731426000042,399.6731426000042,399.6731426000042,399.6731426000042,399.6731426000042,400.17042650000076,400.17042650000076,400.17042650000076,400.17042650000076,left,1,0.25535459999809973,401.17370330000995,401.17370330000995,401.17370330000995,401.17370330000995,401.17370330000995,401.17370330000995,401.17370330000995,,,,,,,,,,,,,,,,,,,,,,,,,,,,,,,,,,,,,12007,1,2024-06-14_17h17.42.471,nback,2022.2.4,None,
2-back,instructions\back-2.png,conditions\2back-p.xlsx,instructions\2-BACK.png,practice,2,4,stim\gray.png,stim\gray.png,stim\gray.png,stim\yellow.png,right,1,0,1,0,0,2,2,2,0,18,18,18,,,,,,,,,,,,,,,,,,,,,,401.17370330000995,401.17370330000995,401.17370330000995,401.17370330000995,401.17370330000995,401.17370330000995,401.17370330000995,401.17370330000995,401.17370330000995,401.17370330000995,401.17370330000995,401.66961120000633,401.66961120000633,401.66961120000633,401.66961120000633,left,0,0.5233991999994032,402.6740568999958,402.6740568999958,402.6740568999958,402.6740568999958,402.6740568999958,402.6740568999958,402.6740568999958,,,,,,,,,,,,,,,,,,,,,,,,,,,,,,,,,,,,,12007,1,2024-06-14_17h17.42.471,nback,2022.2.4,None,
2-back,instructions\back-2.png,conditions\2back-p.xlsx,instructions\2-BACK.png,practice,2,2,stim\gray.png,stim\yellow.png,stim\gray.png,stim\gray.png,up,1,0,1,0,0,2,2,2,0,19,19,19,,,,,,,,,,,,,,,,,,,,,,402.6740568999958,402.6740568999958,402.6740568999958,402.6740568999958,402.6740568999958,402.6740568999958,402.6740568999958,402.6740568999958,402.6740568999958,402.6740568999958,402.6740568999958,403.1705606000032,403.1705606000032,403.1705606000032,403.1705606000032,None,0,,404.1707769000059,404.1707769000059,404.1707769000059,404.1707769000059,404.1707769000059,404.1707769000059,404.1707769000059,,,,,,,,,,,,,,,,,,,,,,,,,,,,,,,,,,,,,12007,1,2024-06-14_17h17.42.471,nback,2022.2.4,None,
2-back,instructions\back-2.png,conditions\2back-p.xlsx,instructions\2-BACK.png,,,,,,,,,1,0,1,0,0,2,2,2,,,,,,,,,,,,,,,,,,,,,,,,,,,,,,,,,,,,,,,,,,,,,,,,,,,,,,,,,,,,,,,,,,,,,,,,,,,,,,,,,,,,,,,12007,1,2024-06-14_17h17.42.471,nback,2022.2.4,None,
,,,,,,,,,,,,1,0,1,0,,,,,,,,,,,,,,,,,,,,,,,,,,,,,,,,,,,,,,,,,,,,,,,,,,,,,,,404.1707769000059,404.1707769000059,space,37.40368689999741,,,,,,,,,,,,,,,,,,,,,,,,,,,,,,,,,12007,1,2024-06-14_17h17.42.471,nback,2022.2.4,None,
,,,,,,,,,,,,,,,,,,,,,,,,,,,,,,,,,,,,,,,,,,,,,,,,,,,,,,,,,,,,,,,,,,,,,,,,,,441.5992366999999,441.5992366999999,space,1.9595963999890955,,,,,,,,,,,,,,,,,,,,,,,,,,,,,12007,1,2024-06-14_17h17.42.471,nback,2022.2.4,None,
2-back,instructions\back-2.png,conditions\21back-e.xlsx,,experiment,2,3,stim\gray.png,stim\gray.png,stim\yellow.png,stim\gray.png,None,,,,,,,,,,,,,0,0,0,3,0,0,0,0,,,,,,,,,,443.671791700006,448.05947639999795,448.1683200999978,448.58796710000024,,,,,,,,,,,,,,,,,,,,,,,,,,,,,,,,,,448.58796710000024,448.58796710000024,448.58796710000024,448.58796710000024,448.58796710000024,448.58796710000024,448.58796710000024,448.58796710000024,448.58796710000024,448.58796710000024,448.58796710000024,449.09224150000955,449.09224150000955,449.09224150000955,449.09224150000955,None,1,,,,,,,,,,,,12007,1,2024-06-14_17h17.42.471,nback,2022.2.4,None,
2-back,instructions\back-2.png,conditions\21back-e.xlsx,,experiment,2,4,stim\gray.png,stim\gray.png,stim\gray.png,stim\yellow.png,None,,,,,,,,,,,,,0,0,0,3,0,1,1,1,,,,,,,,,,,,,,,,,,,,,,,,,,,,,,,,,,,,,,,,,,,,,,,450.08293460001005,450.08293460001005,450.08293460001005,450.08293460001005,450.08293460001005,450.08293460001005,450.08293460001005,450.08293460001005,450.08293460001005,450.08293460001005,450.08293460001005,450.58140249999997,450.58140249999997,450.58140249999997,450.58140249999997,None,1,,,,,,,,,,,,12007,1,2024-06-14_17h17.42.471,nback,2022.2.4,None,
2-back,instructions\back-2.png,conditions\21back-e.xlsx,,experiment,2,1,stim\yellow.png,stim\gray.png,stim\gray.png,stim\gray.png,right,,,,,,,,,,,,,0,0,0,3,0,2,2,2,,,,,,,,,,,,,,,,,,,,,,,,,,,,,,,,,,,,,,,,,,,,,,,451.58463930001017,451.58463930001017,451.58463930001017,451.58463930001017,451.58463930001017,451.58463930001017,451.58463930001017,451.58463930001017,451.58463930001017,451.58463930001017,451.58463930001017,452.0819121000095,452.0819121000095,452.0819121000095,452.0819121000095,None,0,,,,,,,,,,,,12007,1,2024-06-14_17h17.42.471,nback,2022.2.4,None,
2-back,instructions\back-2.png,conditions\21back-e.xlsx,,experiment,2,2,stim\gray.png,stim\yellow.png,stim\gray.png,stim\gray.png,down,,,,,,,,,,,,,0,0,0,3,0,3,3,3,,,,,,,,,,,,,,,,,,,,,,,,,,,,,,,,,,,,,,,,,,,,,,,453.0836760000093,453.0836760000093,453.0836760000093,453.0836760000093,453.0836760000093,453.0836760000093,453.0836760000093,453.0836760000093,453.0836760000093,453.0836760000093,453.0836760000093,453.5814726999961,453.5814726999961,453.5814726999961,453.5814726999961,down,1,0.3421086999878753,,,,,,,,,,,12007,1,2024-06-14_17h17.42.471,nback,2022.2.4,None,
2-back,instructions\back-2.png,conditions\21back-e.xlsx,,experiment,2,1,stim\yellow.png,stim\gray.png,stim\gray.png,stim\gray.png,up,,,,,,,,,,,,,0,0,0,3,0,4,4,4,,,,,,,,,,,,,,,,,,,,,,,,,,,,,,,,,,,,,,,,,,,,,,,454.583627400003,454.583627400003,454.583627400003,454.583627400003,454.583627400003,454.583627400003,454.583627400003,454.583627400003,454.583627400003,454.583627400003,454.583627400003,455.0813118000078,455.0813118000078,455.0813118000078,455.0813118000078,right,0,0.1388827000046149,,,,,,,,,,,12007,1,2024-06-14_17h17.42.471,nback,2022.2.4,None,
2-back,instructions\back-2.png,conditions\21back-e.xlsx,,experiment,2,2,stim\gray.png,stim\yellow.png,stim\gray.png,stim\gray.png,left,,,,,,,,,,,,,0,0,0,3,0,5,5,5,,,,,,,,,,,,,,,,,,,,,,,,,,,,,,,,,,,,,,,,,,,,,,,456.085493400009,456.085493400009,456.085493400009,456.085493400009,456.085493400009,456.085493400009,456.085493400009,456.085493400009,456.085493400009,456.085493400009,456.085493400009,456.58218700000725,456.58218700000725,456.58218700000725,456.58218700000725,left,1,0.40286670000932645,,,,,,,,,,,12007,1,2024-06-14_17h17.42.471,nback,2022.2.4,None,
2-back,instructions\back-2.png,conditions\21back-e.xlsx,,experiment,2,3,stim\gray.png,stim\gray.png,stim\yellow.png,stim\gray.png,up,,,,,,,,,,,,,0,0,0,3,0,6,6,6,,,,,,,,,,,,,,,,,,,,,,,,,,,,,,,,,,,,,,,,,,,,,,,457.58608350000577,457.58608350000577,457.58608350000577,457.58608350000577,457.58608350000577,457.58608350000577,457.58608350000577,457.58608350000577,457.58608350000577,457.58608350000577,457.58608350000577,458.0806336000096,458.0806336000096,458.0806336000096,458.0806336000096,left,0,1.0700764000066556,,,,,,,,,,,12007,1,2024-06-14_17h17.42.471,nback,2022.2.4,None,
2-back,instructions\back-2.png,conditions\21back-e.xlsx,,experiment,2,4,stim\gray.png,stim\gray.png,stim\gray.png,stim\yellow.png,left,,,,,,,,,,,,,0,0,0,3,0,7,7,7,,,,,,,,,,,,,,,,,,,,,,,,,,,,,,,,,,,,,,,,,,,,,,,459.08405920000223,459.08405920000223,459.08405920000223,459.08405920000223,459.08405920000223,459.08405920000223,459.08405920000223,459.08405920000223,459.08405920000223,459.08405920000223,459.08405920000223,459.58200770000985,459.58200770000985,459.58200770000985,459.58200770000985,None,0,,,,,,,,,,,,12007,1,2024-06-14_17h17.42.471,nback,2022.2.4,None,
2-back,instructions\back-2.png,conditions\21back-e.xlsx,,experiment,2,3,stim\gray.png,stim\gray.png,stim\yellow.png,stim\gray.png,right,,,,,,,,,,,,,0,0,0,3,0,8,8,8,,,,,,,,,,,,,,,,,,,,,,,,,,,,,,,,,,,,,,,,,,,,,,,460.58928339999693,460.58928339999693,460.58928339999693,460.58928339999693,460.58928339999693,460.58928339999693,460.58928339999693,460.58928339999693,460.58928339999693,460.58928339999693,460.58928339999693,461.09105630000704,461.09105630000704,461.09105630000704,461.09105630000704,right,1,0.7234500000049593,,,,,,,,,,,12007,1,2024-06-14_17h17.42.471,nback,2022.2.4,None,
2-back,instructions\back-2.png,conditions\21back-e.xlsx,,experiment,2,1,stim\yellow.png,stim\gray.png,stim\gray.png,stim\gray.png,down,,,,,,,,,,,,,0,0,0,3,0,9,9,9,,,,,,,,,,,,,,,,,,,,,,,,,,,,,,,,,,,,,,,,,,,,,,,462.08264600000985,462.08264600000985,462.08264600000985,462.08264600000985,462.08264600000985,462.08264600000985,462.08264600000985,462.08264600000985,462.08264600000985,462.08264600000985,462.08264600000985,462.5798977000086,462.5798977000086,462.5798977000086,462.5798977000086,up,0,0.9423593999963487,,,,,,,,,,,12007,1,2024-06-14_17h17.42.471,nback,2022.2.4,None,
2-back,instructions\back-2.png,conditions\21back-e.xlsx,,experiment,2,4,stim\gray.png,stim\gray.png,stim\gray.png,stim\yellow.png,right,,,,,,,,,,,,,0,0,0,3,0,10,10,10,,,,,,,,,,,,,,,,,,,,,,,,,,,,,,,,,,,,,,,,,,,,,,,463.5844441000081,463.5844441000081,463.5844441000081,463.5844441000081,463.5844441000081,463.5844441000081,463.5844441000081,463.5844441000081,463.5844441000081,463.5844441000081,463.5844441000081,464.0795444999967,464.0795444999967,464.0795444999967,464.0795444999967,None,0,,,,,,,,,,,,12007,1,2024-06-14_17h17.42.471,nback,2022.2.4,None,
2-back,instructions\back-2.png,conditions\21back-e.xlsx,,experiment,2,2,stim\gray.png,stim\yellow.png,stim\gray.png,stim\gray.png,up,,,,,,,,,,,,,0,0,0,3,0,11,11,11,,,,,,,,,,,,,,,,,,,,,,,,,,,,,,,,,,,,,,,,,,,,,,,465.08264220001,465.08264220001,465.08264220001,465.08264220001,465.08264220001,465.08264220001,465.08264220001,465.08264220001,465.08264220001,465.08264220001,465.08264220001,465.5805973000097,465.5805973000097,465.5805973000097,465.5805973000097,up,1,0.7496327999979258,,,,,,,,,,,12007,1,2024-06-14_17h17.42.471,nback,2022.2.4,None,
2-back,instructions\back-2.png,conditions\21back-e.xlsx,,experiment,2,4,stim\gray.png,stim\gray.png,stim\gray.png,stim\yellow.png,down,,,,,,,,,,,,,0,0,0,3,0,12,12,12,,,,,,,,,,,,,,,,,,,,,,,,,,,,,,,,,,,,,,,,,,,,,,,466.5831569000002,466.5831569000002,466.5831569000002,466.5831569000002,466.5831569000002,466.5831569000002,466.5831569000002,466.5831569000002,466.5831569000002,466.5831569000002,466.5831569000002,467.0798291000101,467.0798291000101,467.0798291000101,467.0798291000101,None,0,,,,,,,,,,,,12007,1,2024-06-14_17h17.42.471,nback,2022.2.4,None,
2-back,instructions\back-2.png,conditions\21back-e.xlsx,,experiment,2,3,stim\gray.png,stim\gray.png,stim\yellow.png,stim\gray.png,left,,,,,,,,,,,,,0,0,0,3,0,13,13,13,,,,,,,,,,,,,,,,,,,,,,,,,,,,,,,,,,,,,,,,,,,,,,,468.0836255000031,468.0836255000031,468.0836255000031,468.0836255000031,468.0836255000031,468.0836255000031,468.0836255000031,468.0836255000031,468.0836255000031,468.0836255000031,468.0836255000031,468.581405600009,468.581405600009,468.581405600009,468.581405600009,None,0,,,,,,,,,,,,12007,1,2024-06-14_17h17.42.471,nback,2022.2.4,None,
2-back,instructions\back-2.png,conditions\21back-e.xlsx,,experiment,2,1,stim\yellow.png,stim\gray.png,stim\gray.png,stim\gray.png,down,,,,,,,,,,,,,0,0,0,3,0,14,14,14,,,,,,,,,,,,,,,,,,,,,,,,,,,,,,,,,,,,,,,,,,,,,,,469.58435889999964,469.58435889999964,469.58435889999964,469.58435889999964,469.58435889999964,469.58435889999964,469.58435889999964,469.58435889999964,469.58435889999964,469.58435889999964,469.58435889999964,470.080240700001,470.080240700001,470.080240700001,470.080240700001,down,1,0.48874610000348184,,,,,,,,,,,12007,1,2024-06-14_17h17.42.471,nback,2022.2.4,None,
2-back,instructions\back-2.png,conditions\21back-e.xlsx,,experiment,2,2,stim\gray.png,stim\yellow.png,stim\gray.png,stim\gray.png,right,,,,,,,,,,,,,0,0,0,3,0,15,15,15,,,,,,,,,,,,,,,,,,,,,,,,,,,,,,,,,,,,,,,,,,,,,,,471.0822494000022,471.0822494000022,471.0822494000022,471.0822494000022,471.0822494000022,471.0822494000022,471.0822494000022,471.0822494000022,471.0822494000022,471.0822494000022,471.0822494000022,471.5820553000085,471.5820553000085,471.5820553000085,471.5820553000085,right,1,0.4472071999916807,,,,,,,,,,,12007,1,2024-06-14_17h17.42.471,nback,2022.2.4,None,
2-back,instructions\back-2.png,conditions\21back-e.xlsx,,experiment,2,2,stim\gray.png,stim\yellow.png,stim\gray.png,stim\gray.png,up,,,,,,,,,,,,,0,0,0,3,0,16,16,16,,,,,,,,,,,,,,,,,,,,,,,,,,,,,,,,,,,,,,,,,,,,,,,472.57363610000175,472.57363610000175,472.57363610000175,472.57363610000175,472.57363610000175,472.57363610000175,472.57363610000175,472.57363610000175,472.57363610000175,472.57363610000175,472.57363610000175,473.06845140000223,473.06845140000223,473.06845140000223,473.06845140000223,up,1,0.09151459998975042,474.07068970000546,474.07068970000546,474.07068970000546,474.07068970000546,474.07068970000546,474.07068970000546,474.07068970000546,,,,12007,1,2024-06-14_17h17.42.471,nback,2022.2.4,None,
2-back,instructions\back-2.png,conditions\21back-e.xlsx,,experiment,2,1,stim\yellow.png,stim\gray.png,stim\gray.png,stim\gray.png,left,,,,,,,,,,,,,0,0,0,3,0,17,17,17,,,,,,,,,,,,,,,,,,,,,,,,,,,,,,,,,,,,,,,,,,,,,,,474.07068970000546,474.07068970000546,474.07068970000546,474.07068970000546,474.07068970000546,474.07068970000546,474.07068970000546,474.07068970000546,474.07068970000546,474.07068970000546,474.07068970000546,474.5684421000042,474.5684421000042,474.5684421000042,474.5684421000042,left,1,0.37128130000201054,475.57363440000336,475.57363440000336,475.57363440000336,475.57363440000336,475.57363440000336,475.57363440000336,475.57363440000336,,,,12007,1,2024-06-14_17h17.42.471,nback,2022.2.4,None,
2-back,instructions\back-2.png,conditions\21back-e.xlsx,,experiment,2,4,stim\gray.png,stim\gray.png,stim\gray.png,stim\yellow.png,left,,,,,,,,,,,,,0,0,0,3,0,18,18,18,,,,,,,,,,,,,,,,,,,,,,,,,,,,,,,,,,,,,,,,,,,,,,,475.57363440000336,475.57363440000336,475.57363440000336,475.57363440000336,475.57363440000336,475.57363440000336,475.57363440000336,475.57363440000336,475.57363440000336,475.57363440000336,475.57363440000336,476.0708669000014,476.0708669000014,476.0708669000014,476.0708669000014,up,0,0.523116199998185,477.0710034000076,477.0710034000076,477.0710034000076,477.0710034000076,477.0710034000076,477.0710034000076,477.0710034000076,,,,12007,1,2024-06-14_17h17.42.471,nback,2022.2.4,None,
2-back,instructions\back-2.png,conditions\21back-e.xlsx,,experiment,2,3,stim\gray.png,stim\gray.png,stim\yellow.png,stim\gray.png,up,,,,,,,,,,,,,0,0,0,3,0,19,19,19,,,,,,,,,,,,,,,,,,,,,,,,,,,,,,,,,,,,,,,,,,,,,,,477.0710034000076,477.0710034000076,477.0710034000076,477.0710034000076,477.0710034000076,477.0710034000076,477.0710034000076,477.0710034000076,477.0710034000076,477.0710034000076,477.0710034000076,477.5696775999968,477.5696775999968,477.5696775999968,477.5696775999968,None,0,,478.57087039999897,478.57087039999897,478.57087039999897,478.57087039999897,478.57087039999897,478.57087039999897,478.57087039999897,,,,12007,1,2024-06-14_17h17.42.471,nback,2022.2.4,None,
2-back,instructions\back-2.png,conditions\21back-e.xlsx,,,,,,,,,,,,,,,,,,,,,,0,0,0,3,,,,,,,,,,,,,,,,,,,,,,,,,,,,,,,,,,,,,,,,,,,,,,,,,,,,,,,,,,,,,,,,,,,,,,,,,,,,478.57087039999897,479.70726419999846,,12007,1,2024-06-14_17h17.42.471,nback,2022.2.4,None,
0-back,instructions\back-0.png,conditions\01back-e.xlsx,,experiment,0,2,stim\gray.png,stim\yellow.png,stim\gray.png,stim\gray.png,left,,,,,,,,,,,,,0,1,1,4,0,0,0,0,,,,,,,,,,479.70726419999846,484.05851810000604,484.2034028000053,484.58265019999817,,,,,,,,,,,,,,,,,,,,,,,,,,,,,,,,,,484.58265019999817,484.58265019999817,484.58265019999817,484.58265019999817,484.58265019999817,484.58265019999817,484.58265019999817,484.58265019999817,484.58265019999817,484.58265019999817,484.58265019999817,485.0794526999962,485.0794526999962,485.0794526999962,485.0794526999962,left,1,0.49842940000235103,,,,,,,,,,,12007,1,2024-06-14_17h17.42.471,nback,2022.2.4,None,
0-back,instructions\back-0.png,conditions\01back-e.xlsx,,experiment,0,4,stim\gray.png,stim\gray.png,stim\gray.png,stim\yellow.png,down,,,,,,,,,,,,,0,1,1,4,0,1,1,1,,,,,,,,,,,,,,,,,,,,,,,,,,,,,,,,,,,,,,,,,,,,,,,486.0816221999994,486.0816221999994,486.0816221999994,486.0816221999994,486.0816221999994,486.0816221999994,486.0816221999994,486.0816221999994,486.0816221999994,486.0816221999994,486.0816221999994,486.5797947000101,486.5797947000101,486.5797947000101,486.5797947000101,down,1,0.5273583000089275,,,,,,,,,,,12007,1,2024-06-14_17h17.42.471,nback,2022.2.4,None,
0-back,instructions\back-0.png,conditions\01back-e.xlsx,,experiment,0,1,stim\yellow.png,stim\gray.png,stim\gray.png,stim\gray.png,up,,,,,,,,,,,,,0,1,1,4,0,2,2,2,,,,,,,,,,,,,,,,,,,,,,,,,,,,,,,,,,,,,,,,,,,,,,,487.5818231000012,487.5818231000012,487.5818231000012,487.5818231000012,487.5818231000012,487.5818231000012,487.5818231000012,487.5818231000012,487.5818231000012,487.5818231000012,487.5818231000012,488.0792494000052,488.0792494000052,488.0792494000052,488.0792494000052,up,1,0.5558357999980217,,,,,,,,,,,12007,1,2024-06-14_17h17.42.471,nback,2022.2.4,None,
0-back,instructions\back-0.png,conditions\01back-e.xlsx,,experiment,0,2,stim\gray.png,stim\yellow.png,stim\gray.png,stim\gray.png,left,,,,,,,,,,,,,0,1,1,4,0,3,3,3,,,,,,,,,,,,,,,,,,,,,,,,,,,,,,,,,,,,,,,,,,,,,,,489.08304759999737,489.08304759999737,489.08304759999737,489.08304759999737,489.08304759999737,489.08304759999737,489.08304759999737,489.08304759999737,489.08304759999737,489.08304759999737,489.08304759999737,489.5815422000014,489.5815422000014,489.5815422000014,489.5815422000014,left,1,0.43727800001215655,,,,,,,,,,,12007,1,2024-06-14_17h17.42.471,nback,2022.2.4,None,
0-back,instructions\back-0.png,conditions\01back-e.xlsx,,experiment,0,3,stim\gray.png,stim\gray.png,stim\yellow.png,stim\gray.png,right,,,,,,,,,,,,,0,1,1,4,0,4,4,4,,,,,,,,,,,,,,,,,,,,,,,,,,,,,,,,,,,,,,,,,,,,,,,490.5836083000031,490.5836083000031,490.5836083000031,490.5836083000031,490.5836083000031,490.5836083000031,490.5836083000031,490.5836083000031,490.5836083000031,490.5836083000031,490.5836083000031,491.0814126000041,491.0814126000041,491.0814126000041,491.0814126000041,right,1,0.4335179000045173,,,,,,,,,,,12007,1,2024-06-14_17h17.42.471,nback,2022.2.4,None,
0-back,instructions\back-0.png,conditions\01back-e.xlsx,,experiment,0,1,stim\yellow.png,stim\gray.png,stim\gray.png,stim\gray.png,up,,,,,,,,,,,,,0,1,1,4,0,5,5,5,,,,,,,,,,,,,,,,,,,,,,,,,,,,,,,,,,,,,,,,,,,,,,,492.08386410000094,492.08386410000094,492.08386410000094,492.08386410000094,492.08386410000094,492.08386410000094,492.08386410000094,492.08386410000094,492.08386410000094,492.08386410000094,492.08386410000094,492.58171300000686,492.58171300000686,492.58171300000686,492.58171300000686,up,1,0.4050601000053575,,,,,,,,,,,12007,1,2024-06-14_17h17.42.471,nback,2022.2.4,None,
0-back,instructions\back-0.png,conditions\01back-e.xlsx,,experiment,0,4,stim\gray.png,stim\gray.png,stim\gray.png,stim\yellow.png,down,,,,,,,,,,,,,0,1,1,4,0,6,6,6,,,,,,,,,,,,,,,,,,,,,,,,,,,,,,,,,,,,,,,,,,,,,,,493.58421260000614,493.58421260000614,493.58421260000614,493.58421260000614,493.58421260000614,493.58421260000614,493.58421260000614,493.58421260000614,493.58421260000614,493.58421260000614,493.58421260000614,494.0817883999989,494.0817883999989,494.0817883999989,494.0817883999989,down,1,0.2722786999947857,,,,,,,,,,,12007,1,2024-06-14_17h17.42.471,nback,2022.2.4,None,
0-back,instructions\back-0.png,conditions\01back-e.xlsx,,experiment,0,3,stim\gray.png,stim\gray.png,stim\yellow.png,stim\gray.png,right,,,,,,,,,,,,,0,1,1,4,0,7,7,7,,,,,,,,,,,,,,,,,,,,,,,,,,,,,,,,,,,,,,,,,,,,,,,495.0832362000074,495.0832362000074,495.0832362000074,495.0832362000074,495.0832362000074,495.0832362000074,495.0832362000074,495.0832362000074,495.0832362000074,495.0832362000074,495.0832362000074,495.58201520000875,495.58201520000875,495.58201520000875,495.58201520000875,right,1,0.3663366999971913,,,,,,,,,,,12007,1,2024-06-14_17h17.42.471,nback,2022.2.4,None,
0-back,instructions\back-0.png,conditions\01back-e.xlsx,,experiment,0,4,stim\gray.png,stim\gray.png,stim\gray.png,stim\yellow.png,down,,,,,,,,,,,,,0,1,1,4,0,8,8,8,,,,,,,,,,,,,,,,,,,,,,,,,,,,,,,,,,,,,,,,,,,,,,,496.58479480000096,496.58479480000096,496.58479480000096,496.58479480000096,496.58479480000096,496.58479480000096,496.58479480000096,496.58479480000096,496.58479480000096,496.58479480000096,496.58479480000096,497.08272010000655,497.08272010000655,497.08272010000655,497.08272010000655,down,1,0.5121014999895124,,,,,,,,,,,12007,1,2024-06-14_17h17.42.471,nback,2022.2.4,None,
0-back,instructions\back-0.png,conditions\01back-e.xlsx,,experiment,0,3,stim\gray.png,stim\gray.png,stim\yellow.png,stim\gray.png,right,,,,,,,,,,,,,0,1,1,4,0,9,9,9,,,,,,,,,,,,,,,,,,,,,,,,,,,,,,,,,,,,,,,,,,,,,,,498.0889617000066,498.0889617000066,498.0889617000066,498.0889617000066,498.0889617000066,498.0889617000066,498.0889617000066,498.0889617000066,498.0889617000066,498.0889617000066,498.0889617000066,498.59061810000276,498.59061810000276,498.59061810000276,498.59061810000276,right,1,0.4638278999918839,,,,,,,,,,,12007,1,2024-06-14_17h17.42.471,nback,2022.2.4,None,
0-back,instructions\back-0.png,conditions\01back-e.xlsx,,experiment,0,3,stim\gray.png,stim\gray.png,stim\yellow.png,stim\gray.png,right,,,,,,,,,,,,,0,1,1,4,0,10,10,10,,,,,,,,,,,,,,,,,,,,,,,,,,,,,,,,,,,,,,,,,,,,,,,499.5846221999964,499.5846221999964,499.5846221999964,499.5846221999964,499.5846221999964,499.5846221999964,499.5846221999964,499.5846221999964,499.5846221999964,499.5846221999964,499.5846221999964,500.08169580000686,500.08169580000686,500.08169580000686,500.08169580000686,right,1,0.42374329999438487,,,,,,,,,,,12007,1,2024-06-14_17h17.42.471,nback,2022.2.4,None,
0-back,instructions\back-0.png,conditions\01back-e.xlsx,,experiment,0,1,stim\yellow.png,stim\gray.png,stim\gray.png,stim\gray.png,up,,,,,,,,,,,,,0,1,1,4,0,11,11,11,,,,,,,,,,,,,,,,,,,,,,,,,,,,,,,,,,,,,,,,,,,,,,,501.0849126999965,501.0849126999965,501.0849126999965,501.0849126999965,501.0849126999965,501.0849126999965,501.0849126999965,501.0849126999965,501.0849126999965,501.0849126999965,501.0849126999965,501.5817281000054,501.5817281000054,501.5817281000054,501.5817281000054,up,1,0.40420599999197293,,,,,,,,,,,12007,1,2024-06-14_17h17.42.471,nback,2022.2.4,None,
0-back,instructions\back-0.png,conditions\01back-e.xlsx,,experiment,0,3,stim\gray.png,stim\gray.png,stim\yellow.png,stim\gray.png,right,,,,,,,,,,,,,0,1,1,4,0,12,12,12,,,,,,,,,,,,,,,,,,,,,,,,,,,,,,,,,,,,,,,,,,,,,,,502.58169479999924,502.58169479999924,502.58169479999924,502.58169479999924,502.58169479999924,502.58169479999924,502.58169479999924,502.58169479999924,502.58169479999924,502.58169479999924,502.58169479999924,503.0798760000034,503.0798760000034,503.0798760000034,503.0798760000034,right,1,0.4189790000091307,,,,,,,,,,,12007,1,2024-06-14_17h17.42.471,nback,2022.2.4,None,
