backseq,backinstr,backfile,instruction,size_in,Trialtype,back,number,P1,P2,P3,P4,corrAns,trials_practice.thisRepN,trials_practice.thisTrialN,trials_practice.thisN,trials_practice.thisIndex,trials.thisRepN,trials.thisTrialN,trials.thisN,trials.thisIndex,trials_3.thisRepN,trials_3.thisTrialN,trials_3.thisN,trials_3.thisIndex,trials_2.thisRepN,trials_2.thisTrialN,trials_2.thisN,trials_2.thisIndex,trials_4.thisRepN,trials_4.thisTrialN,trials_4.thisN,trials_4.thisIndex,image.started,image.stopped,image_2.started,image_2.stopped,key_resp.keys,key_resp.rt,key_resp.started,key_resp.stopped,image_3.started,image_3.stopped,key_resp_2.keys,key_resp_2.rt,key_resp_2.started,key_resp_2.stopped,image_4.started,image_4.stopped,text.started,text.stopped,H1.started,H1.stopped,H2.started,H2.stopped,H3.started,H3.stopped,H4.started,H4.stopped,key_resp_3.keys,key_resp_3.corr,key_resp_3.rt,key_resp_3.started,key_resp_3.stopped,text_4.started,text_4.stopped,F1.started,F1.stopped,F2.started,F2.stopped,F3.started,F3.stopped,F4.started,F4.stopped,image_7.started,image_7.stopped,text_5.started,text_5.stopped,key_resp_6.keys,key_resp_6.rt,key_resp_6.started,key_resp_6.stopped,image_5.started,image_5.stopped,key_resp_4.keys,key_resp_4.rt,key_resp_4.started,key_resp_4.stopped,key_resp_5.keys,key_resp_5.corr,key_resp_5.started,key_resp_5.stopped,text_3.started,text_3.stopped,H1_2.started,H1_2.stopped,H2_2.started,H2_2.stopped,H3_2.started,H3_2.stopped,H4_2.started,H4_2.stopped,F1_2.started,F1_2.stopped,F2_2.started,F2_2.stopped,F3_2.started,F3_2.stopped,F4_2.started,F4_2.stopped,image_8.started,image_8.stopped,key_resp_5.rt,text_2.started,text_2.stopped,image_6.started,image_6.stopped,participant,session,date,expName,psychopyVersion,frameRate,
,,,,,,,,,,,,,,,,,,,,,,,,,,,,,,,,,11.691572400000041,None,12.62686389999999,None,space,0.9102775000001202,12.62686389999999,None,,,,,,,,,,,,,,,,,,,,,,,,,,,,,,,,,,,,,,,,,,,,,,,,,,,,,,,,,,,,,,,,,,,,,,,,,,,,,12009,001,2024_Jun_15_1756,nback,2021.2.3,59.83541670280967,
0-back,instructions\back-0.png,conditions\0back-p.xlsx,instructions\0-BACK.png,"(15, 8)",practice,0,1,stim\yellow.png,stim\gray.png,stim\gray.png,stim\gray.png,up,0,0,0,0,0,0,0,0,0,0,0,0,,,,,,,,,,,,,,,,,13.62789359999988,None,space,2.5768783000000894,13.62789359999988,None,16.598928200000046,21.106522199999972,20.9062093,None,21.37257569999997,22.375113000000056,21.37257569999997,22.375113000000056,21.37257569999997,22.375113000000056,21.37257569999997,22.375113000000056,up,1,0.5729151000000456,21.37257569999997,None,21.37257569999997,None,21.37257569999997,21.87453340000002,21.37257569999997,21.87453340000002,21.37257569999997,21.87453340000002,21.37257569999997,21.87453340000002,21.37257569999997,None,,,,,,,,,,,,,,,,,,,,,,,,,,,,,,,,,,,,,,,,,,12009,001,2024_Jun_15_1756,nback,2021.2.3,59.83541670280967,
0-back,instructions\back-0.png,conditions\0back-p.xlsx,instructions\0-BACK.png,"(15, 8)",practice,0,2,stim\gray.png,stim\yellow.png,stim\gray.png,stim\gray.png,left,0,0,0,0,0,0,0,0,0,1,1,1,,,,,,,,,,,,,,,,,,,,,,,,,,,22.7595781,23.76055109999993,22.7595781,23.76055109999993,22.7595781,23.76055109999993,22.7595781,23.76055109999993,left,1,0.4262757999999849,22.7595781,None,22.7595781,None,22.7595781,23.259666199999856,22.7595781,23.259666199999856,22.7595781,23.259666199999856,22.7595781,23.259666199999856,22.7595781,None,,,,,,,,,,,,,,,,,,,,,,,,,,,,,,,,,,,,,,,,,,12009,001,2024_Jun_15_1756,nback,2021.2.3,59.83541670280967,
0-back,instructions\back-0.png,conditions\0back-p.xlsx,instructions\0-BACK.png,"(15, 8)",practice,0,3,stim\gray.png,stim\gray.png,stim\yellow.png,stim\gray.png,right,0,0,0,0,0,0,0,0,0,2,2,2,,,,,,,,,,,,,,,,,,,,,,,,,,,24.244851400000016,25.24582119999991,24.244851400000016,25.24582119999991,24.244851400000016,25.24582119999991,24.244851400000016,25.24582119999991,right,1,0.26850500000000466,24.244851400000016,None,24.244851400000016,None,24.244851400000016,24.74537559999999,24.244851400000016,24.74537559999999,24.244851400000016,24.74537559999999,24.244851400000016,24.74537559999999,24.244851400000016,None,,,,,,,,,,,,,,,,,,,,,,,,,,,,,,,,,,,,,,,,,,12009,001,2024_Jun_15_1756,nback,2021.2.3,59.83541670280967,
0-back,instructions\back-0.png,conditions\0back-p.xlsx,instructions\0-BACK.png,"(15, 8)",practice,0,4,stim\gray.png,stim\gray.png,stim\gray.png,stim\yellow.png,down,0,0,0,0,0,0,0,0,0,3,3,3,,,,,,,,,,,,,,,,,,,,,,,,,,,25.74626289999992,26.74841689999994,25.74626289999992,26.74841689999994,25.74626289999992,26.74841689999994,25.74626289999992,26.74841689999994,down,1,0.2792247000002135,25.74626289999992,None,25.74626289999992,None,25.74626289999992,26.24766529999988,25.74626289999992,26.24766529999988,25.74626289999992,26.24766529999988,25.74626289999992,26.24766529999988,25.74626289999992,None,,,,,,,,,,,,,,,,,,,,,,,,,,,,,,,,,,,,,,,,,,12009,001,2024_Jun_15_1756,nback,2021.2.3,59.83541670280967,
0-back,instructions\back-0.png,conditions\0back-p.xlsx,instructions\0-BACK.png,"(15, 8)",practice,0,2,stim\gray.png,stim\yellow.png,stim\gray.png,stim\gray.png,left,0,0,0,0,0,0,0,0,0,4,4,4,,,,,,,,,,,,,,,,,,,,,,,,,,,27.266366399999924,28.267048599999953,27.266366399999924,28.267048599999953,27.266366399999924,28.267048599999953,27.266366399999924,28.267048599999953,left,1,0.3034852000000683,27.266366399999924,None,27.266366399999924,None,27.266366399999924,27.766647899999953,27.266366399999924,27.766647899999953,27.266366399999924,27.766647899999953,27.266366399999924,27.766647899999953,27.266366399999924,None,,,,,,,,,,,,,,,,,,,,,,,,,,,,,,,,,,,,,,,,,,12009,001,2024_Jun_15_1756,nback,2021.2.3,59.83541670280967,
0-back,instructions\back-0.png,conditions\0back-p.xlsx,instructions\0-BACK.png,"(15, 8)",practice,0,1,stim\yellow.png,stim\gray.png,stim\gray.png,stim\gray.png,up,0,0,0,0,0,0,0,0,0,5,5,5,,,,,,,,,,,,,,,,,,,,,,,,,,,28.75117209999985,29.752498399999922,28.75117209999985,29.752498399999922,28.75117209999985,29.752498399999922,28.75117209999985,29.752498399999922,up,1,0.29892100000006394,28.75117209999985,None,28.75117209999985,None,28.75117209999985,29.25243189999992,28.75117209999985,29.25243189999992,28.75117209999985,29.25243189999992,28.75117209999985,29.25243189999992,28.75117209999985,None,,,,,,,,,,,,,,,,,,,,,,,,,,,,,,,,,,,,,,,,,,12009,001,2024_Jun_15_1756,nback,2021.2.3,59.83541670280967,
0-back,instructions\back-0.png,conditions\0back-p.xlsx,instructions\0-BACK.png,"(15, 8)",practice,0,4,stim\gray.png,stim\gray.png,stim\gray.png,stim\yellow.png,down,0,0,0,0,0,0,0,0,0,6,6,6,,,,,,,,,,,,,,,,,,,,,,,,,,,30.25248089999991,31.254376200000024,30.25248089999991,31.254376200000024,30.25248089999991,31.254376200000024,30.25248089999991,31.254376200000024,down,1,0.5730773000000227,30.25248089999991,None,30.25248089999991,None,30.25248089999991,30.753406999999925,30.25248089999991,30.753406999999925,30.25248089999991,30.753406999999925,30.25248089999991,30.753406999999925,30.25248089999991,None,,,,,,,,,,,,,,,,,,,,,,,,,,,,,,,,,,,,,,,,,,12009,001,2024_Jun_15_1756,nback,2021.2.3,59.83541670280967,
0-back,instructions\back-0.png,conditions\0back-p.xlsx,instructions\0-BACK.png,"(15, 8)",practice,0,3,stim\gray.png,stim\gray.png,stim\yellow.png,stim\gray.png,right,0,0,0,0,0,0,0,0,0,7,7,7,,,,,,,,,,,,,,,,,,,,,,,,,,,31.73793869999986,32.740688699999964,31.73793869999986,32.740688699999964,31.73793869999986,32.740688699999964,31.73793869999986,32.740688699999964,right,1,0.3843280999999479,31.73793869999986,None,31.73793869999986,None,31.73793869999986,32.24024469999995,31.73793869999986,32.24024469999995,31.73793869999986,32.24024469999995,31.73793869999986,32.24024469999995,31.73793869999986,None,,,,,,,,,,,,,,,,,,,,,,,,,,,,,,,,,,,,,,,,,,12009,001,2024_Jun_15_1756,nback,2021.2.3,59.83541670280967,
0-back,instructions\back-0.png,conditions\0back-p.xlsx,instructions\0-BACK.png,"(15, 8)",practice,0,3,stim\gray.png,stim\gray.png,stim\yellow.png,stim\gray.png,right,0,0,0,0,0,0,0,0,0,8,8,8,,,,,,,,,,,,,,,,,,,,,,,,,,,33.24044479999998,34.242668099999946,33.24044479999998,34.242668099999946,33.24044479999998,34.242668099999946,33.24044479999998,34.242668099999946,right,1,0.42522520000011355,33.24044479999998,None,33.24044479999998,None,33.24044479999998,33.7417860999999,33.24044479999998,33.7417860999999,33.24044479999998,33.7417860999999,33.24044479999998,33.7417860999999,33.24044479999998,None,,,,,,,,,,,,,,,,,,,,,,,,,,,,,,,,,,,,,,,,,,12009,001,2024_Jun_15_1756,nback,2021.2.3,59.83541670280967,
0-back,instructions\back-0.png,conditions\0back-p.xlsx,instructions\0-BACK.png,"(15, 8)",practice,0,4,stim\gray.png,stim\gray.png,stim\gray.png,stim\yellow.png,down,0,0,0,0,0,0,0,0,0,9,9,9,,,,,,,,,,,,,,,,,,,,,,,,,,,34.74259659999984,35.74511140000004,34.74259659999984,35.74511140000004,34.74259659999984,35.74511140000004,34.74259659999984,35.74511140000004,down,1,0.5873149999999896,34.74259659999984,None,34.74259659999984,None,34.74259659999984,35.24422389999995,34.74259659999984,35.24422389999995,34.74259659999984,35.24422389999995,34.74259659999984,35.24422389999995,34.74259659999984,None,,,,,,,,,,,,,,,,,,,,,,,,,,,,,,,,,,,,,,,,,,12009,001,2024_Jun_15_1756,nback,2021.2.3,59.83541670280967,
0-back,instructions\back-0.png,conditions\0back-p.xlsx,instructions\0-BACK.png,"(15, 8)",practice,0,1,stim\yellow.png,stim\gray.png,stim\gray.png,stim\gray.png,up,0,0,0,0,0,0,0,0,0,10,10,10,,,,,,,,,,,,,,,,,,,,,,,,,,,36.2447267,37.24758689999999,36.2447267,37.24758689999999,36.2447267,37.24758689999999,36.2447267,37.24758689999999,up,1,0.341095199999927,36.2447267,None,36.2447267,None,36.2447267,36.74678730000005,36.2447267,36.74678730000005,36.2447267,36.74678730000005,36.2447267,36.74678730000005,36.2447267,None,,,,,,,,,,,,,,,,,,,,,,,,,,,,,,,,,,,,,,,,,,12009,001,2024_Jun_15_1756,nback,2021.2.3,59.83541670280967,
0-back,instructions\back-0.png,conditions\0back-p.xlsx,instructions\0-BACK.png,"(15, 8)",practice,0,2,stim\gray.png,stim\yellow.png,stim\gray.png,stim\gray.png,left,0,0,0,0,0,0,0,0,0,11,11,11,,,,,,,,,,,,,,,,,,,,,,,,,,,37.747205099999974,38.74979570000005,37.747205099999974,38.74979570000005,37.747205099999974,38.74979570000005,37.747205099999974,38.74979570000005,left,1,0.24672620000001189,37.747205099999974,None,37.747205099999974,None,37.747205099999974,38.24911929999985,37.747205099999974,38.24911929999985,37.747205099999974,38.24911929999985,37.747205099999974,38.24911929999985,37.747205099999974,None,,,,,,,,,,,,,,,,,,,,,,,,,,,,,,,,,,,,,,,,,,12009,001,2024_Jun_15_1756,nback,2021.2.3,59.83541670280967,
0-back,instructions\back-0.png,conditions\0back-p.xlsx,instructions\0-BACK.png,"(15, 8)",practice,0,4,stim\gray.png,stim\gray.png,stim\gray.png,stim\yellow.png,down,0,0,0,0,0,0,0,0,0,12,12,12,,,,,,,,,,,,,,,,,,,,,,,,,,,39.249454099999866,40.25186340000005,39.249454099999866,40.25186340000005,39.249454099999866,40.25186340000005,39.249454099999866,40.25186340000005,down,1,0.4171407999999701,39.249454099999866,None,39.249454099999866,None,39.249454099999866,39.75100049999992,39.249454099999866,39.75100049999992,39.249454099999866,39.75100049999992,39.249454099999866,39.75100049999992,39.249454099999866,None,,,,,,,,,,,,,,,,,,,,,,,,,,,,,,,,,,,,,,,,,,12009,001,2024_Jun_15_1756,nback,2021.2.3,59.83541670280967,
0-back,instructions\back-0.png,conditions\0back-p.xlsx,instructions\0-BACK.png,"(15, 8)",practice,0,3,stim\gray.png,stim\gray.png,stim\yellow.png,stim\gray.png,right,0,0,0,0,0,0,0,0,0,13,13,13,,,,,,,,,,,,,,,,,,,,,,,,,,,40.75175309999986,41.75441430000001,40.75175309999986,41.75441430000001,40.75175309999986,41.75441430000001,40.75175309999986,41.75441430000001,right,1,0.29860680000001594,40.75175309999986,None,40.75175309999986,None,40.75175309999986,41.25357359999998,40.75175309999986,41.25357359999998,40.75175309999986,41.25357359999998,40.75175309999986,41.25357359999998,40.75175309999986,None,,,,,,,,,,,,,,,,,,,,,,,,,,,,,,,,,,,,,,,,,,12009,001,2024_Jun_15_1756,nback,2021.2.3,59.83541670280967,
0-back,instructions\back-0.png,conditions\0back-p.xlsx,instructions\0-BACK.png,"(15, 8)",practice,0,1,stim\yellow.png,stim\gray.png,stim\gray.png,stim\gray.png,up,0,0,0,0,0,0,0,0,0,14,14,14,,,,,,,,,,,,,,,,,,,,,,,,,,,42.237532299999884,43.24007359999996,42.237532299999884,43.24007359999996,42.237532299999884,43.24007359999996,42.237532299999884,43.24007359999996,up,1,0.2686108000000331,42.237532299999884,None,42.237532299999884,None,42.237532299999884,42.73896089999994,42.237532299999884,42.73896089999994,42.237532299999884,42.73896089999994,42.237532299999884,42.73896089999994,42.237532299999884,None,,,,,,,,,,,,,,,,,,,,,,,,,,,,,,,,,,,,,,,,,,12009,001,2024_Jun_15_1756,nback,2021.2.3,59.83541670280967,
0-back,instructions\back-0.png,conditions\0back-p.xlsx,instructions\0-BACK.png,"(15, 8)",practice,0,2,stim\gray.png,stim\yellow.png,stim\gray.png,stim\gray.png,left,0,0,0,0,0,0,0,0,0,15,15,15,,,,,,,,,,,,,,,,,,,,,,,,,,,43.73938219999991,44.74216260000003,43.73938219999991,44.74216260000003,43.73938219999991,44.74216260000003,43.73938219999991,44.74216260000003,left,1,0.29451190000008864,43.73938219999991,None,43.73938219999991,None,43.73938219999991,44.241534699999875,43.73938219999991,44.241534699999875,43.73938219999991,44.241534699999875,43.73938219999991,44.241534699999875,43.73938219999991,None,,,,,,,,,,,,,,,,,,,,,,,,,,,,,,,,,,,,,,,,,,12009,001,2024_Jun_15_1756,nback,2021.2.3,59.83541670280967,
0-back,instructions\back-0.png,conditions\0back-p.xlsx,instructions\0-BACK.png,"(15, 8)",practice,0,3,stim\gray.png,stim\gray.png,stim\yellow.png,stim\gray.png,right,0,0,0,0,0,0,0,0,0,16,16,16,,,,,,,,,,,,,,,,,,,,,,,,,,,45.260140800000045,46.26064819999988,45.260140800000045,46.26064819999988,45.260140800000045,46.26064819999988,45.260140800000045,46.26064819999988,right,1,0.5177347999999711,45.260140800000045,None,45.260140800000045,None,45.260140800000045,45.760516599999846,45.260140800000045,45.760516599999846,45.260140800000045,45.760516599999846,45.260140800000045,45.760516599999846,45.260140800000045,None,,,,,,,,,,,,,,,,,,,,,,,,,,,,,,,,,,,,,,,,,,12009,001,2024_Jun_15_1756,nback,2021.2.3,59.83541670280967,
0-back,instructions\back-0.png,conditions\0back-p.xlsx,instructions\0-BACK.png,"(15, 8)",practice,0,1,stim\yellow.png,stim\gray.png,stim\gray.png,stim\gray.png,up,0,0,0,0,0,0,0,0,0,17,17,17,,,,,,,,,,,,,,,,,,,,,,,,,,,46.74406810000005,47.74680009999997,46.74406810000005,47.74680009999997,46.74406810000005,47.74680009999997,46.74406810000005,47.74680009999997,up,1,0.3862738000000263,46.74406810000005,None,46.74406810000005,None,46.74406810000005,47.24601459999985,46.74406810000005,47.24601459999985,46.74406810000005,47.24601459999985,46.74406810000005,47.24601459999985,46.74406810000005,None,,,,,,,,,,,,,,,,,,,,,,,,,,,,,,,,,,,,,,,,,,12009,001,2024_Jun_15_1756,nback,2021.2.3,59.83541670280967,
0-back,instructions\back-0.png,conditions\0back-p.xlsx,instructions\0-BACK.png,"(15, 8)",practice,0,4,stim\gray.png,stim\gray.png,stim\gray.png,stim\yellow.png,down,0,0,0,0,0,0,0,0,0,18,18,18,,,,,,,,,,,,,,,,,,,,,,,,,,,48.246522499999855,49.249040199999854,48.246522499999855,49.249040199999854,48.246522499999855,49.249040199999854,48.246522499999855,49.249040199999854,down,1,0.5245764999999665,48.246522499999855,None,48.246522499999855,None,48.246522499999855,48.74711430000002,48.246522499999855,48.74711430000002,48.246522499999855,48.74711430000002,48.246522499999855,48.74711430000002,48.246522499999855,None,,,,,,,,,,,,,,,,,,,,,,,,,,,,,,,,,,,,,,,,,,12009,001,2024_Jun_15_1756,nback,2021.2.3,59.83541670280967,
0-back,instructions\back-0.png,conditions\0back-p.xlsx,instructions\0-BACK.png,"(15, 8)",practice,0,2,stim\gray.png,stim\yellow.png,stim\gray.png,stim\gray.png,left,0,0,0,0,0,0,0,0,0,19,19,19,,,,,,,,,,,,,,,,,,,,,,,,,,,49.74843699999997,50.75127529999986,49.74843699999997,50.75127529999986,49.74843699999997,50.75127529999986,49.74843699999997,50.75127529999986,left,1,0.2457464000001437,49.74843699999997,None,49.74843699999997,None,49.74843699999997,50.250480700000026,49.74843699999997,50.250480700000026,49.74843699999997,50.250480700000026,49.74843699999997,50.250480700000026,49.74843699999997,None,,,,,,,,,,,,,,,,,,,,,,,,,,,,,,,,,,,,,,,,,,12009,001,2024_Jun_15_1756,nback,2021.2.3,59.83541670280967,
0-back,instructions\back-0.png,conditions\0back-p.xlsx,instructions\0-BACK.png,"(15, 8)",,,,,,,,,0,0,0,0,0,0,0,0,,,,,,,,,,,,,,,,,,,,,,,,,,,,,,,,,,,,,,,,,,,,,,,,,,,,,,,,,,,,,,,,,,,,,,,,,,,,,,,,,,,,,,,,,,,,,,,,,12009,001,2024_Jun_15_1756,nback,2021.2.3,59.83541670280967,
1-back,instructions\back-1.png,conditions\1back-p.xlsx,instructions\1-BACK.png,"(25, 15)",practice,1,1,stim\yellow.png,stim\gray.png,stim\gray.png,stim\gray.png,None,0,0,0,0,0,1,1,1,0,0,0,0,,,,,,,,,,,,,,,,,51.484486699999934,None,space,2.446036900000081,51.484486699999934,None,54.15547259999994,58.663270399999874,58.646530299999995,None,58.979340800000045,59.98088609999991,58.979340800000045,59.98088609999991,58.979340800000045,59.98088609999991,58.979340800000045,59.98088609999991,None,1,,58.979340800000045,None,58.979340800000045,None,58.979340800000045,59.48113880000005,58.979340800000045,59.48113880000005,58.979340800000045,59.48113880000005,58.979340800000045,59.48113880000005,58.979340800000045,None,,,,,,,,,,,,,,,,,,,,,,,,,,,,,,,,,,,,,,,,,,12009,001,2024_Jun_15_1756,nback,2021.2.3,59.83541670280967,
1-back,instructions\back-1.png,conditions\1back-p.xlsx,instructions\1-BACK.png,"(25, 15)",practice,1,2,stim\gray.png,stim\yellow.png,stim\gray.png,stim\gray.png,up,0,0,0,0,0,1,1,1,0,1,1,1,,,,,,,,,,,,,,,,,,,,,,,,,,,60.483109699999886,61.48375379999993,60.483109699999886,61.48375379999993,60.483109699999886,61.48375379999993,60.483109699999886,61.48375379999993,up,1,0.42453870000008465,60.483109699999886,None,60.483109699999886,None,60.483109699999886,60.98240959999998,60.483109699999886,60.98240959999998,60.483109699999886,60.98240959999998,60.483109699999886,60.98240959999998,60.483109699999886,None,,,,,,,,,,,,,,,,,,,,,,,,,,,,,,,,,,,,,,,,,,12009,001,2024_Jun_15_1756,nback,2021.2.3,59.83541670280967,
1-back,instructions\back-1.png,conditions\1back-p.xlsx,instructions\1-BACK.png,"(25, 15)",practice,1,3,stim\gray.png,stim\gray.png,stim\yellow.png,stim\gray.png,left,0,0,0,0,0,1,1,1,0,2,2,2,,,,,,,,,,,,,,,,,,,,,,,,,,,61.96784219999995,62.96944529999996,61.96784219999995,62.96944529999996,61.96784219999995,62.96944529999996,61.96784219999995,62.96944529999996,left,1,0.32257499999991524,61.96784219999995,None,61.96784219999995,None,61.96784219999995,62.469001400000025,61.96784219999995,62.469001400000025,61.96784219999995,62.469001400000025,61.96784219999995,62.469001400000025,61.96784219999995,None,,,,,,,,,,,,,,,,,,,,,,,,,,,,,,,,,,,,,,,,,,12009,001,2024_Jun_15_1756,nback,2021.2.3,59.83541670280967,
1-back,instructions\back-1.png,conditions\1back-p.xlsx,instructions\1-BACK.png,"(25, 15)",practice,1,4,stim\gray.png,stim\gray.png,stim\gray.png,stim\yellow.png,right,0,0,0,0,0,1,1,1,0,3,3,3,,,,,,,,,,,,,,,,,,,,,,,,,,,63.469118699999854,64.47194349999995,63.469118699999854,64.47194349999995,63.469118699999854,64.47194349999995,63.469118699999854,64.47194349999995,right,1,0.2613541000000623,63.469118699999854,None,63.469118699999854,None,63.469118699999854,63.970951199999945,63.469118699999854,63.970951199999945,63.469118699999854,63.970951199999945,63.469118699999854,63.970951199999945,63.469118699999854,None,,,,,,,,,,,,,,,,,,,,,,,,,,,,,,,,,,,,,,,,,,12009,001,2024_Jun_15_1756,nback,2021.2.3,59.83541670280967,
1-back,instructions\back-1.png,conditions\1back-p.xlsx,instructions\1-BACK.png,"(25, 15)",practice,1,2,stim\gray.png,stim\yellow.png,stim\gray.png,stim\gray.png,down,0,0,0,0,0,1,1,1,0,4,4,4,,,,,,,,,,,,,,,,,,,,,,,,,,,64.97159939999983,65.97320169999989,64.97159939999983,65.97320169999989,64.97159939999983,65.97320169999989,64.97159939999983,65.97320169999989,down,1,0.22292590000006385,64.97159939999983,None,64.97159939999983,None,64.97159939999983,65.47322289999988,64.97159939999983,65.47322289999988,64.97159939999983,65.47322289999988,64.97159939999983,65.47322289999988,64.97159939999983,None,,,,,,,,,,,,,,,,,,,,,,,,,,,,,,,,,,,,,,,,,,12009,001,2024_Jun_15_1756,nback,2021.2.3,59.83541670280967,
1-back,instructions\back-1.png,conditions\1back-p.xlsx,instructions\1-BACK.png,"(25, 15)",practice,1,1,stim\yellow.png,stim\gray.png,stim\gray.png,stim\gray.png,left,0,0,0,0,0,1,1,1,0,5,5,5,,,,,,,,,,,,,,,,,,,,,,,,,,,66.47382130000005,67.47670519999997,66.47382130000005,67.47670519999997,66.47382130000005,67.47670519999997,66.47382130000005,67.47670519999997,left,1,0.11284189999992122,66.47382130000005,None,66.47382130000005,None,66.47382130000005,66.97480889999997,66.47382130000005,66.97480889999997,66.47382130000005,66.97480889999997,66.47382130000005,66.97480889999997,66.47382130000005,None,,,,,,,,,,,,,,,,,,,,,,,,,,,,,,,,,,,,,,,,,,12009,001,2024_Jun_15_1756,nback,2021.2.3,59.83541670280967,
1-back,instructions\back-1.png,conditions\1back-p.xlsx,instructions\1-BACK.png,"(25, 15)",practice,1,4,stim\gray.png,stim\gray.png,stim\gray.png,stim\yellow.png,up,0,0,0,0,0,1,1,1,0,6,6,6,,,,,,,,,,,,,,,,,,,,,,,,,,,67.97768059999999,68.97784209999986,67.97768059999999,68.97784209999986,67.97768059999999,68.97784209999986,67.97768059999999,68.97784209999986,up,1,0.20910449999996672,67.97768059999999,None,67.97768059999999,None,67.97768059999999,68.47833930000002,67.97768059999999,68.47833930000002,67.97768059999999,68.47833930000002,67.97768059999999,68.47833930000002,67.97768059999999,None,,,,,,,,,,,,,,,,,,,,,,,,,,,,,,,,,,,,,,,,,,12009,001,2024_Jun_15_1756,nback,2021.2.3,59.83541670280967,
1-back,instructions\back-1.png,conditions\1back-p.xlsx,instructions\1-BACK.png,"(25, 15)",practice,1,3,stim\gray.png,stim\gray.png,stim\yellow.png,stim\gray.png,down,0,0,0,0,0,1,1,1,0,7,7,7,,,,,,,,,,,,,,,,,,,,,,,,,,,69.46180409999988,70.46442419999994,69.46180409999988,70.46442419999994,69.46180409999988,70.46442419999994,69.46180409999988,70.46442419999994,down,1,0.8208563000000595,69.46180409999988,None,69.46180409999988,None,69.46180409999988,69.96318739999992,69.46180409999988,69.96318739999992,69.46180409999988,69.96318739999992,69.46180409999988,69.96318739999992,69.46180409999988,None,,,,,,,,,,,,,,,,,,,,,,,,,,,,,,,,,,,,,,,,,,12009,001,2024_Jun_15_1756,nback,2021.2.3,59.83541670280967,
1-back,instructions\back-1.png,conditions\1back-p.xlsx,instructions\1-BACK.png,"(25, 15)",practice,1,3,stim\gray.png,stim\gray.png,stim\yellow.png,stim\gray.png,right,0,0,0,0,0,1,1,1,0,8,8,8,,,,,,,,,,,,,,,,,,,,,,,,,,,70.96458429999984,71.96696999999995,70.96458429999984,71.96696999999995,70.96458429999984,71.96696999999995,70.96458429999984,71.96696999999995,right,1,0.2305848999999398,70.96458429999984,None,70.96458429999984,None,70.96458429999984,71.46585770000002,70.96458429999984,71.46585770000002,70.96458429999984,71.46585770000002,70.96458429999984,71.46585770000002,70.96458429999984,None,,,,,,,,,,,,,,,,,,,,,,,,,,,,,,,,,,,,,,,,,,12009,001,2024_Jun_15_1756,nback,2021.2.3,59.83541670280967,
1-back,instructions\back-1.png,conditions\1back-p.xlsx,instructions\1-BACK.png,"(25, 15)",practice,1,4,stim\gray.png,stim\gray.png,stim\gray.png,stim\yellow.png,right,0,0,0,0,0,1,1,1,0,9,9,9,,,,,,,,,,,,,,,,,,,,,,,,,,,72.48440759999994,73.48525270000005,72.48440759999994,73.48525270000005,72.48440759999994,73.48525270000005,72.48440759999994,73.48525270000005,right,1,0.599056100000098,72.48440759999994,None,72.48440759999994,None,72.48440759999994,72.98473119999994,72.48440759999994,72.98473119999994,72.48440759999994,72.98473119999994,72.48440759999994,72.98473119999994,72.48440759999994,None,,,,,,,,,,,,,,,,,,,,,,,,,,,,,,,,,,,,,,,,,,12009,001,2024_Jun_15_1756,nback,2021.2.3,59.83541670280967,
1-back,instructions\back-1.png,conditions\1back-p.xlsx,instructions\1-BACK.png,"(25, 15)",practice,1,1,stim\yellow.png,stim\gray.png,stim\gray.png,stim\gray.png,down,0,0,0,0,0,1,1,1,0,10,10,10,,,,,,,,,,,,,,,,,,,,,,,,,,,73.96837749999986,74.9709272,73.96837749999986,74.9709272,73.96837749999986,74.9709272,73.96837749999986,74.9709272,up,0,1.3303474000001643,73.96837749999986,None,73.96837749999986,None,73.96837749999986,74.47043589999998,73.96837749999986,74.47043589999998,73.96837749999986,74.47043589999998,73.96837749999986,74.47043589999998,73.96837749999986,None,,,,,,,,,,,,,,,,,,,,,,,,,,,,,,,,,,,,,,,,,,12009,001,2024_Jun_15_1756,nback,2021.2.3,59.83541670280967,
1-back,instructions\back-1.png,conditions\1back-p.xlsx,instructions\1-BACK.png,"(25, 15)",practice,1,2,stim\gray.png,stim\yellow.png,stim\gray.png,stim\gray.png,up,0,0,0,0,0,1,1,1,0,11,11,11,,,,,,,,,,,,,,,,,,,,,,,,,,,75.47080809999989,76.47334389999992,75.47080809999989,76.47334389999992,75.47080809999989,76.47334389999992,75.47080809999989,76.47334389999992,up,1,0.5160479999999552,75.47080809999989,None,75.47080809999989,None,75.47080809999989,75.97267169999986,75.47080809999989,75.97267169999986,75.47080809999989,75.97267169999986,75.47080809999989,75.97267169999986,75.47080809999989,None,,,,,,,,,,,,,,,,,,,,,,,,,,,,,,,,,,,,,,,,,,12009,001,2024_Jun_15_1756,nback,2021.2.3,59.83541670280967,
1-back,instructions\back-1.png,conditions\1back-p.xlsx,instructions\1-BACK.png,"(25, 15)",practice,1,4,stim\gray.png,stim\gray.png,stim\gray.png,stim\yellow.png,left,0,0,0,0,0,1,1,1,0,12,12,12,,,,,,,,,,,,,,,,,,,,,,,,,,,76.97304499999996,77.97559409999985,76.97304499999996,77.97559409999985,76.97304499999996,77.97559409999985,76.97304499999996,77.97559409999985,left,1,0.398359100000107,76.97304499999996,None,76.97304499999996,None,76.97304499999996,77.47510850000003,76.97304499999996,77.47510850000003,76.97304499999996,77.47510850000003,76.97304499999996,77.47510850000003,76.97304499999996,None,,,,,,,,,,,,,,,,,,,,,,,,,,,,,,,,,,,,,,,,,,12009,001,2024_Jun_15_1756,nback,2021.2.3,59.83541670280967,
1-back,instructions\back-1.png,conditions\1back-p.xlsx,instructions\1-BACK.png,"(25, 15)",practice,1,3,stim\gray.png,stim\gray.png,stim\yellow.png,stim\gray.png,down,0,0,0,0,0,1,1,1,0,13,13,13,,,,,,,,,,,,,,,,,,,,,,,,,,,78.47573149999994,79.47800710000001,78.47573149999994,79.47800710000001,78.47573149999994,79.47800710000001,78.47573149999994,79.47800710000001,down,1,0.3752991999999722,78.47573149999994,None,78.47573149999994,None,78.47573149999994,78.97619510000004,78.47573149999994,78.97619510000004,78.47573149999994,78.97619510000004,78.47573149999994,78.97619510000004,78.47573149999994,None,,,,,,,,,,,,,,,,,,,,,,,,,,,,,,,,,,,,,,,,,,12009,001,2024_Jun_15_1756,nback,2021.2.3,59.83541670280967,
1-back,instructions\back-1.png,conditions\1back-p.xlsx,instructions\1-BACK.png,"(25, 15)",practice,1,1,stim\yellow.png,stim\gray.png,stim\gray.png,stim\gray.png,right,0,0,0,0,0,1,1,1,0,14,14,14,,,,,,,,,,,,,,,,,,,,,,,,,,,79.96064789999991,80.96252329999993,79.96064789999991,80.96252329999993,79.96064789999991,80.96252329999993,79.96064789999991,80.96252329999993,right,1,0.2350183000000925,79.96064789999991,None,79.96064789999991,None,79.96064789999991,80.46249719999992,79.96064789999991,80.46249719999992,79.96064789999991,80.46249719999992,79.96064789999991,80.46249719999992,79.96064789999991,None,,,,,,,,,,,,,,,,,,,,,,,,,,,,,,,,,,,,,,,,,,12009,001,2024_Jun_15_1756,nback,2021.2.3,59.83541670280967,
1-back,instructions\back-1.png,conditions\1back-p.xlsx,instructions\1-BACK.png,"(25, 15)",practice,1,2,stim\gray.png,stim\yellow.png,stim\gray.png,stim\gray.png,up,0,0,0,0,0,1,1,1,0,15,15,15,,,,,,,,,,,,,,,,,,,,,,,,,,,81.46302309999987,82.46571119999999,81.46302309999987,82.46571119999999,81.46302309999987,82.46571119999999,81.46302309999987,82.46571119999999,up,1,0.22801610000010442,81.46302309999987,None,81.46302309999987,None,81.46302309999987,81.96497709999994,81.46302309999987,81.96497709999994,81.46302309999987,81.96497709999994,81.46302309999987,81.96497709999994,81.46302309999987,None,,,,,,,,,,,,,,,,,,,,,,,,,,,,,,,,,,,,,,,,,,12009,001,2024_Jun_15_1756,nback,2021.2.3,59.83541670280967,
1-back,instructions\back-1.png,conditions\1back-p.xlsx,instructions\1-BACK.png,"(25, 15)",practice,1,3,stim\gray.png,stim\gray.png,stim\yellow.png,stim\gray.png,left,0,0,0,0,0,1,1,1,0,16,16,16,,,,,,,,,,,,,,,,,,,,,,,,,,,82.96550969999998,83.96747319999986,82.96550969999998,83.96747319999986,82.96550969999998,83.96747319999986,82.96550969999998,83.96747319999986,left,1,0.17348980000019765,82.96550969999998,None,82.96550969999998,None,82.96550969999998,83.46688319999998,82.96550969999998,83.46688319999998,82.96550969999998,83.46688319999998,82.96550969999998,83.46688319999998,82.96550969999998,None,,,,,,,,,,,,,,,,,,,,,,,,,,,,,,,,,,,,,,,,,,12009,001,2024_Jun_15_1756,nback,2021.2.3,59.83541670280967,
1-back,instructions\back-1.png,conditions\1back-p.xlsx,instructions\1-BACK.png,"(25, 15)",practice,1,1,stim\yellow.png,stim\gray.png,stim\gray.png,stim\gray.png,right,0,0,0,0,0,1,1,1,0,17,17,17,,,,,,,,,,,,,,,,,,,,,,,,,,,84.46757349999984,85.4693221,84.46757349999984,85.4693221,84.46757349999984,85.4693221,84.46757349999984,85.4693221,right,1,0.04797069999995074,84.46757349999984,None,84.46757349999984,None,84.46757349999984,84.96962469999994,84.46757349999984,84.96962469999994,84.46757349999984,84.96962469999994,84.46757349999984,84.96962469999994,84.46757349999984,None,,,,,,,,,,,,,,,,,,,,,,,,,,,,,,,,,,,,,,,,,,12009,001,2024_Jun_15_1756,nback,2021.2.3,59.83541670280967,
1-back,instructions\back-1.png,conditions\1back-p.xlsx,instructions\1-BACK.png,"(25, 15)",practice,1,4,stim\gray.png,stim\gray.png,stim\gray.png,stim\yellow.png,up,0,0,0,0,0,1,1,1,0,18,18,18,,,,,,,,,,,,,,,,,,,,,,,,,,,85.9698922,86.97225789999993,85.9698922,86.97225789999993,85.9698922,86.97225789999993,85.9698922,86.97225789999993,None,0,,85.9698922,None,85.9698922,None,85.9698922,86.47190279999995,85.9698922,86.47190279999995,85.9698922,86.47190279999995,85.9698922,86.47190279999995,85.9698922,None,,,,,,,,,,,,,,,,,,,,,,,,,,,,,,,,,,,,,,,,,,12009,001,2024_Jun_15_1756,nback,2021.2.3,59.83541670280967,
1-back,instructions\back-1.png,conditions\1back-p.xlsx,instructions\1-BACK.png,"(25, 15)",practice,1,2,stim\gray.png,stim\yellow.png,stim\gray.png,stim\gray.png,down,0,0,0,0,0,1,1,1,0,19,19,19,,,,,,,,,,,,,,,,,,,,,,,,,,,87.47231650000003,88.4746427,87.47231650000003,88.4746427,87.47231650000003,88.4746427,87.47231650000003,88.4746427,left,0,1.1549573999998302,87.47231650000003,None,87.47231650000003,None,87.47231650000003,87.97306989999993,87.47231650000003,87.97306989999993,87.47231650000003,87.97306989999993,87.47231650000003,87.97306989999993,87.47231650000003,None,,,,,,,,,,,,,,,,,,,,,,,,,,,,,,,,,,,,,,,,,,12009,001,2024_Jun_15_1756,nback,2021.2.3,59.83541670280967,
1-back,instructions\back-1.png,conditions\1back-p.xlsx,instructions\1-BACK.png,"(25, 15)",,,,,,,,,0,0,0,0,0,1,1,1,,,,,,,,,,,,,,,,,,,,,,,,,,,,,,,,,,,,,,,,,,,,,,,,,,,,,,,,,,,,,,,,,,,,,,,,,,,,,,,,,,,,,,,,,,,,,,,,,12009,001,2024_Jun_15_1756,nback,2021.2.3,59.83541670280967,
2-back,instructions\back-2.png,conditions\2back-p.xlsx,instructions\2-BACK.png,"(25, 15)",practice,2,1,stim\yellow.png,stim\gray.png,stim\gray.png,stim\gray.png,None,0,0,0,0,0,2,2,2,0,0,0,0,,,,,,,,,,,,,,,,,89.24347069999999,None,space,19.437906399999974,89.24347069999999,None,108.93804090000003,113.44691880000005,113.37848389999999,None,113.72933450000005,114.73107989999994,113.72933450000005,114.73107989999994,113.72933450000005,114.73107989999994,113.72933450000005,114.73107989999994,None,1,,113.72933450000005,None,113.72933450000005,None,113.72933450000005,114.23000069999989,113.72933450000005,114.23000069999989,113.72933450000005,114.23000069999989,113.72933450000005,114.23000069999989,113.72933450000005,None,,,,,,,,,,,,,,,,,,,,,,,,,,,,,,,,,,,,,,,,,,12009,001,2024_Jun_15_1756,nback,2021.2.3,59.83541670280967,
2-back,instructions\back-2.png,conditions\2back-p.xlsx,instructions\2-BACK.png,"(25, 15)",practice,2,2,stim\gray.png,stim\yellow.png,stim\gray.png,stim\gray.png,None,0,0,0,0,0,2,2,2,0,1,1,1,,,,,,,,,,,,,,,,,,,,,,,,,,,115.21385209999994,116.21670960000006,115.21385209999994,116.21670960000006,115.21385209999994,116.21670960000006,115.21385209999994,116.21670960000006,None,1,,115.21385209999994,None,115.21385209999994,None,115.21385209999994,115.7158821999999,115.21385209999994,115.7158821999999,115.21385209999994,115.7158821999999,115.21385209999994,115.7158821999999,115.21385209999994,None,,,,,,,,,,,,,,,,,,,,,,,,,,,,,,,,,,,,,,,,,,12009,001,2024_Jun_15_1756,nback,2021.2.3,59.83541670280967,
2-back,instructions\back-2.png,conditions\2back-p.xlsx,instructions\2-BACK.png,"(25, 15)",practice,2,3,stim\gray.png,stim\gray.png,stim\yellow.png,stim\gray.png,up,0,0,0,0,0,2,2,2,0,2,2,2,,,,,,,,,,,,,,,,,,,,,,,,,,,116.73460769999997,117.73551329999987,116.73460769999997,117.73551329999987,116.73460769999997,117.73551329999987,116.73460769999997,117.73551329999987,up,1,0.25351019999993696,116.73460769999997,None,116.73460769999997,None,116.73460769999997,117.23486209999987,116.73460769999997,117.23486209999987,116.73460769999997,117.23486209999987,116.73460769999997,117.23486209999987,116.73460769999997,None,,,,,,,,,,,,,,,,,,,,,,,,,,,,,,,,,,,,,,,,,,12009,001,2024_Jun_15_1756,nback,2021.2.3,59.83541670280967,
2-back,instructions\back-2.png,conditions\2back-p.xlsx,instructions\2-BACK.png,"(25, 15)",practice,2,4,stim\gray.png,stim\gray.png,stim\gray.png,stim\yellow.png,left,0,0,0,0,0,2,2,2,0,3,3,3,,,,,,,,,,,,,,,,,,,,,,,,,,,118.21866499999987,119.22072609999987,118.21866499999987,119.22072609999987,118.21866499999987,119.22072609999987,118.21866499999987,119.22072609999987,left,1,0.1853073999998287,118.21866499999987,None,118.21866499999987,None,118.21866499999987,118.72052529999996,118.21866499999987,118.72052529999996,118.21866499999987,118.72052529999996,118.21866499999987,118.72052529999996,118.21866499999987,None,,,,,,,,,,,,,,,,,,,,,,,,,,,,,,,,,,,,,,,,,,12009,001,2024_Jun_15_1756,nback,2021.2.3,59.83541670280967,
2-back,instructions\back-2.png,conditions\2back-p.xlsx,instructions\2-BACK.png,"(25, 15)",practice,2,2,stim\gray.png,stim\yellow.png,stim\gray.png,stim\gray.png,right,0,0,0,0,0,2,2,2,0,4,4,4,,,,,,,,,,,,,,,,,,,,,,,,,,,119.7207472,120.72343649999993,119.7207472,120.72343649999993,119.7207472,120.72343649999993,119.7207472,120.72343649999993,right,1,0.13124609999999848,119.7207472,None,119.7207472,None,119.7207472,120.2227367999999,119.7207472,120.2227367999999,119.7207472,120.2227367999999,119.7207472,120.2227367999999,119.7207472,None,,,,,,,,,,,,,,,,,,,,,,,,,,,,,,,,,,,,,,,,,,12009,001,2024_Jun_15_1756,nback,2021.2.3,59.83541670280967,
2-back,instructions\back-2.png,conditions\2back-p.xlsx,instructions\2-BACK.png,"(25, 15)",practice,2,1,stim\yellow.png,stim\gray.png,stim\gray.png,stim\gray.png,down,0,0,0,0,0,2,2,2,0,5,5,5,,,,,,,,,,,,,,,,,,,,,,,,,,,121.2414495999999,122.24240499999996,121.2414495999999,122.24240499999996,121.2414495999999,122.24240499999996,121.2414495999999,122.24240499999996,down,1,0.07468859999994493,121.2414495999999,None,121.2414495999999,None,121.2414495999999,121.74152359999994,121.2414495999999,121.74152359999994,121.2414495999999,121.74152359999994,121.2414495999999,121.74152359999994,121.2414495999999,None,,,,,,,,,,,,,,,,,,,,,,,,,,,,,,,,,,,,,,,,,,12009,001,2024_Jun_15_1756,nback,2021.2.3,59.83541670280967,
2-back,instructions\back-2.png,conditions\2back-p.xlsx,instructions\2-BACK.png,"(25, 15)",practice,2,4,stim\gray.png,stim\gray.png,stim\gray.png,stim\yellow.png,left,0,0,0,0,0,2,2,2,0,6,6,6,,,,,,,,,,,,,,,,,,,,,,,,,,,122.70985150000001,123.71109079999997,122.70985150000001,123.71109079999997,122.70985150000001,123.71109079999997,122.70985150000001,123.71109079999997,up,0,1.3024453000000449,122.70985150000001,None,122.70985150000001,None,122.70985150000001,123.20958689999998,122.70985150000001,123.20958689999998,122.70985150000001,123.20958689999998,122.70985150000001,123.20958689999998,122.70985150000001,None,,,,,,,,,,,,,,,,,,,,,,,,,,,,,,,,,,,,,,,,,,12009,001,2024_Jun_15_1756,nback,2021.2.3,59.83541670280967,
2-back,instructions\back-2.png,conditions\2back-p.xlsx,instructions\2-BACK.png,"(25, 15)",practice,2,3,stim\gray.png,stim\gray.png,stim\yellow.png,stim\gray.png,up,0,0,0,0,0,2,2,2,0,7,7,7,,,,,,,,,,,,,,,,,,,,,,,,,,,124.23001079999995,125.23022769999989,124.23001079999995,125.23022769999989,124.23001079999995,125.23022769999989,124.23001079999995,125.23022769999989,down,0,0.8305783999999221,124.23001079999995,None,124.23001079999995,None,124.23001079999995,124.72925710000004,124.23001079999995,124.72925710000004,124.23001079999995,124.72925710000004,124.23001079999995,124.72925710000004,124.23001079999995,None,,,,,,,,,,,,,,,,,,,,,,,,,,,,,,,,,,,,,,,,,,12009,001,2024_Jun_15_1756,nback,2021.2.3,59.83541670280967,
2-back,instructions\back-2.png,conditions\2back-p.xlsx,instructions\2-BACK.png,"(25, 15)",practice,2,3,stim\gray.png,stim\gray.png,stim\yellow.png,stim\gray.png,down,0,0,0,0,0,2,2,2,0,8,8,8,,,,,,,,,,,,,,,,,,,,,,,,,,,125.71299409999983,126.71594340000001,125.71299409999983,126.71594340000001,125.71299409999983,126.71594340000001,125.71299409999983,126.71594340000001,down,1,0.26008390000015424,125.71299409999983,None,125.71299409999983,None,125.71299409999983,126.21389019999992,125.71299409999983,126.21389019999992,125.71299409999983,126.21389019999992,125.71299409999983,126.21389019999992,125.71299409999983,None,,,,,,,,,,,,,,,,,,,,,,,,,,,,,,,,,,,,,,,,,,12009,001,2024_Jun_15_1756,nback,2021.2.3,59.83541670280967,
2-back,instructions\back-2.png,conditions\2back-p.xlsx,instructions\2-BACK.png,"(25, 15)",practice,2,4,stim\gray.png,stim\gray.png,stim\gray.png,stim\yellow.png,right,0,0,0,0,0,2,2,2,0,9,9,9,,,,,,,,,,,,,,,,,,,,,,,,,,,127.21552529999985,128.21807160000003,127.21552529999985,128.21807160000003,127.21552529999985,128.21807160000003,127.21552529999985,128.21807160000003,right,1,0.24463619999983166,127.21552529999985,None,127.21552529999985,None,127.21552529999985,127.71615870000005,127.21552529999985,127.71615870000005,127.21552529999985,127.71615870000005,127.21552529999985,127.71615870000005,127.21552529999985,None,,,,,,,,,,,,,,,,,,,,,,,,,,,,,,,,,,,,,,,,,,12009,001,2024_Jun_15_1756,nback,2021.2.3,59.83541670280967,
2-back,instructions\back-2.png,conditions\2back-p.xlsx,instructions\2-BACK.png,"(25, 15)",practice,2,1,stim\yellow.png,stim\gray.png,stim\gray.png,stim\gray.png,right,0,0,0,0,0,2,2,2,0,10,10,10,,,,,,,,,,,,,,,,,,,,,,,,,,,128.71773340000004,129.7200390999999,128.71773340000004,129.7200390999999,128.71773340000004,129.7200390999999,128.71773340000004,129.7200390999999,down,0,0.2150453000001562,128.71773340000004,None,128.71773340000004,None,128.71773340000004,129.21949700000005,128.71773340000004,129.21949700000005,128.71773340000004,129.21949700000005,128.71773340000004,129.21949700000005,128.71773340000004,None,,,,,,,,,,,,,,,,,,,,,,,,,,,,,,,,,,,,,,,,,,12009,001,2024_Jun_15_1756,nback,2021.2.3,59.83541670280967,
2-back,instructions\back-2.png,conditions\2back-p.xlsx,instructions\2-BACK.png,"(25, 15)",practice,2,2,stim\gray.png,stim\yellow.png,stim\gray.png,stim\gray.png,down,0,0,0,0,0,2,2,2,0,11,11,11,,,,,,,,,,,,,,,,,,,,,,,,,,,130.219916,131.22280579999983,130.219916,131.22280579999983,130.219916,131.22280579999983,130.219916,131.22280579999983,up,0,0.8489170000000286,130.219916,None,130.219916,None,130.219916,130.7218863999999,130.219916,130.7218863999999,130.219916,130.7218863999999,130.219916,130.7218863999999,130.219916,None,,,,,,,,,,,,,,,,,,,,,,,,,,,,,,,,,,,,,,,,,,12009,001,2024_Jun_15_1756,nback,2021.2.3,59.83541670280967,
2-back,instructions\back-2.png,conditions\2back-p.xlsx,instructions\2-BACK.png,"(25, 15)",practice,2,4,stim\gray.png,stim\gray.png,stim\gray.png,stim\yellow.png,up,0,0,0,0,0,2,2,2,0,12,12,12,,,,,,,,,,,,,,,,,,,,,,,,,,,131.72201159999986,132.72393749999992,131.72201159999986,132.72393749999992,131.72201159999986,132.72393749999992,131.72201159999986,132.72393749999992,up,1,0.9783571999998912,131.72201159999986,None,131.72201159999986,None,131.72201159999986,132.2239328999999,131.72201159999986,132.2239328999999,131.72201159999986,132.2239328999999,131.72201159999986,132.2239328999999,131.72201159999986,None,,,,,,,,,,,,,,,,,,,,,,,,,,,,,,,,,,,,,,,,,,12009,001,2024_Jun_15_1756,nback,2021.2.3,59.83541670280967,
2-back,instructions\back-2.png,conditions\2back-p.xlsx,instructions\2-BACK.png,"(25, 15)",practice,2,3,stim\gray.png,stim\gray.png,stim\yellow.png,stim\gray.png,left,0,0,0,0,0,2,2,2,0,13,13,13,,,,,,,,,,,,,,,,,,,,,,,,,,,133.2076654,134.2102127999999,133.2076654,134.2102127999999,133.2076654,134.2102127999999,133.2076654,134.2102127999999,down,0,0.756905000000188,133.2076654,None,133.2076654,None,133.2076654,133.70971059999988,133.2076654,133.70971059999988,133.2076654,133.70971059999988,133.2076654,133.70971059999988,133.2076654,None,,,,,,,,,,,,,,,,,,,,,,,,,,,,,,,,,,,,,,,,,,12009,001,2024_Jun_15_1756,nback,2021.2.3,59.83541670280967,
2-back,instructions\back-2.png,conditions\2back-p.xlsx,instructions\2-BACK.png,"(25, 15)",practice,2,1,stim\yellow.png,stim\gray.png,stim\gray.png,stim\gray.png,down,0,0,0,0,0,2,2,2,0,14,14,14,,,,,,,,,,,,,,,,,,,,,,,,,,,134.71054909999998,135.71283530000005,134.71054909999998,135.71283530000005,134.71054909999998,135.71283530000005,134.71054909999998,135.71283530000005,None,0,,134.71054909999998,None,134.71054909999998,None,134.71054909999998,135.21212579999997,134.71054909999998,135.21212579999997,134.71054909999998,135.21212579999997,134.71054909999998,135.21212579999997,134.71054909999998,None,,,,,,,,,,,,,,,,,,,,,,,,,,,,,,,,,,,,,,,,,,12009,001,2024_Jun_15_1756,nback,2021.2.3,59.83541670280967,
2-back,instructions\back-2.png,conditions\2back-p.xlsx,instructions\2-BACK.png,"(25, 15)",practice,2,2,stim\gray.png,stim\yellow.png,stim\gray.png,stim\gray.png,right,0,0,0,0,0,2,2,2,0,15,15,15,,,,,,,,,,,,,,,,,,,,,,,,,,,136.2127384999999,137.21486749999985,136.2127384999999,137.21486749999985,136.2127384999999,137.21486749999985,136.2127384999999,137.21486749999985,left,0,1.0159724000000097,136.2127384999999,None,136.2127384999999,None,136.2127384999999,136.71442039999988,136.2127384999999,136.71442039999988,136.2127384999999,136.71442039999988,136.2127384999999,136.71442039999988,136.2127384999999,None,,,,,,,,,,,,,,,,,,,,,,,,,,,,,,,,,,,,,,,,,,12009,001,2024_Jun_15_1756,nback,2021.2.3,59.83541670280967,
2-back,instructions\back-2.png,conditions\2back-p.xlsx,instructions\2-BACK.png,"(25, 15)",practice,2,3,stim\gray.png,stim\gray.png,stim\yellow.png,stim\gray.png,up,0,0,0,0,0,2,2,2,0,16,16,16,,,,,,,,,,,,,,,,,,,,,,,,,,,137.71460460000003,138.71613969999999,137.71460460000003,138.71613969999999,137.71460460000003,138.71613969999999,137.71460460000003,138.71613969999999,up,1,1.266426200000069,137.71460460000003,None,137.71460460000003,None,137.71460460000003,138.21612170000003,137.71460460000003,138.21612170000003,137.71460460000003,138.21612170000003,137.71460460000003,138.21612170000003,137.71460460000003,None,,,,,,,,,,,,,,,,,,,,,,,,,,,,,,,,,,,,,,,,,,12009,001,2024_Jun_15_1756,nback,2021.2.3,59.83541670280967,
2-back,instructions\back-2.png,conditions\2back-p.xlsx,instructions\2-BACK.png,"(25, 15)",practice,2,1,stim\yellow.png,stim\gray.png,stim\gray.png,stim\gray.png,left,0,0,0,0,0,2,2,2,0,17,17,17,,,,,,,,,,,,,,,,,,,,,,,,,,,139.21669739999993,140.21978489999992,139.21669739999993,140.21978489999992,139.21669739999993,140.21978489999992,139.21669739999993,140.21978489999992,None,0,,139.21669739999993,None,139.21669739999993,None,139.21669739999993,139.71873929999992,139.21669739999993,139.71873929999992,139.21669739999993,139.71873929999992,139.21669739999993,139.71873929999992,139.21669739999993,None,,,,,,,,,,,,,,,,,,,,,,,,,,,,,,,,,,,,,,,,,,12009,001,2024_Jun_15_1756,nback,2021.2.3,59.83541670280967,
2-back,instructions\back-2.png,conditions\2back-p.xlsx,instructions\2-BACK.png,"(25, 15)",practice,2,4,stim\gray.png,stim\gray.png,stim\gray.png,stim\yellow.png,right,0,0,0,0,0,2,2,2,0,18,18,18,,,,,,,,,,,,,,,,,,,,,,,,,,,140.71895399999994,141.72134970000002,140.71895399999994,141.72134970000002,140.71895399999994,141.72134970000002,140.71895399999994,141.72134970000002,right,1,0.2137872000000698,140.71895399999994,None,140.71895399999994,None,140.71895399999994,141.22097499999995,140.71895399999994,141.22097499999995,140.71895399999994,141.22097499999995,140.71895399999994,141.22097499999995,140.71895399999994,None,,,,,,,,,,,,,,,,,,,,,,,,,,,,,,,,,,,,,,,,,,12009,001,2024_Jun_15_1756,nback,2021.2.3,59.83541670280967,
2-back,instructions\back-2.png,conditions\2back-p.xlsx,instructions\2-BACK.png,"(25, 15)",practice,2,2,stim\gray.png,stim\yellow.png,stim\gray.png,stim\gray.png,up,0,0,0,0,0,2,2,2,0,19,19,19,,,,,,,,,,,,,,,,,,,,,,,,,,,142.22118550000005,143.22420079999983,142.22118550000005,143.22420079999983,142.22118550000005,143.22420079999983,142.22118550000005,143.22420079999983,left,0,1.391641400000026,142.22118550000005,None,142.22118550000005,None,142.22118550000005,142.7234822999999,142.22118550000005,142.7234822999999,142.22118550000005,142.7234822999999,142.22118550000005,142.7234822999999,142.22118550000005,None,,,,,,,,,,,,,,,,,,,,,,,,,,,,,,,,,,,,,,,,,,12009,001,2024_Jun_15_1756,nback,2021.2.3,59.83541670280967,
2-back,instructions\back-2.png,conditions\2back-p.xlsx,instructions\2-BACK.png,"(25, 15)",,,,,,,,,0,0,0,0,0,2,2,2,,,,,,,,,,,,,,,,,,,,,,,,,,,,,,,,,,,,,,,,,,,,,,,,,,,,,,,,,,,,,,,,,,,,,,,,,,,,,,,,,,,,,,,,,,,,,,,,,12009,001,2024_Jun_15_1756,nback,2021.2.3,59.83541670280967,
,,,,,,,,,,,,,0,0,0,0,,,,,,,,,,,,,,,,,,,,,,,,,,,,,,,,,,,,,,,,,,,,,,,,,,,,,,,,,,,,143.72475340000005,None,space,41.40925109999989,143.72475340000005,None,,,,,,,,,,,,,,,,,,,,,,,,,,,,,,,,,,,,12009,001,2024_Jun_15_1756,nback,2021.2.3,59.83541670280967,
,,,,,,,,,,,,,,,,,,,,,,,,,,,,,,,,,,,,,,,,,,,,,,,,,,,,,,,,,,,,,,,,,,,,,,,,,,,,,,,,,,185.15283869999985,None,space,1.7775450999999975,185.15283869999985,None,,,,,,,,,,,,,,,,,,,,,,,,,,,,,,12009,001,2024_Jun_15_1756,nback,2021.2.3,59.83541670280967,
1-back,instructions\back-1.png,conditions\12back-e.xlsx,,,experiment,1,2,stim\gray.png,stim\yellow.png,stim\gray.png,stim\gray.png,None,,,,,,,,,,,,,0,0,0,6,0,0,0,0,,,,,,,,,,,,,,,187.32301129999996,191.83074899999997,191.74734790000002,None,,,,,,,,,,,,,,,,,,,,,,,,,,,,,,,,,,,,,,None,1,191.9796738,None,191.9796738,None,191.9796738,192.98192519999998,191.9796738,192.98192519999998,191.9796738,192.98192519999998,191.9796738,192.98192519999998,191.9796738,192.4817854999999,191.9796738,192.4817854999999,191.9796738,192.4817854999999,191.9796738,192.4817854999999,191.9796738,None,,,,,,12009,001,2024_Jun_15_1756,nback,2021.2.3,59.83541670280967,
1-back,instructions\back-1.png,conditions\12back-e.xlsx,,,experiment,1,3,stim\gray.png,stim\gray.png,stim\yellow.png,stim\gray.png,left,,,,,,,,,,,,,0,0,0,6,0,1,1,1,,,,,,,,,,,,,,,,,,,,,,,,,,,,,,,,,,,,,,,,,,,,,,,,,,,,,,,,left,1,193.46535240000003,None,193.46535240000003,None,193.46535240000003,194.46806279999987,193.46535240000003,194.46806279999987,193.46535240000003,194.46806279999987,193.46535240000003,194.46806279999987,193.46535240000003,193.96755480000002,193.46535240000003,193.96755480000002,193.46535240000003,193.96755480000002,193.46535240000003,193.96755480000002,193.46535240000003,None,0.43677679999996144,,,,,12009,001,2024_Jun_15_1756,nback,2021.2.3,59.83541670280967,
1-back,instructions\back-1.png,conditions\12back-e.xlsx,,,experiment,1,4,stim\gray.png,stim\gray.png,stim\gray.png,stim\yellow.png,right,,,,,,,,,,,,,0,0,0,6,0,2,2,2,,,,,,,,,,,,,,,,,,,,,,,,,,,,,,,,,,,,,,,,,,,,,,,,,,,,,,,,right,1,194.98584259999984,None,194.98584259999984,None,194.98584259999984,195.98648319999984,194.98584259999984,195.98648319999984,194.98584259999984,195.98648319999984,194.98584259999984,195.98648319999984,194.98584259999984,195.48554339999987,194.98584259999984,195.48554339999987,194.98584259999984,195.48554339999987,194.98584259999984,195.48554339999987,194.98584259999984,None,0.19673299999999472,,,,,12009,001,2024_Jun_15_1756,nback,2021.2.3,59.83541670280967,
1-back,instructions\back-1.png,conditions\12back-e.xlsx,,,experiment,1,3,stim\gray.png,stim\gray.png,stim\yellow.png,stim\gray.png,down,,,,,,,,,,,,,0,0,0,6,0,3,3,3,,,,,,,,,,,,,,,,,,,,,,,,,,,,,,,,,,,,,,,,,,,,,,,,,,,,,,,,down,1,196.46965929999988,None,196.46965929999988,None,196.46965929999988,197.4715119,196.46965929999988,197.4715119,196.46965929999988,197.4715119,196.46965929999988,197.4715119,196.46965929999988,196.9711585,196.46965929999988,196.9711585,196.46965929999988,196.9711585,196.46965929999988,196.9711585,196.46965929999988,None,0.18532249999998385,,,,,12009,001,2024_Jun_15_1756,nback,2021.2.3,59.83541670280967,
1-back,instructions\back-1.png,conditions\12back-e.xlsx,,,experiment,1,1,stim\yellow.png,stim\gray.png,stim\gray.png,stim\gray.png,right,,,,,,,,,,,,,0,0,0,6,0,4,4,4,,,,,,,,,,,,,,,,,,,,,,,,,,,,,,,,,,,,,,,,,,,,,,,,,,,,,,,,right,1,197.99037899999985,None,197.99037899999985,None,197.99037899999985,198.99052849999998,197.99037899999985,198.99052849999998,197.99037899999985,198.99052849999998,197.99037899999985,198.99052849999998,197.99037899999985,198.48978629999988,197.99037899999985,198.48978629999988,197.99037899999985,198.48978629999988,197.99037899999985,198.48978629999988,197.99037899999985,None,0.23225600000000668,,,,,12009,001,2024_Jun_15_1756,nback,2021.2.3,59.83541670280967,
1-back,instructions\back-1.png,conditions\12back-e.xlsx,,,experiment,1,2,stim\gray.png,stim\yellow.png,stim\gray.png,stim\gray.png,up,,,,,,,,,,,,,0,0,0,6,0,5,5,5,,,,,,,,,,,,,,,,,,,,,,,,,,,,,,,,,,,,,,,,,,,,,,,,,,,,,,,,up,1,199.47432159999994,None,199.47432159999994,None,199.47432159999994,200.47659069999986,199.47432159999994,200.47659069999986,199.47432159999994,200.47659069999986,199.47432159999994,200.47659069999986,199.47432159999994,199.97599079999986,199.47432159999994,199.97599079999986,199.47432159999994,199.97599079999986,199.47432159999994,199.97599079999986,199.47432159999994,None,0.2439313999998376,,,,,12009,001,2024_Jun_15_1756,nback,2021.2.3,59.83541670280967,
1-back,instructions\back-1.png,conditions\12back-e.xlsx,,,experiment,1,2,stim\gray.png,stim\yellow.png,stim\gray.png,stim\gray.png,left,,,,,,,,,,,,,0,0,0,6,0,6,6,6,,,,,,,,,,,,,,,,,,,,,,,,,,,,,,,,,,,,,,,,,,,,,,,,,,,,,,,,left,1,200.9598171,None,200.9598171,None,200.9598171,201.96226860000002,200.9598171,201.96226860000002,200.9598171,201.96226860000002,200.9598171,201.96226860000002,200.9598171,201.46201849999989,200.9598171,201.46201849999989,200.9598171,201.46201849999989,200.9598171,201.46201849999989,200.9598171,None,0.07076649999999063,,,,,12009,001,2024_Jun_15_1756,nback,2021.2.3,59.83541670280967,
1-back,instructions\back-1.png,conditions\12back-e.xlsx,,,experiment,1,4,stim\gray.png,stim\gray.png,stim\gray.png,stim\yellow.png,left,,,,,,,,,,,,,0,0,0,6,0,7,7,7,,,,,,,,,,,,,,,,,,,,,,,,,,,,,,,,,,,,,,,,,,,,,,,,,,,,,,,,left,1,202.46206299999994,None,202.46206299999994,None,202.46206299999994,203.46482930000002,202.46206299999994,203.46482930000002,202.46206299999994,203.46482930000002,202.46206299999994,203.46482930000002,202.46206299999994,202.96427789999984,202.46206299999994,202.96427789999984,202.46206299999994,202.96427789999984,202.46206299999994,202.96427789999984,202.46206299999994,None,0.17693869999993694,,,,,12009,001,2024_Jun_15_1756,nback,2021.2.3,59.83541670280967,
1-back,instructions\back-1.png,conditions\12back-e.xlsx,,,experiment,1,1,stim\yellow.png,stim\gray.png,stim\gray.png,stim\gray.png,down,,,,,,,,,,,,,0,0,0,6,0,8,8,8,,,,,,,,,,,,,,,,,,,,,,,,,,,,,,,,,,,,,,,,,,,,,,,,,,,,,,,,down,1,203.96510719999992,None,203.96510719999992,None,203.96510719999992,204.96713649999992,203.96510719999992,204.96713649999992,203.96510719999992,204.96713649999992,203.96510719999992,204.96713649999992,203.96510719999992,204.46638699999994,203.96510719999992,204.46638699999994,203.96510719999992,204.46638699999994,203.96510719999992,204.46638699999994,203.96510719999992,None,0.07364729999994779,,,,,12009,001,2024_Jun_15_1756,nback,2021.2.3,59.83541670280967,
1-back,instructions\back-1.png,conditions\12back-e.xlsx,,,experiment,1,3,stim\gray.png,stim\gray.png,stim\yellow.png,stim\gray.png,up,,,,,,,,,,,,,0,0,0,6,0,9,9,9,,,,,,,,,,,,,,,,,,,,,,,,,,,,,,,,,,,,,,,,,,,,,,,,,,,,,,,,up,1,205.4690473999999,None,205.4690473999999,None,205.4690473999999,206.46921580000003,205.4690473999999,206.46921580000003,205.4690473999999,206.46921580000003,205.4690473999999,206.46921580000003,205.4690473999999,205.96800689999986,205.4690473999999,205.96800689999986,205.4690473999999,205.96800689999986,205.4690473999999,205.96800689999986,205.4690473999999,None,0.20199939999997696,,,,,12009,001,2024_Jun_15_1756,nback,2021.2.3,59.83541670280967,
1-back,instructions\back-1.png,conditions\12back-e.xlsx,,,experiment,1,4,stim\gray.png,stim\gray.png,stim\gray.png,stim\yellow.png,right,,,,,,,,,,,,,0,0,0,6,0,10,10,10,,,,,,,,,,,,,,,,,,,,,,,,,,,,,,,,,,,,,,,,,,,,,,,,,,,,,,,,right,1,206.9690467999999,None,206.9690467999999,None,206.9690467999999,207.97163509999996,206.9690467999999,207.97163509999996,206.9690467999999,207.97163509999996,206.9690467999999,207.97163509999996,206.9690467999999,207.47069169999986,206.9690467999999,207.47069169999986,206.9690467999999,207.47069169999986,206.9690467999999,207.47069169999986,206.9690467999999,None,0.09342480000009346,,,,,12009,001,2024_Jun_15_1756,nback,2021.2.3,59.83541670280967,
1-back,instructions\back-1.png,conditions\12back-e.xlsx,,,experiment,1,3,stim\gray.png,stim\gray.png,stim\yellow.png,stim\gray.png,down,,,,,,,,,,,,,0,0,0,6,0,11,11,11,,,,,,,,,,,,,,,,,,,,,,,,,,,,,,,,,,,,,,,,,,,,,,,,,,,,,,,,down,1,208.47120649999988,None,208.47120649999988,None,208.47120649999988,209.47404919999985,208.47120649999988,209.47404919999985,208.47120649999988,209.47404919999985,208.47120649999988,209.47404919999985,208.47120649999988,208.97319500000003,208.47120649999988,208.97319500000003,208.47120649999988,208.97319500000003,208.47120649999988,208.97319500000003,208.47120649999988,None,0.039393399999880785,,,,,12009,001,2024_Jun_15_1756,nback,2021.2.3,59.83541670280967,
1-back,instructions\back-1.png,conditions\12back-e.xlsx,,,experiment,1,1,stim\yellow.png,stim\gray.png,stim\gray.png,stim\gray.png,left,,,,,,,,,,,,,0,0,0,6,0,12,12,12,,,,,,,,,,,,,,,,,,,,,,,,,,,,,,,,,,,,,,,,,,,,,,,,,,,,,,,,right,0,209.97334,None,209.97334,None,209.97334,210.97533329999987,209.97334,210.97533329999987,209.97334,210.97533329999987,209.97334,210.97533329999987,209.97334,210.47572879999984,209.97334,210.47572879999984,209.97334,210.47572879999984,209.97334,210.47572879999984,209.97334,None,0.1292799999998806,,,,,12009,001,2024_Jun_15_1756,nback,2021.2.3,59.83541670280967,
1-back,instructions\back-1.png,conditions\12back-e.xlsx,,,experiment,1,4,stim\gray.png,stim\gray.png,stim\gray.png,stim\yellow.png,up,,,,,,,,,,,,,0,0,0,6,0,13,13,13,,,,,,,,,,,,,,,,,,,,,,,,,,,,,,,,,,,,,,,,,,,,,,,,,,,,,,,,up,1,211.45978409999998,None,211.45978409999998,None,211.45978409999998,212.46156799999994,211.45978409999998,212.46156799999994,211.45978409999998,212.46156799999994,211.45978409999998,212.46156799999994,211.45978409999998,211.96124959999997,211.45978409999998,211.96124959999997,211.45978409999998,211.96124959999997,211.45978409999998,211.96124959999997,211.45978409999998,None,0.06778870000016468,,,,,12009,001,2024_Jun_15_1756,nback,2021.2.3,59.83541670280967,
1-back,instructions\back-1.png,conditions\12back-e.xlsx,,,experiment,1,1,stim\yellow.png,stim\gray.png,stim\gray.png,stim\gray.png,down,,,,,,,,,,,,,0,0,0,6,0,14,14,14,,,,,,,,,,,,,,,,,,,,,,,,,,,,,,,,,,,,,,,,,,,,,,,,,,,,,,,,up,0,212.96224970000003,None,212.96224970000003,None,212.96224970000003,213.96418759999983,212.96224970000003,213.96418759999983,212.96224970000003,213.96418759999983,212.96224970000003,213.96418759999983,212.96224970000003,213.46285119999993,212.96224970000003,213.46285119999993,212.96224970000003,213.46285119999993,212.96224970000003,213.46285119999993,212.96224970000003,None,1.3963490999999522,,,,,12009,001,2024_Jun_15_1756,nback,2021.2.3,59.83541670280967,
1-back,instructions\back-1.png,conditions\12back-e.xlsx,,,experiment,1,2,stim\gray.png,stim\yellow.png,stim\gray.png,stim\gray.png,up,,,,,,,,,,,,,0,0,0,6,0,15,15,15,,,,,,,,,,,,,,,,,,,,,,,,,,,,,,,,,,,,,,,,,,,,,,,,,,,,,,,,left,0,214.4636347999999,None,214.4636347999999,None,214.4636347999999,215.46587810000005,214.4636347999999,215.46587810000005,214.4636347999999,215.46587810000005,214.4636347999999,215.46587810000005,214.4636347999999,214.9655576,214.4636347999999,214.9655576,214.4636347999999,214.9655576,214.4636347999999,214.9655576,214.4636347999999,None,1.3270844999999554,,,,,12009,001,2024_Jun_15_1756,nback,2021.2.3,59.83541670280967,
1-back,instructions\back-1.png,conditions\12back-e.xlsx,,,experiment,1,1,stim\yellow.png,stim\gray.png,stim\gray.png,stim\gray.png,left,,,,,,,,,,,,,0,0,0,6,0,16,16,16,,,,,,,,,,,,,,,,,,,,,,,,,,,,,,,,,,,,,,,,,,,,,,,,,,,,,,,,None,0,215.96584749999988,None,215.96584749999988,None,215.96584749999988,216.96861259999991,215.96584749999988,216.96861259999991,215.96584749999988,216.96861259999991,215.96584749999988,216.96861259999991,215.96584749999988,216.4677572999999,215.96584749999988,216.4677572999999,215.96584749999988,216.4677572999999,215.96584749999988,216.4677572999999,215.96584749999988,None,,,,,,12009,001,2024_Jun_15_1756,nback,2021.2.3,59.83541670280967,
1-back,instructions\back-1.png,conditions\12back-e.xlsx,,,experiment,1,3,stim\gray.png,stim\gray.png,stim\yellow.png,stim\gray.png,up,,,,,,,,,,,,,0,0,0,6,0,17,17,17,,,,,,,,,,,,,,,,,,,,,,,,,,,,,,,,,,,,,,,,,,,,,,,,,,,,,,,,up,1,217.48613879999994,None,217.48613879999994,None,217.48613879999994,218.48740049999992,217.48613879999994,218.48740049999992,217.48613879999994,218.48740049999992,217.48613879999994,218.48740049999992,217.48613879999994,217.98619099999996,217.48613879999994,217.98619099999996,217.48613879999994,217.98619099999996,217.48613879999994,217.98619099999996,217.48613879999994,None,0.4733763000001545,,,,,12009,001,2024_Jun_15_1756,nback,2021.2.3,59.83541670280967,
1-back,instructions\back-1.png,conditions\12back-e.xlsx,,,experiment,1,2,stim\gray.png,stim\yellow.png,stim\gray.png,stim\gray.png,right,,,,,,,,,,,,,0,0,0,6,0,18,18,18,,,,,,,,,,,,,,,,,,,,,,,,,,,,,,,,,,,,,,,,,,,,,,,,,,,,,,,,right,1,218.9703184,None,218.9703184,None,218.9703184,219.97325509999996,218.9703184,219.97325509999996,218.9703184,219.97325509999996,218.9703184,219.97325509999996,218.9703184,219.4723598999999,218.9703184,219.4723598999999,218.9703184,219.4723598999999,218.9703184,219.4723598999999,218.9703184,None,0.2854675999999472,,,,,12009,001,2024_Jun_15_1756,nback,2021.2.3,59.83541670280967,
1-back,instructions\back-1.png,conditions\12back-e.xlsx,,,experiment,1,4,stim\gray.png,stim\gray.png,stim\gray.png,stim\yellow.png,left,,,,,,,,,,,,,0,0,0,6,0,19,19,19,,,,,,,,,,,,,,,,,,,,,,,,,,,,,,,,,,,,,,,,,,,,,,,,,,,,,,,,left,1,220.49036109999997,None,220.49036109999997,None,220.49036109999997,221.4909760999999,220.49036109999997,221.4909760999999,220.49036109999997,221.4909760999999,220.49036109999997,221.4909760999999,220.49036109999997,220.99152230000004,220.49036109999997,220.99152230000004,220.49036109999997,220.99152230000004,220.49036109999997,220.99152230000004,220.49036109999997,None,0.509622199999967,,,,,12009,001,2024_Jun_15_1756,nback,2021.2.3,59.83541670280967,
1-back,instructions\back-1.png,conditions\12back-e.xlsx,,,,,,,,,,,,,,,,,,,,,,,0,0,0,6,,,,,,,,,,,,,,,,,,,,,,,,,,,,,,,,,,,,,,,,,,,,,,,,,,,,,,,,,,,,,,,,,,,,,,,,,,,,,,,,,,,,,221.95893219999994,None,,,12009,001,2024_Jun_15_1756,nback,2021.2.3,59.83541670280967,
2-back,instructions\back-2.png,conditions\21back-e.xlsx,,,experiment,2,3,stim\gray.png,stim\gray.png,stim\yellow.png,stim\gray.png,None,,,,,,,,,,,,,0,1,1,3,0,0,0,0,,,,,,,,,,,,,,,223.27668689999996,227.78513410000005,227.68497679999996,None,,,,,,,,,,,,,,,,,,,,,,,,,,,,,,,,,,,,,,None,1,227.98510269999997,None,227.98510269999997,None,227.98510269999997,228.9867460999999,227.98510269999997,228.9867460999999,227.98510269999997,228.9867460999999,227.98510269999997,228.9867460999999,227.98510269999997,228.48565269999995,227.98510269999997,228.48565269999995,227.98510269999997,228.48565269999995,227.98510269999997,228.48565269999995,227.98510269999997,None,,,,,,12009,001,2024_Jun_15_1756,nback,2021.2.3,59.83541670280967,
2-back,instructions\back-2.png,conditions\21back-e.xlsx,,,experiment,2,4,stim\gray.png,stim\gray.png,stim\gray.png,stim\yellow.png,None,,,,,,,,,,,,,0,1,1,3,0,1,1,1,,,,,,,,,,,,,,,,,,,,,,,,,,,,,,,,,,,,,,,,,,,,,,,,,,,,,,,,None,1,229.48797319999994,None,229.48797319999994,None,229.48797319999994,230.48892449999994,229.48797319999994,230.48892449999994,229.48797319999994,230.48892449999994,229.48797319999994,230.48892449999994,229.48797319999994,229.98836970000002,229.48797319999994,229.98836970000002,229.48797319999994,229.98836970000002,229.48797319999994,229.98836970000002,229.48797319999994,None,,,,,,12009,001,2024_Jun_15_1756,nback,2021.2.3,59.83541670280967,
2-back,instructions\back-2.png,conditions\21back-e.xlsx,,,experiment,2,1,stim\yellow.png,stim\gray.png,stim\gray.png,stim\gray.png,right,,,,,,,,,,,,,0,1,1,3,0,2,2,2,,,,,,,,,,,,,,,,,,,,,,,,,,,,,,,,,,,,,,,,,,,,,,,,,,,,,,,,right,1,230.97172539999997,None,230.97172539999997,None,230.97172539999997,231.97462769999993,230.97172539999997,231.97462769999993,230.97172539999997,231.97462769999993,230.97172539999997,231.97462769999993,230.97172539999997,231.47358480000003,230.97172539999997,231.47358480000003,230.97172539999997,231.47358480000003,230.97172539999997,231.47358480000003,230.97172539999997,None,0.21209810000004836,,,,,12009,001,2024_Jun_15_1756,nback,2021.2.3,59.83541670280967,
2-back,instructions\back-2.png,conditions\21back-e.xlsx,,,experiment,2,2,stim\gray.png,stim\yellow.png,stim\gray.png,stim\gray.png,down,,,,,,,,,,,,,0,1,1,3,0,3,3,3,,,,,,,,,,,,,,,,,,,,,,,,,,,,,,,,,,,,,,,,,,,,,,,,,,,,,,,,down,1,232.49254799999994,None,232.49254799999994,None,232.49254799999994,233.49352550000003,232.49254799999994,233.49352550000003,232.49254799999994,233.49352550000003,232.49254799999994,233.49352550000003,232.49254799999994,232.9919072,232.49254799999994,232.9919072,232.49254799999994,232.9919072,232.49254799999994,232.9919072,232.49254799999994,None,0.09959609999987151,,,,,12009,001,2024_Jun_15_1756,nback,2021.2.3,59.83541670280967,
2-back,instructions\back-2.png,conditions\21back-e.xlsx,,,experiment,2,1,stim\yellow.png,stim\gray.png,stim\gray.png,stim\gray.png,up,,,,,,,,,,,,,0,1,1,3,0,4,4,4,,,,,,,,,,,,,,,,,,,,,,,,,,,,,,,,,,,,,,,,,,,,,,,,,,,,,,,,left,0,233.9780682999999,None,233.9780682999999,None,233.9780682999999,234.97906599999988,233.9780682999999,234.97906599999988,233.9780682999999,234.97906599999988,233.9780682999999,234.97906599999988,233.9780682999999,234.47827759999996,233.9780682999999,234.47827759999996,233.9780682999999,234.47827759999996,233.9780682999999,234.47827759999996,233.9780682999999,None,1.285689899999852,,,,,12009,001,2024_Jun_15_1756,nback,2021.2.3,59.83541670280967,
2-back,instructions\back-2.png,conditions\21back-e.xlsx,,,experiment,2,2,stim\gray.png,stim\yellow.png,stim\gray.png,stim\gray.png,left,,,,,,,,,,,,,0,1,1,3,0,5,5,5,,,,,,,,,,,,,,,,,,,,,,,,,,,,,,,,,,,,,,,,,,,,,,,,,,,,,,,,up,0,235.4619052999999,None,235.4619052999999,None,235.4619052999999,236.46447089999992,235.4619052999999,236.46447089999992,235.4619052999999,236.46447089999992,235.4619052999999,236.46447089999992,235.4619052999999,235.96389679999993,235.4619052999999,235.96389679999993,235.4619052999999,235.96389679999993,235.4619052999999,235.96389679999993,235.4619052999999,None,1.3453391000000465,,,,,12009,001,2024_Jun_15_1756,nback,2021.2.3,59.83541670280967,
2-back,instructions\back-2.png,conditions\21back-e.xlsx,,,experiment,2,3,stim\gray.png,stim\gray.png,stim\yellow.png,stim\gray.png,up,,,,,,,,,,,,,0,1,1,3,0,6,6,6,,,,,,,,,,,,,,,,,,,,,,,,,,,,,,,,,,,,,,,,,,,,,,,,,,,,,,,,None,0,236.96467359999997,None,236.96467359999997,None,236.96467359999997,237.9668982999999,236.96467359999997,237.9668982999999,236.96467359999997,237.9668982999999,236.96467359999997,237.9668982999999,236.96467359999997,237.46627569999987,236.96467359999997,237.46627569999987,236.96467359999997,237.46627569999987,236.96467359999997,237.46627569999987,236.96467359999997,None,,,,,,12009,001,2024_Jun_15_1756,nback,2021.2.3,59.83541670280967,
2-back,instructions\back-2.png,conditions\21back-e.xlsx,,,experiment,2,4,stim\gray.png,stim\gray.png,stim\gray.png,stim\yellow.png,left,,,,,,,,,,,,,0,1,1,3,0,7,7,7,,,,,,,,,,,,,,,,,,,,,,,,,,,,,,,,,,,,,,,,,,,,,,,,,,,,,,,,left,1,238.46662449999985,None,238.46662449999985,None,238.46662449999985,239.46887809999998,238.46662449999985,239.46887809999998,238.46662449999985,239.46887809999998,238.46662449999985,239.46887809999998,238.46662449999985,238.96875679999994,238.46662449999985,238.96875679999994,238.46662449999985,238.96875679999994,238.46662449999985,238.96875679999994,238.46662449999985,None,0.4287446999999247,,,,,12009,001,2024_Jun_15_1756,nback,2021.2.3,59.83541670280967,
2-back,instructions\back-2.png,conditions\21back-e.xlsx,,,experiment,2,3,stim\gray.png,stim\gray.png,stim\yellow.png,stim\gray.png,right,,,,,,,,,,,,,0,1,1,3,0,8,8,8,,,,,,,,,,,,,,,,,,,,,,,,,,,,,,,,,,,,,,,,,,,,,,,,,,,,,,,,down,0,239.9687632,None,239.9687632,None,239.9687632,240.97169480000002,239.9687632,240.97169480000002,239.9687632,240.97169480000002,239.9687632,240.97169480000002,239.9687632,240.47079009999993,239.9687632,240.47079009999993,239.9687632,240.47079009999993,239.9687632,240.47079009999993,239.9687632,None,1.3989237999999204,,,,,12009,001,2024_Jun_15_1756,nback,2021.2.3,59.83541670280967,
2-back,instructions\back-2.png,conditions\21back-e.xlsx,,,experiment,2,1,stim\yellow.png,stim\gray.png,stim\gray.png,stim\gray.png,down,,,,,,,,,,,,,0,1,1,3,0,9,9,9,,,,,,,,,,,,,,,,,,,,,,,,,,,,,,,,,,,,,,,,,,,,,,,,,,,,,,,,right,0,241.47092239999984,None,241.47092239999984,None,241.47092239999984,242.47330169999987,241.47092239999984,242.47330169999987,241.47092239999984,242.47330169999987,241.47092239999984,242.47330169999987,241.47092239999984,241.97311809999997,241.47092239999984,241.97311809999997,241.47092239999984,241.97311809999997,241.47092239999984,241.97311809999997,241.47092239999984,None,1.3125394999999571,,,,,12009,001,2024_Jun_15_1756,nback,2021.2.3,59.83541670280967,
2-back,instructions\back-2.png,conditions\21back-e.xlsx,,,experiment,2,4,stim\gray.png,stim\gray.png,stim\gray.png,stim\yellow.png,right,,,,,,,,,,,,,0,1,1,3,0,10,10,10,,,,,,,,,,,,,,,,,,,,,,,,,,,,,,,,,,,,,,,,,,,,,,,,,,,,,,,,None,0,242.97418319999997,None,242.97418319999997,None,242.97418319999997,243.97542069999986,242.97418319999997,243.97542069999986,242.97418319999997,243.97542069999986,242.97418319999997,243.97542069999986,242.97418319999997,243.47512289999986,242.97418319999997,243.47512289999986,242.97418319999997,243.47512289999986,242.97418319999997,243.47512289999986,242.97418319999997,None,,,,,,12009,001,2024_Jun_15_1756,nback,2021.2.3,59.83541670280967,
2-back,instructions\back-2.png,conditions\21back-e.xlsx,,,experiment,2,2,stim\gray.png,stim\yellow.png,stim\gray.png,stim\gray.png,up,,,,,,,,,,,,,0,1,1,3,0,11,11,11,,,,,,,,,,,,,,,,,,,,,,,,,,,,,,,,,,,,,,,,,,,,,,,,,,,,,,,,up,1,244.4587454,None,244.4587454,None,244.4587454,245.4609051,244.4587454,245.4609051,244.4587454,245.4609051,244.4587454,245.4609051,244.4587454,244.9606306999999,244.4587454,244.9606306999999,244.4587454,244.9606306999999,244.4587454,244.9606306999999,244.4587454,None,0.5567700999999943,,,,,12009,001,2024_Jun_15_1756,nback,2021.2.3,59.83541670280967,
2-back,instructions\back-2.png,conditions\21back-e.xlsx,,,experiment,2,4,stim\gray.png,stim\gray.png,stim\gray.png,stim\yellow.png,down,,,,,,,,,,,,,0,1,1,3,0,12,12,12,,,,,,,,,,,,,,,,,,,,,,,,,,,,,,,,,,,,,,,,,,,,,,,,,,,,,,,,down,1,245.96100389999992,None,245.96100389999992,None,245.96100389999992,246.96388060000004,245.96100389999992,246.96388060000004,245.96100389999992,246.96388060000004,245.96100389999992,246.96388060000004,245.96100389999992,246.4632019999999,245.96100389999992,246.4632019999999,245.96100389999992,246.4632019999999,245.96100389999992,246.4632019999999,245.96100389999992,None,0.23872940000001108,,,,,12009,001,2024_Jun_15_1756,nback,2021.2.3,59.83541670280967,
2-back,instructions\back-2.png,conditions\21back-e.xlsx,,,experiment,2,3,stim\gray.png,stim\gray.png,stim\yellow.png,stim\gray.png,left,,,,,,,,,,,,,0,1,1,3,0,13,13,13,,,,,,,,,,,,,,,,,,,,,,,,,,,,,,,,,,,,,,,,,,,,,,,,,,,,,,,,left,1,247.46335039999985,None,247.46335039999985,None,247.46335039999985,248.46622890000003,247.46335039999985,248.46622890000003,247.46335039999985,248.46622890000003,247.46335039999985,248.46622890000003,247.46335039999985,247.9657947999999,247.46335039999985,247.9657947999999,247.46335039999985,247.9657947999999,247.46335039999985,247.9657947999999,247.46335039999985,None,0.09640650000005735,,,,,12009,001,2024_Jun_15_1756,nback,2021.2.3,59.83541670280967,
2-back,instructions\back-2.png,conditions\21back-e.xlsx,,,experiment,2,1,stim\yellow.png,stim\gray.png,stim\gray.png,stim\gray.png,down,,,,,,,,,,,,,0,1,1,3,0,14,14,14,,,,,,,,,,,,,,,,,,,,,,,,,,,,,,,,,,,,,,,,,,,,,,,,,,,,,,,,right,0,248.96567359999995,None,248.96567359999995,None,248.96567359999995,249.96860730000003,248.96567359999995,249.96860730000003,248.96567359999995,249.96860730000003,248.96567359999995,249.96860730000003,248.96567359999995,249.46762049999984,248.96567359999995,249.46762049999984,248.96567359999995,249.46762049999984,248.96567359999995,249.46762049999984,248.96567359999995,None,1.3142130000001089,,,,,12009,001,2024_Jun_15_1756,nback,2021.2.3,59.83541670280967,
2-back,instructions\back-2.png,conditions\21back-e.xlsx,,,experiment,2,2,stim\gray.png,stim\yellow.png,stim\gray.png,stim\gray.png,right,,,,,,,,,,,,,0,1,1,3,0,15,15,15,,,,,,,,,,,,,,,,,,,,,,,,,,,,,,,,,,,,,,,,,,,,,,,,,,,,,,,,None,0,250.4677357999999,None,250.4677357999999,None,250.4677357999999,251.47061080000003,250.4677357999999,251.47061080000003,250.4677357999999,251.47061080000003,250.4677357999999,251.47061080000003,250.4677357999999,250.97002550000002,250.4677357999999,250.97002550000002,250.4677357999999,250.97002550000002,250.4677357999999,250.97002550000002,250.4677357999999,None,,,,,,12009,001,2024_Jun_15_1756,nback,2021.2.3,59.83541670280967,
2-back,instructions\back-2.png,conditions\21back-e.xlsx,,,experiment,2,2,stim\gray.png,stim\yellow.png,stim\gray.png,stim\gray.png,up,,,,,,,,,,,,,0,1,1,3,0,16,16,16,,,,,,,,,,,,,,,,,,,,,,,,,,,,,,,,,,,,,,,,,,,,,,,,,,,,,,,,up,1,251.9707833,None,251.9707833,None,251.9707833,252.9725203999999,251.9707833,252.9725203999999,251.9707833,252.9725203999999,251.9707833,252.9725203999999,251.9707833,252.47198400000002,251.9707833,252.47198400000002,251.9707833,252.47198400000002,251.9707833,252.47198400000002,251.9707833,None,0.1890030999998089,,,,,12009,001,2024_Jun_15_1756,nback,2021.2.3,59.83541670280967,
2-back,instructions\back-2.png,conditions\21back-e.xlsx,,,experiment,2,1,stim\yellow.png,stim\gray.png,stim\gray.png,stim\gray.png,left,,,,,,,,,,,,,0,1,1,3,0,17,17,17,,,,,,,,,,,,,,,,,,,,,,,,,,,,,,,,,,,,,,,,,,,,,,,,,,,,,,,,left,1,253.47255329999984,None,253.47255329999984,None,253.47255329999984,254.47519220000004,253.47255329999984,254.47519220000004,253.47255329999984,254.47519220000004,253.47255329999984,254.47519220000004,253.47255329999984,253.97450589999994,253.47255329999984,253.97450589999994,253.47255329999984,253.97450589999994,253.47255329999984,253.97450589999994,253.47255329999984,None,0.2634610000000066,,,,,12009,001,2024_Jun_15_1756,nback,2021.2.3,59.83541670280967,
2-back,instructions\back-2.png,conditions\21back-e.xlsx,,,experiment,2,4,stim\gray.png,stim\gray.png,stim\gray.png,stim\yellow.png,left,,,,,,,,,,,,,0,1,1,3,0,18,18,18,,,,,,,,,,,,,,,,,,,,,,,,,,,,,,,,,,,,,,,,,,,,,,,,,,,,,,,,left,1,254.9580747,None,254.9580747,None,254.9580747,255.96087039999998,254.9580747,255.96087039999998,254.9580747,255.96087039999998,254.9580747,255.96087039999998,254.9580747,255.46024869999997,254.9580747,255.46024869999997,254.9580747,255.46024869999997,254.9580747,255.46024869999997,254.9580747,None,0.5220233999998527,,,,,12009,001,2024_Jun_15_1756,nback,2021.2.3,59.83541670280967,
2-back,instructions\back-2.png,conditions\21back-e.xlsx,,,experiment,2,3,stim\gray.png,stim\gray.png,stim\yellow.png,stim\gray.png,up,,,,,,,,,,,,,0,1,1,3,0,19,19,19,,,,,,,,,,,,,,,,,,,,,,,,,,,,,,,,,,,,,,,,,,,,,,,,,,,,,,,,down,0,256.46039159999987,None,256.46039159999987,None,256.46039159999987,257.4630781999999,256.46039159999987,257.4630781999999,256.46039159999987,257.4630781999999,256.46039159999987,257.4630781999999,256.46039159999987,256.9621918999999,256.46039159999987,256.9621918999999,256.46039159999987,256.9621918999999,256.46039159999987,256.9621918999999,256.46039159999987,None,1.284292700000151,,,,,12009,001,2024_Jun_15_1756,nback,2021.2.3,59.83541670280967,
2-back,instructions\back-2.png,conditions\21back-e.xlsx,,,,,,,,,,,,,,,,,,,,,,,0,1,1,3,,,,,,,,,,,,,,,,,,,,,,,,,,,,,,,,,,,,,,,,,,,,,,,,,,,,,,,,,,,,,,,,,,,,,,,,,,,,,,,,,,,,,257.9635684,None,,,12009,001,2024_Jun_15_1756,nback,2021.2.3,59.83541670280967,
2-back,instructions\back-2.png,conditions\20back-e.xlsx,,,experiment,2,2,stim\gray.png,stim\yellow.png,stim\gray.png,stim\gray.png,None,,,,,,,,,,,,,0,2,2,2,0,0,0,0,,,,,,,,,,,,,,,259.3651001999999,263.87259619999986,263.83898269999986,None,,,,,,,,,,,,,,,,,,,,,,,,,,,,,,,,,,,,,,None,1,263.9896575,None,263.9896575,None,263.9896575,264.9910751,263.9896575,264.9910751,263.9896575,264.9910751,263.9896575,264.9910751,263.9896575,264.4902436,263.9896575,264.4902436,263.9896575,264.4902436,263.9896575,264.4902436,263.9896575,None,,,,,,12009,001,2024_Jun_15_1756,nback,2021.2.3,59.83541670280967,
2-back,instructions\back-2.png,conditions\20back-e.xlsx,,,experiment,2,1,stim\yellow.png,stim\gray.png,stim\gray.png,stim\gray.png,None,,,,,,,,,,,,,0,2,2,2,0,1,1,1,,,,,,,,,,,,,,,,,,,,,,,,,,,,,,,,,,,,,,,,,,,,,,,,,,,,,,,,left,0,265.49246949999997,None,265.49246949999997,None,265.49246949999997,266.4923059,265.49246949999997,266.4923059,265.49246949999997,266.4923059,265.49246949999997,266.4923059,265.49246949999997,265.9922706,265.49246949999997,265.9922706,265.49246949999997,265.9922706,265.49246949999997,265.9922706,265.49246949999997,None,1.332012500000019,,,,,12009,001,2024_Jun_15_1756,nback,2021.2.3,59.83541670280967,
2-back,instructions\back-2.png,conditions\20back-e.xlsx,,,experiment,2,4,stim\gray.png,stim\gray.png,stim\gray.png,stim\yellow.png,left,,,,,,,,,,,,,0,2,2,2,0,2,2,2,,,,,,,,,,,,,,,,,,,,,,,,,,,,,,,,,,,,,,,,,,,,,,,,,,,,,,,,up,0,266.9595549999999,None,266.9595549999999,None,266.9595549999999,267.9611316999999,266.9595549999999,267.9611316999999,266.9595549999999,267.9611316999999,266.9595549999999,267.9611316999999,266.9595549999999,267.4610336999999,266.9595549999999,267.4610336999999,266.9595549999999,267.4610336999999,266.9595549999999,267.4610336999999,266.9595549999999,None,1.2253284000000804,,,,,12009,001,2024_Jun_15_1756,nback,2021.2.3,59.83541670280967,
2-back,instructions\back-2.png,conditions\20back-e.xlsx,,,experiment,2,3,stim\gray.png,stim\gray.png,stim\yellow.png,stim\gray.png,up,,,,,,,,,,,,,0,2,2,2,0,3,3,3,,,,,,,,,,,,,,,,,,,,,,,,,,,,,,,,,,,,,,,,,,,,,,,,,,,,,,,,None,0,268.4629021999999,None,268.4629021999999,None,268.4629021999999,269.46422140000004,268.4629021999999,269.46422140000004,268.4629021999999,269.46422140000004,268.4629021999999,269.46422140000004,268.4629021999999,268.96349179999993,268.4629021999999,268.96349179999993,268.4629021999999,268.96349179999993,268.4629021999999,268.96349179999993,268.4629021999999,None,,,,,,12009,001,2024_Jun_15_1756,nback,2021.2.3,59.83541670280967,
2-back,instructions\back-2.png,conditions\20back-e.xlsx,,,experiment,2,1,stim\yellow.png,stim\gray.png,stim\gray.png,stim\gray.png,down,,,,,,,,,,,,,0,2,2,2,0,4,4,4,,,,,,,,,,,,,,,,,,,,,,,,,,,,,,,,,,,,,,,,,,,,,,,,,,,,,,,,down,1,269.96382289999997,None,269.96382289999997,None,269.96382289999997,270.96649709999997,269.96382289999997,270.96649709999997,269.96382289999997,270.96649709999997,269.96382289999997,270.96649709999997,269.96382289999997,270.4658205999999,269.96382289999997,270.4658205999999,269.96382289999997,270.4658205999999,269.96382289999997,270.4658205999999,269.96382289999997,None,0.23638320000009116,,,,,12009,001,2024_Jun_15_1756,nback,2021.2.3,59.83541670280967,
2-back,instructions\back-2.png,conditions\20back-e.xlsx,,,experiment,2,2,stim\gray.png,stim\yellow.png,stim\gray.png,stim\gray.png,right,,,,,,,,,,,,,0,2,2,2,0,5,5,5,,,,,,,,,,,,,,,,,,,,,,,,,,,,,,,,,,,,,,,,,,,,,,,,,,,,,,,,right,1,271.46634270000004,None,271.46634270000004,None,271.46634270000004,272.4694542,271.46634270000004,272.4694542,271.46634270000004,272.4694542,271.46634270000004,272.4694542,271.46634270000004,271.9686153,271.46634270000004,271.9686153,271.46634270000004,271.9686153,271.46634270000004,271.9686153,271.46634270000004,None,0.2059807999999066,,,,,12009,001,2024_Jun_15_1756,nback,2021.2.3,59.83541670280967,
2-back,instructions\back-2.png,conditions\20back-e.xlsx,,,experiment,2,3,stim\gray.png,stim\gray.png,stim\yellow.png,stim\gray.png,up,,,,,,,,,,,,,0,2,2,2,0,6,6,6,,,,,,,,,,,,,,,,,,,,,,,,,,,,,,,,,,,,,,,,,,,,,,,,,,,,,,,,left,0,272.98657879999996,None,272.98657879999996,None,272.98657879999996,273.98793899999987,272.98657879999996,273.98793899999987,272.98657879999996,273.98793899999987,272.98657879999996,273.98793899999987,272.98657879999996,273.48685580000006,272.98657879999996,273.48685580000006,272.98657879999996,273.48685580000006,272.98657879999996,273.48685580000006,272.98657879999996,None,1.2936691999998402,,,,,12009,001,2024_Jun_15_1756,nback,2021.2.3,59.83541670280967,
2-back,instructions\back-2.png,conditions\20back-e.xlsx,,,experiment,2,4,stim\gray.png,stim\gray.png,stim\gray.png,stim\yellow.png,left,,,,,,,,,,,,,0,2,2,2,0,7,7,7,,,,,,,,,,,,,,,,,,,,,,,,,,,,,,,,,,,,,,,,,,,,,,,,,,,,,,,,right,0,274.4706157999999,None,274.4706157999999,None,274.4706157999999,275.4732879999999,274.4706157999999,275.4732879999999,274.4706157999999,275.4732879999999,274.4706157999999,275.4732879999999,274.4706157999999,274.97263139999995,274.4706157999999,274.97263139999995,274.4706157999999,274.97263139999995,274.4706157999999,274.97263139999995,274.4706157999999,None,1.1776899999999841,,,,,12009,001,2024_Jun_15_1756,nback,2021.2.3,59.83541670280967,
2-back,instructions\back-2.png,conditions\20back-e.xlsx,,,experiment,2,3,stim\gray.png,stim\gray.png,stim\yellow.png,stim\gray.png,right,,,,,,,,,,,,,0,2,2,2,0,8,8,8,,,,,,,,,,,,,,,,,,,,,,,,,,,,,,,,,,,,,,,,,,,,,,,,,,,,,,,,down,0,275.97309870000004,None,275.97309870000004,None,275.97309870000004,276.97571219999986,275.97309870000004,276.97571219999986,275.97309870000004,276.97571219999986,275.97309870000004,276.97571219999986,275.97309870000004,276.47500360000004,275.97309870000004,276.47500360000004,275.97309870000004,276.47500360000004,275.97309870000004,276.47500360000004,275.97309870000004,None,0.7074115000000347,,,,,12009,001,2024_Jun_15_1756,nback,2021.2.3,59.83541670280967,
2-back,instructions\back-2.png,conditions\20back-e.xlsx,,,experiment,2,4,stim\gray.png,stim\gray.png,stim\gray.png,stim\yellow.png,down,,,,,,,,,,,,,0,2,2,2,0,9,9,9,,,,,,,,,,,,,,,,,,,,,,,,,,,,,,,,,,,,,,,,,,,,,,,,,,,,,,,,None,0,277.45849840000005,None,277.45849840000005,None,277.45849840000005,278.4611964999999,277.45849840000005,278.4611964999999,277.45849840000005,278.4611964999999,277.45849840000005,278.4611964999999,277.45849840000005,277.9609117,277.45849840000005,277.9609117,277.45849840000005,277.9609117,277.45849840000005,277.9609117,277.45849840000005,None,,,,,,12009,001,2024_Jun_15_1756,nback,2021.2.3,59.83541670280967,
2-back,instructions\back-2.png,conditions\20back-e.xlsx,,,experiment,2,1,stim\yellow.png,stim\gray.png,stim\gray.png,stim\gray.png,right,,,,,,,,,,,,,0,2,2,2,0,10,10,10,,,,,,,,,,,,,,,,,,,,,,,,,,,,,,,,,,,,,,,,,,,,,,,,,,,,,,,,right,1,278.96077160000004,None,278.96077160000004,None,278.96077160000004,279.96357869999997,278.96077160000004,279.96357869999997,278.96077160000004,279.96357869999997,278.96077160000004,279.96357869999997,278.96077160000004,279.4632285,278.96077160000004,279.4632285,278.96077160000004,279.4632285,278.96077160000004,279.4632285,278.96077160000004,None,0.09584690000019691,,,,,12009,001,2024_Jun_15_1756,nback,2021.2.3,59.83541670280967,
2-back,instructions\back-2.png,conditions\20back-e.xlsx,,,experiment,2,2,stim\gray.png,stim\yellow.png,stim\gray.png,stim\gray.png,down,,,,,,,,,,,,,0,2,2,2,0,11,11,11,,,,,,,,,,,,,,,,,,,,,,,,,,,,,,,,,,,,,,,,,,,,,,,,,,,,,,,,left,0,280.48237159999985,None,280.48237159999985,None,280.48237159999985,281.4824022,280.48237159999985,281.4824022,280.48237159999985,281.4824022,280.48237159999985,281.4824022,280.48237159999985,280.99840040000004,280.48237159999985,280.99840040000004,280.48237159999985,280.99840040000004,280.48237159999985,280.99840040000004,280.48237159999985,None,0.9180920999999671,,,,,12009,001,2024_Jun_15_1756,nback,2021.2.3,59.83541670280967,
2-back,instructions\back-2.png,conditions\20back-e.xlsx,,,experiment,2,3,stim\gray.png,stim\gray.png,stim\yellow.png,stim\gray.png,up,,,,,,,,,,,,,0,2,2,2,0,12,12,12,,,,,,,,,,,,,,,,,,,,,,,,,,,,,,,,,,,,,,,,,,,,,,,,,,,,,,,,up,1,281.965958,None,281.965958,None,281.965958,282.9680146999999,281.965958,282.9680146999999,281.965958,282.9680146999999,281.965958,282.9680146999999,281.965958,282.46739290000005,281.965958,282.46739290000005,281.965958,282.46739290000005,281.965958,282.46739290000005,281.965958,None,0.6989518999998836,,,,,12009,001,2024_Jun_15_1756,nback,2021.2.3,59.83541670280967,
2-back,instructions\back-2.png,conditions\20back-e.xlsx,,,experiment,2,1,stim\yellow.png,stim\gray.png,stim\gray.png,stim\gray.png,left,,,,,,,,,,,,,0,2,2,2,0,13,13,13,,,,,,,,,,,,,,,,,,,,,,,,,,,,,,,,,,,,,,,,,,,,,,,,,,,,,,,,None,0,283.46770189999984,None,283.46770189999984,None,283.46770189999984,284.4704985999999,283.46770189999984,284.4704985999999,283.46770189999984,284.4704985999999,283.46770189999984,284.4704985999999,283.46770189999984,283.96941549999997,283.46770189999984,283.96941549999997,283.46770189999984,283.96941549999997,283.46770189999984,283.96941549999997,283.46770189999984,None,,,,,,12009,001,2024_Jun_15_1756,nback,2021.2.3,59.83541670280967,
2-back,instructions\back-2.png,conditions\20back-e.xlsx,,,experiment,2,4,stim\gray.png,stim\gray.png,stim\gray.png,stim\yellow.png,right,,,,,,,,,,,,,0,2,2,2,0,14,14,14,,,,,,,,,,,,,,,,,,,,,,,,,,,,,,,,,,,,,,,,,,,,,,,,,,,,,,,,None,0,284.98908729999994,None,284.98908729999994,None,284.98908729999994,285.9891398,284.98908729999994,285.9891398,284.98908729999994,285.9891398,284.98908729999994,285.9891398,284.98908729999994,285.48860939999986,284.98908729999994,285.48860939999986,284.98908729999994,285.48860939999986,284.98908729999994,285.48860939999986,284.98908729999994,None,,,,,,12009,001,2024_Jun_15_1756,nback,2021.2.3,59.83541670280967,
2-back,instructions\back-2.png,conditions\20back-e.xlsx,,,experiment,2,2,stim\gray.png,stim\yellow.png,stim\gray.png,stim\gray.png,up,,,,,,,,,,,,,0,2,2,2,0,15,15,15,,,,,,,,,,,,,,,,,,,,,,,,,,,,,,,,,,,,,,,,,,,,,,,,,,,,,,,,up,1,286.4906016,None,286.4906016,None,286.4906016,287.49174019999987,286.4906016,287.49174019999987,286.4906016,287.49174019999987,286.4906016,287.49174019999987,286.4906016,286.9905452999999,286.4906016,286.9905452999999,286.4906016,286.9905452999999,286.4906016,286.9905452999999,286.4906016,None,0.1506130000000212,,,,,12009,001,2024_Jun_15_1756,nback,2021.2.3,59.83541670280967,
2-back,instructions\back-2.png,conditions\20back-e.xlsx,,,experiment,2,4,stim\gray.png,stim\gray.png,stim\gray.png,stim\yellow.png,down,,,,,,,,,,,,,0,2,2,2,0,16,16,16,,,,,,,,,,,,,,,,,,,,,,,,,,,,,,,,,,,,,,,,,,,,,,,,,,,,,,,,down,1,287.9935797999999,None,287.9935797999999,None,287.9935797999999,288.99299789999986,287.9935797999999,288.99299789999986,287.9935797999999,288.99299789999986,287.9935797999999,288.99299789999986,287.9935797999999,288.4929075,287.9935797999999,288.4929075,287.9935797999999,288.4929075,287.9935797999999,288.4929075,287.9935797999999,None,0.01561800000013136,,,,,12009,001,2024_Jun_15_1756,nback,2021.2.3,59.83541670280967,
2-back,instructions\back-2.png,conditions\20back-e.xlsx,,,experiment,2,3,stim\gray.png,stim\gray.png,stim\yellow.png,stim\gray.png,left,,,,,,,,,,,,,0,2,2,2,0,17,17,17,,,,,,,,,,,,,,,,,,,,,,,,,,,,,,,,,,,,,,,,,,,,,,,,,,,,,,,,None,0,289.4780599999999,None,289.4780599999999,None,289.4780599999999,290.47938239999985,289.4780599999999,290.47938239999985,289.4780599999999,290.47938239999985,289.4780599999999,290.47938239999985,289.4780599999999,289.9785296,289.4780599999999,289.9785296,289.4780599999999,289.9785296,289.4780599999999,289.9785296,289.4780599999999,None,,,,,,12009,001,2024_Jun_15_1756,nback,2021.2.3,59.83541670280967,
2-back,instructions\back-2.png,conditions\20back-e.xlsx,,,experiment,2,1,stim\yellow.png,stim\gray.png,stim\gray.png,stim\gray.png,down,,,,,,,,,,,,,0,2,2,2,0,18,18,18,,,,,,,,,,,,,,,,,,,,,,,,,,,,,,,,,,,,,,,,,,,,,,,,,,,,,,,,None,0,290.9629714,None,290.9629714,None,290.9629714,291.96501999999987,290.9629714,291.96501999999987,290.9629714,291.96501999999987,290.9629714,291.96501999999987,290.9629714,291.4641296,290.9629714,291.4641296,290.9629714,291.4641296,290.9629714,291.4641296,290.9629714,None,,,,,,12009,001,2024_Jun_15_1756,nback,2021.2.3,59.83541670280967,
2-back,instructions\back-2.png,conditions\20back-e.xlsx,,,experiment,2,2,stim\gray.png,stim\yellow.png,stim\gray.png,stim\gray.png,right,,,,,,,,,,,,,0,2,2,2,0,19,19,19,,,,,,,,,,,,,,,,,,,,,,,,,,,,,,,,,,,,,,,,,,,,,,,,,,,,,,,,up,0,292.4644656999999,None,292.4644656999999,None,292.4644656999999,293.46734130000004,292.4644656999999,293.46734130000004,292.4644656999999,293.46734130000004,292.4644656999999,293.46734130000004,292.4644656999999,292.9665479,292.4644656999999,292.9665479,292.4644656999999,292.9665479,292.4644656999999,292.9665479,292.4644656999999,None,1.4485861999999088,,,,,12009,001,2024_Jun_15_1756,nback,2021.2.3,59.83541670280967,
2-back,instructions\back-2.png,conditions\20back-e.xlsx,,,,,,,,,,,,,,,,,,,,,,,0,2,2,2,,,,,,,,,,,,,,,,,,,,,,,,,,,,,,,,,,,,,,,,,,,,,,,,,,,,,,,,,,,,,,,,,,,,,,,,,,,,,,,,,,,,,293.968067,None,,,12009,001,2024_Jun_15_1756,nback,2021.2.3,59.83541670280967,
0-back,instructions\back-0.png,conditions\01back-e.xlsx,,,experiment,0,2,stim\gray.png,stim\yellow.png,stim\gray.png,stim\gray.png,left,,,,,,,,,,,,,0,3,3,4,0,0,0,0,,,,,,,,,,,,,,,295.2195827999999,299.72643459999995,299.61005209999985,None,,,,,,,,,,,,,,,,,,,,,,,,,,,,,,,,,,,,,,None,0,299.9773981999999,None,299.9773981999999,None,299.9773981999999,300.9777813999999,299.9773981999999,300.9777813999999,299.9773981999999,300.9777813999999,299.9773981999999,300.9777813999999,299.9773981999999,300.4775566999999,299.9773981999999,300.4775566999999,299.9773981999999,300.4775566999999,299.9773981999999,300.4775566999999,299.9773981999999,None,,,,,,12009,001,2024_Jun_15_1756,nback,2021.2.3,59.83541670280967,
0-back,instructions\back-0.png,conditions\01back-e.xlsx,,,experiment,0,4,stim\gray.png,stim\gray.png,stim\gray.png,stim\yellow.png,down,,,,,,,,,,,,,0,3,3,4,0,1,1,1,,,,,,,,,,,,,,,,,,,,,,,,,,,,,,,,,,,,,,,,,,,,,,,,,,,,,,,,down,1,301.46154209999986,None,301.46154209999986,None,301.46154209999986,302.4641792,301.46154209999986,302.4641792,301.46154209999986,302.4641792,301.46154209999986,302.4641792,301.46154209999986,301.96353380000005,301.46154209999986,301.96353380000005,301.46154209999986,301.96353380000005,301.46154209999986,301.96353380000005,301.46154209999986,None,0.5876080000000456,,,,,12009,001,2024_Jun_15_1756,nback,2021.2.3,59.83541670280967,
0-back,instructions\back-0.png,conditions\01back-e.xlsx,,,experiment,0,1,stim\yellow.png,stim\gray.png,stim\gray.png,stim\gray.png,up,,,,,,,,,,,,,0,3,3,4,0,2,2,2,,,,,,,,,,,,,,,,,,,,,,,,,,,,,,,,,,,,,,,,,,,,,,,,,,,,,,,,up,1,302.96379679999995,None,302.96379679999995,None,302.96379679999995,303.9662040999999,302.96379679999995,303.9662040999999,302.96379679999995,303.9662040999999,302.96379679999995,303.9662040999999,302.96379679999995,303.46587609999983,302.96379679999995,303.46587609999983,302.96379679999995,303.46587609999983,302.96379679999995,303.46587609999983,302.96379679999995,None,0.3260434000001169,,,,,12009,001,2024_Jun_15_1756,nback,2021.2.3,59.83541670280967,
0-back,instructions\back-0.png,conditions\01back-e.xlsx,,,experiment,0,2,stim\gray.png,stim\yellow.png,stim\gray.png,stim\gray.png,left,,,,,,,,,,,,,0,3,3,4,0,3,3,3,,,,,,,,,,,,,,,,,,,,,,,,,,,,,,,,,,,,,,,,,,,,,,,,,,,,,,,,left,1,304.4662751999999,None,304.4662751999999,None,304.4662751999999,305.46880599999986,304.4662751999999,305.46880599999986,304.4662751999999,305.46880599999986,304.4662751999999,305.46880599999986,304.4662751999999,304.9677609999999,304.4662751999999,304.9677609999999,304.4662751999999,304.9677609999999,304.4662751999999,304.9677609999999,304.4662751999999,None,0.30296910000015487,,,,,12009,001,2024_Jun_15_1756,nback,2021.2.3,59.83541670280967,
0-back,instructions\back-0.png,conditions\01back-e.xlsx,,,experiment,0,3,stim\gray.png,stim\gray.png,stim\yellow.png,stim\gray.png,right,,,,,,,,,,,,,0,3,3,4,0,4,4,4,,,,,,,,,,,,,,,,,,,,,,,,,,,,,,,,,,,,,,,,,,,,,,,,,,,,,,,,right,1,305.96903539999994,None,305.96903539999994,None,305.96903539999994,306.9704689,305.96903539999994,306.9704689,305.96903539999994,306.9704689,305.96903539999994,306.9704689,305.96903539999994,306.47019939999996,305.96903539999994,306.47019939999996,305.96903539999994,306.47019939999996,305.96903539999994,306.47019939999996,305.96903539999994,None,0.4005680999998731,,,,,12009,001,2024_Jun_15_1756,nback,2021.2.3,59.83541670280967,
0-back,instructions\back-0.png,conditions\01back-e.xlsx,,,experiment,0,1,stim\yellow.png,stim\gray.png,stim\gray.png,stim\gray.png,up,,,,,,,,,,,,,0,3,3,4,0,5,5,5,,,,,,,,,,,,,,,,,,,,,,,,,,,,,,,,,,,,,,,,,,,,,,,,,,,,,,,,up,1,307.4885692999999,None,307.4885692999999,None,307.4885692999999,308.4898819,307.4885692999999,308.4898819,307.4885692999999,308.4898819,307.4885692999999,308.4898819,307.4885692999999,307.98882319999984,307.4885692999999,307.98882319999984,307.4885692999999,307.98882319999984,307.4885692999999,307.98882319999984,307.4885692999999,None,0.30473929999993743,,,,,12009,001,2024_Jun_15_1756,nback,2021.2.3,59.83541670280967,
0-back,instructions\back-0.png,conditions\01back-e.xlsx,,,experiment,0,4,stim\gray.png,stim\gray.png,stim\gray.png,stim\yellow.png,down,,,,,,,,,,,,,0,3,3,4,0,6,6,6,,,,,,,,,,,,,,,,,,,,,,,,,,,,,,,,,,,,,,,,,,,,,,,,,,,,,,,,down,1,308.9727157,None,308.9727157,None,308.9727157,309.9751349999999,308.9727157,309.9751349999999,308.9727157,309.9751349999999,308.9727157,309.9751349999999,308.9727157,309.4745736,308.9727157,309.4745736,308.9727157,309.4745736,308.9727157,309.4745736,308.9727157,None,0.612476900000047,,,,,12009,001,2024_Jun_15_1756,nback,2021.2.3,59.83541670280967,
0-back,instructions\back-0.png,conditions\01back-e.xlsx,,,experiment,0,3,stim\gray.png,stim\gray.png,stim\yellow.png,stim\gray.png,right,,,,,,,,,,,,,0,3,3,4,0,7,7,7,,,,,,,,,,,,,,,,,,,,,,,,,,,,,,,,,,,,,,,,,,,,,,,,,,,,,,,,right,1,310.45839279999996,None,310.45839279999996,None,310.45839279999996,311.46109750000005,310.45839279999996,311.46109750000005,310.45839279999996,311.46109750000005,310.45839279999996,311.46109750000005,310.45839279999996,310.96040700000003,310.45839279999996,310.96040700000003,310.45839279999996,310.96040700000003,310.45839279999996,310.96040700000003,310.45839279999996,None,0.3515087999999196,,,,,12009,001,2024_Jun_15_1756,nback,2021.2.3,59.83541670280967,
0-back,instructions\back-0.png,conditions\01back-e.xlsx,,,experiment,0,4,stim\gray.png,stim\gray.png,stim\gray.png,stim\yellow.png,down,,,,,,,,,,,,,0,3,3,4,0,8,8,8,,,,,,,,,,,,,,,,,,,,,,,,,,,,,,,,,,,,,,,,,,,,,,,,,,,,,,,,down,1,311.96052699999996,None,311.96052699999996,None,311.96052699999996,312.96329330000003,311.96052699999996,312.96329330000003,311.96052699999996,312.96329330000003,311.96052699999996,312.96329330000003,311.96052699999996,312.4627885,311.96052699999996,312.4627885,311.96052699999996,312.4627885,311.96052699999996,312.4627885,311.96052699999996,None,0.5052295999998933,,,,,12009,001,2024_Jun_15_1756,nback,2021.2.3,59.83541670280967,
0-back,instructions\back-0.png,conditions\01back-e.xlsx,,,experiment,0,3,stim\gray.png,stim\gray.png,stim\yellow.png,stim\gray.png,right,,,,,,,,,,,,,0,3,3,4,0,9,9,9,,,,,,,,,,,,,,,,,,,,,,,,,,,,,,,,,,,,,,,,,,,,,,,,,,,,,,,,right,1,313.46303709999984,None,313.46303709999984,None,313.46303709999984,314.4657359999999,313.46303709999984,314.4657359999999,313.46303709999984,314.4657359999999,313.46303709999984,314.4657359999999,313.46303709999984,313.96461929999987,313.46303709999984,313.96461929999987,313.46303709999984,313.96461929999987,313.46303709999984,313.96461929999987,313.46303709999984,None,0.4023591000000124,,,,,12009,001,2024_Jun_15_1756,nback,2021.2.3,59.83541670280967,
0-back,instructions\back-0.png,conditions\01back-e.xlsx,,,experiment,0,3,stim\gray.png,stim\gray.png,stim\yellow.png,stim\gray.png,right,,,,,,,,,,,,,0,3,3,4,0,10,10,10,,,,,,,,,,,,,,,,,,,,,,,,,,,,,,,,,,,,,,,,,,,,,,,,,,,,,,,,right,1,314.96566329999996,None,314.96566329999996,None,314.96566329999996,315.9686901,314.96566329999996,315.9686901,314.96566329999996,315.9686901,314.96566329999996,315.9686901,314.96566329999996,315.467075,314.96566329999996,315.467075,314.96566329999996,315.467075,314.96566329999996,315.467075,314.96566329999996,None,0.4598052999999709,,,,,12009,001,2024_Jun_15_1756,nback,2021.2.3,59.83541670280967,
0-back,instructions\back-0.png,conditions\01back-e.xlsx,,,experiment,0,1,stim\yellow.png,stim\gray.png,stim\gray.png,stim\gray.png,up,,,,,,,,,,,,,0,3,3,4,0,11,11,11,,,,,,,,,,,,,,,,,,,,,,,,,,,,,,,,,,,,,,,,,,,,,,,,,,,,,,,,up,1,316.46733589999985,None,316.46733589999985,None,316.46733589999985,317.4697289999999,316.46733589999985,317.4697289999999,316.46733589999985,317.4697289999999,316.46733589999985,317.4697289999999,316.46733589999985,316.9694709999999,316.46733589999985,316.9694709999999,316.46733589999985,316.9694709999999,316.46733589999985,316.9694709999999,316.46733589999985,None,0.3508005000001049,,,,,12009,001,2024_Jun_15_1756,nback,2021.2.3,59.83541670280967,
0-back,instructions\back-0.png,conditions\01back-e.xlsx,,,experiment,0,3,stim\gray.png,stim\gray.png,stim\yellow.png,stim\gray.png,right,,,,,,,,,,,,,0,3,3,4,0,12,12,12,,,,,,,,,,,,,,,,,,,,,,,,,,,,,,,,,,,,,,,,,,,,,,,,,,,,,,,,right,1,317.96967369999993,None,317.96967369999993,None,317.96967369999993,318.9722614,317.96967369999993,318.9722614,317.96967369999993,318.9722614,317.96967369999993,318.9722614,317.96967369999993,318.47179929999993,317.96967369999993,318.47179929999993,317.96967369999993,318.47179929999993,317.96967369999993,318.47179929999993,317.96967369999993,None,0.42385319999993953,,,,,12009,001,2024_Jun_15_1756,nback,2021.2.3,59.83541670280967,
0-back,instructions\back-0.png,conditions\01back-e.xlsx,,,experiment,0,1,stim\yellow.png,stim\gray.png,stim\gray.png,stim\gray.png,up,,,,,,,,,,,,,0,3,3,4,0,13,13,13,,,,,,,,,,,,,,,,,,,,,,,,,,,,,,,,,,,,,,,,,,,,,,,,,,,,,,,,up,1,319.4718309,None,319.4718309,None,319.4718309,320.47380350000003,319.4718309,320.47380350000003,319.4718309,320.47380350000003,319.4718309,320.47380350000003,319.4718309,319.9728224999999,319.4718309,319.9728224999999,319.4718309,319.9728224999999,319.4718309,319.9728224999999,319.4718309,None,0.2821519999999964,,,,,12009,001,2024_Jun_15_1756,nback,2021.2.3,59.83541670280967,
0-back,instructions\back-0.png,conditions\01back-e.xlsx,,,experiment,0,4,stim\gray.png,stim\gray.png,stim\gray.png,stim\yellow.png,down,,,,,,,,,,,,,0,3,3,4,0,14,14,14,,,,,,,,,,,,,,,,,,,,,,,,,,,,,,,,,,,,,,,,,,,,,,,,,,,,,,,,down,1,320.97430039999995,None,320.97430039999995,None,320.97430039999995,321.9766308999999,320.97430039999995,321.9766308999999,320.97430039999995,321.9766308999999,320.97430039999995,321.9766308999999,320.97430039999995,321.4759317999999,320.97430039999995,321.4759317999999,320.97430039999995,321.4759317999999,320.97430039999995,321.4759317999999,320.97430039999995,None,0.5075105000000804,,,,,12009,001,2024_Jun_15_1756,nback,2021.2.3,59.83541670280967,
0-back,instructions\back-0.png,conditions\01back-e.xlsx,,,experiment,0,2,stim\gray.png,stim\yellow.png,stim\gray.png,stim\gray.png,left,,,,,,,,,,,,,0,3,3,4,0,15,15,15,,,,,,,,,,,,,,,,,,,,,,,,,,,,,,,,,,,,,,,,,,,,,,,,,,,,,,,,left,1,322.46072989999993,None,322.46072989999993,None,322.46072989999993,323.46267839999996,322.46072989999993,323.46267839999996,322.46072989999993,323.46267839999996,322.46072989999993,323.46267839999996,322.46072989999993,322.9624286999999,322.46072989999993,322.9624286999999,322.46072989999993,322.9624286999999,322.46072989999993,322.9624286999999,322.46072989999993,None,0.30147740000006706,,,,,12009,001,2024_Jun_15_1756,nback,2021.2.3,59.83541670280967,
0-back,instructions\back-0.png,conditions\01back-e.xlsx,,,experiment,0,1,stim\yellow.png,stim\gray.png,stim\gray.png,stim\gray.png,up,,,,,,,,,,,,,0,3,3,4,0,16,16,16,,,,,,,,,,,,,,,,,,,,,,,,,,,,,,,,,,,,,,,,,,,,,,,,,,,,,,,,up,1,323.96215659999984,None,323.96215659999984,None,323.96215659999984,324.96500249999985,323.96215659999984,324.96500249999985,323.96215659999984,324.96500249999985,323.96215659999984,324.96500249999985,323.96215659999984,324.4641319,323.96215659999984,324.4641319,323.96215659999984,324.4641319,323.96215659999984,324.4641319,323.96215659999984,None,0.2876530000000912,,,,,12009,001,2024_Jun_15_1756,nback,2021.2.3,59.83541670280967,
0-back,instructions\back-0.png,conditions\01back-e.xlsx,,,experiment,0,2,stim\gray.png,stim\yellow.png,stim\gray.png,stim\gray.png,left,,,,,,,,,,,,,0,3,3,4,0,17,17,17,,,,,,,,,,,,,,,,,,,,,,,,,,,,,,,,,,,,,,,,,,,,,,,,,,,,,,,,left,1,325.4644169999999,None,325.4644169999999,None,325.4644169999999,326.46613060000004,325.4644169999999,326.46613060000004,325.4644169999999,326.46613060000004,325.4644169999999,326.46613060000004,325.4644169999999,325.9663278999999,325.4644169999999,325.9663278999999,325.4644169999999,325.9663278999999,325.4644169999999,325.9663278999999,325.4644169999999,None,0.35334160000002157,,,,,12009,001,2024_Jun_15_1756,nback,2021.2.3,59.83541670280967,
0-back,instructions\back-0.png,conditions\01back-e.xlsx,,,experiment,0,4,stim\gray.png,stim\gray.png,stim\gray.png,stim\yellow.png,down,,,,,,,,,,,,,0,3,3,4,0,18,18,18,,,,,,,,,,,,,,,,,,,,,,,,,,,,,,,,,,,,,,,,,,,,,,,,,,,,,,,,down,1,326.9666471999999,None,326.9666471999999,None,326.9666471999999,327.9688778999998,326.9666471999999,327.9688778999998,326.9666471999999,327.9688778999998,326.9666471999999,327.9688778999998,326.9666471999999,327.46879290000015,326.9666471999999,327.46879290000015,326.9666471999999,327.46879290000015,326.9666471999999,327.46879290000015,326.9666471999999,None,0.5556467000001248,,,,,12009,001,2024_Jun_15_1756,nback,2021.2.3,59.83541670280967,
0-back,instructions\back-0.png,conditions\01back-e.xlsx,,,experiment,0,2,stim\gray.png,stim\yellow.png,stim\gray.png,stim\gray.png,left,,,,,,,,,,,,,0,3,3,4,0,19,19,19,,,,,,,,,,,,,,,,,,,,,,,,,,,,,,,,,,,,,,,,,,,,,,,,,,,,,,,,left,1,328.4691993000001,None,328.4691993000001,None,328.4691993000001,329.4716239999998,328.4691993000001,329.4716239999998,328.4691993000001,329.4716239999998,328.4691993000001,329.4716239999998,328.4691993000001,328.9698386,328.4691993000001,328.9698386,328.4691993000001,328.9698386,328.4691993000001,328.9698386,328.4691993000001,None,0.300927799999954,,,,,12009,001,2024_Jun_15_1756,nback,2021.2.3,59.83541670280967,
0-back,instructions\back-0.png,conditions\01back-e.xlsx,,,,,,,,,,,,,,,,,,,,,,,0,3,3,4,,,,,,,,,,,,,,,,,,,,,,,,,,,,,,,,,,,,,,,,,,,,,,,,,,,,,,,,,,,,,,,,,,,,,,,,,,,,,,,,,,,,,329.97222539999984,None,,,12009,001,2024_Jun_15_1756,nback,2021.2.3,59.83541670280967,
