backseq,backinstr,backfile,instruction,size_in,Trialtype,back,number,P1,P2,P3,P4,corrAns,trials_practice.thisRepN,trials_practice.thisTrialN,trials_practice.thisN,trials_practice.thisIndex,trials.thisRepN,trials.thisTrialN,trials.thisN,trials.thisIndex,trials_3.thisRepN,trials_3.thisTrialN,trials_3.thisN,trials_3.thisIndex,trials_2.thisRepN,trials_2.thisTrialN,trials_2.thisN,trials_2.thisIndex,trials_4.thisRepN,trials_4.thisTrialN,trials_4.thisN,trials_4.thisIndex,image.started,image.stopped,image_2.started,image_2.stopped,key_resp.keys,key_resp.rt,key_resp.started,key_resp.stopped,image_3.started,image_3.stopped,key_resp_2.keys,key_resp_2.rt,key_resp_2.started,key_resp_2.stopped,image_4.started,image_4.stopped,text.started,text.stopped,H1.started,H1.stopped,H2.started,H2.stopped,H3.started,H3.stopped,H4.started,H4.stopped,key_resp_3.keys,key_resp_3.corr,key_resp_3.rt,key_resp_3.started,key_resp_3.stopped,text_4.started,text_4.stopped,F1.started,F1.stopped,F2.started,F2.stopped,F3.started,F3.stopped,F4.started,F4.stopped,image_7.started,image_7.stopped,text_5.started,text_5.stopped,key_resp_6.keys,key_resp_6.rt,key_resp_6.started,key_resp_6.stopped,image_5.started,image_5.stopped,key_resp_4.keys,key_resp_4.rt,key_resp_4.started,key_resp_4.stopped,key_resp_5.keys,key_resp_5.corr,key_resp_5.started,key_resp_5.stopped,text_3.started,text_3.stopped,H1_2.started,H1_2.stopped,H2_2.started,H2_2.stopped,H3_2.started,H3_2.stopped,H4_2.started,H4_2.stopped,F1_2.started,F1_2.stopped,F2_2.started,F2_2.stopped,F3_2.started,F3_2.stopped,F4_2.started,F4_2.stopped,image_8.started,image_8.stopped,key_resp_5.rt,text_2.started,text_2.stopped,image_6.started,image_6.stopped,participant,session,date,expName,psychopyVersion,frameRate,
,,,,,,,,,,,,,,,,,,,,,,,,,,,,,,,,,9.243405099958181,None,10.16305299999658,None,space,0.8381486000726,10.16305299999658,None,,,,,,,,,,,,,,,,,,,,,,,,,,,,,,,,,,,,,,,,,,,,,,,,,,,,,,,,,,,,,,,,,,,,,,,,,,,,,12006,001,2024_Jun_13_1739,nback,2021.2.3,59.503231308789424,
0-back,instructions\back-0.png,conditions\0back-p.xlsx,instructions\0-BACK.png,"(15, 8)",practice,0,1,stim\yellow.png,stim\gray.png,stim\gray.png,stim\gray.png,up,0,0,0,0,0,0,0,0,0,0,0,0,,,,,,,,,,,,,,,,,11.08058379997965,None,space,3.160271400003694,11.08058379997965,None,14.53619669994805,19.042898999992758,18.894345399923623,None,19.34304309997242,20.345229499973357,19.34304309997242,20.345229499973357,19.34304309997242,20.345229499973357,19.34304309997242,20.345229499973357,up,1,0.7197353999363258,19.34304309997242,None,19.34304309997242,None,19.34304309997242,19.843538700020872,19.34304309997242,19.843538700020872,19.34304309997242,19.843538700020872,19.34304309997242,19.843538700020872,19.34304309997242,None,,,,,,,,,,,,,,,,,,,,,,,,,,,,,,,,,,,,,,,,,,12006,001,2024_Jun_13_1739,nback,2021.2.3,59.503231308789424,
0-back,instructions\back-0.png,conditions\0back-p.xlsx,instructions\0-BACK.png,"(15, 8)",practice,0,2,stim\gray.png,stim\yellow.png,stim\gray.png,stim\gray.png,left,0,0,0,0,0,0,0,0,0,1,1,1,,,,,,,,,,,,,,,,,,,,,,,,,,,20.77841799997259,21.78063639998436,20.77841799997259,21.78063639998436,20.77841799997259,21.78063639998436,20.77841799997259,21.78063639998436,left,1,0.3883566000731662,20.77841799997259,None,20.77841799997259,None,20.77841799997259,21.279915099963546,20.77841799997259,21.279915099963546,20.77841799997259,21.279915099963546,20.77841799997259,21.279915099963546,20.77841799997259,None,,,,,,,,,,,,,,,,,,,,,,,,,,,,,,,,,,,,,,,,,,12006,001,2024_Jun_13_1739,nback,2021.2.3,59.503231308789424,
0-back,instructions\back-0.png,conditions\0back-p.xlsx,instructions\0-BACK.png,"(15, 8)",practice,0,3,stim\gray.png,stim\gray.png,stim\yellow.png,stim\gray.png,right,0,0,0,0,0,0,0,0,0,2,2,2,,,,,,,,,,,,,,,,,,,,,,,,,,,22.280454399995506,23.282078000018373,22.280454399995506,23.282078000018373,22.280454399995506,23.282078000018373,22.280454399995506,23.282078000018373,right,1,0.3664111999096349,22.280454399995506,None,22.280454399995506,None,22.280454399995506,22.78218829992693,22.280454399995506,22.78218829992693,22.280454399995506,22.78218829992693,22.280454399995506,22.78218829992693,22.280454399995506,None,,,,,,,,,,,,,,,,,,,,,,,,,,,,,,,,,,,,,,,,,,12006,001,2024_Jun_13_1739,nback,2021.2.3,59.503231308789424,
0-back,instructions\back-0.png,conditions\0back-p.xlsx,instructions\0-BACK.png,"(15, 8)",practice,0,4,stim\gray.png,stim\gray.png,stim\gray.png,stim\yellow.png,down,0,0,0,0,0,0,0,0,0,3,3,3,,,,,,,,,,,,,,,,,,,,,,,,,,,23.783107499941252,24.785127399954945,23.783107499941252,24.785127399954945,23.783107499941252,24.785127399954945,23.783107499941252,24.785127399954945,down,1,0.5838312999112532,23.783107499941252,None,23.783107499941252,None,23.783107499941252,24.283422600012273,23.783107499941252,24.283422600012273,23.783107499941252,24.283422600012273,23.783107499941252,24.283422600012273,23.783107499941252,None,,,,,,,,,,,,,,,,,,,,,,,,,,,,,,,,,,,,,,,,,,12006,001,2024_Jun_13_1739,nback,2021.2.3,59.503231308789424,
0-back,instructions\back-0.png,conditions\0back-p.xlsx,instructions\0-BACK.png,"(15, 8)",practice,0,2,stim\gray.png,stim\yellow.png,stim\gray.png,stim\gray.png,left,0,0,0,0,0,0,0,0,0,4,4,4,,,,,,,,,,,,,,,,,,,,,,,,,,,25.2866094999481,26.287404999951832,25.2866094999481,26.287404999951832,25.2866094999481,26.287404999951832,25.2866094999481,26.287404999951832,left,1,0.480311399907805,25.2866094999481,None,25.2866094999481,None,25.2866094999481,25.785974900005385,25.2866094999481,25.785974900005385,25.2866094999481,25.785974900005385,25.2866094999481,25.785974900005385,25.2866094999481,None,,,,,,,,,,,,,,,,,,,,,,,,,,,,,,,,,,,,,,,,,,12006,001,2024_Jun_13_1739,nback,2021.2.3,59.503231308789424,
0-back,instructions\back-0.png,conditions\0back-p.xlsx,instructions\0-BACK.png,"(15, 8)",practice,0,1,stim\yellow.png,stim\gray.png,stim\gray.png,stim\gray.png,up,0,0,0,0,0,0,0,0,0,5,5,5,,,,,,,,,,,,,,,,,,,,,,,,,,,26.78811959992163,27.789066300028935,26.78811959992163,27.789066300028935,26.78811959992163,27.789066300028935,26.78811959992163,27.789066300028935,up,1,0.37872089992742985,26.78811959992163,None,26.78811959992163,None,26.78811959992163,27.289241299964488,26.78811959992163,27.289241299964488,26.78811959992163,27.289241299964488,26.78811959992163,27.289241299964488,26.78811959992163,None,,,,,,,,,,,,,,,,,,,,,,,,,,,,,,,,,,,,,,,,,,12006,001,2024_Jun_13_1739,nback,2021.2.3,59.503231308789424,
0-back,instructions\back-0.png,conditions\0back-p.xlsx,instructions\0-BACK.png,"(15, 8)",practice,0,4,stim\gray.png,stim\gray.png,stim\gray.png,stim\yellow.png,down,0,0,0,0,0,0,0,0,0,6,6,6,,,,,,,,,,,,,,,,,,,,,,,,,,,28.274076899979264,29.274508700007573,28.274076899979264,29.274508700007573,28.274076899979264,29.274508700007573,28.274076899979264,29.274508700007573,down,1,0.3894702000543475,28.274076899979264,None,28.274076899979264,None,28.274076899979264,28.774467599927448,28.274076899979264,28.774467599927448,28.274076899979264,28.774467599927448,28.274076899979264,28.774467599927448,28.274076899979264,None,,,,,,,,,,,,,,,,,,,,,,,,,,,,,,,,,,,,,,,,,,12006,001,2024_Jun_13_1739,nback,2021.2.3,59.503231308789424,
0-back,instructions\back-0.png,conditions\0back-p.xlsx,instructions\0-BACK.png,"(15, 8)",practice,0,3,stim\gray.png,stim\gray.png,stim\yellow.png,stim\gray.png,right,0,0,0,0,0,0,0,0,0,7,7,7,,,,,,,,,,,,,,,,,,,,,,,,,,,29.776522999978624,30.776857699966058,29.776522999978624,30.776857699966058,29.776522999978624,30.776857699966058,29.776522999978624,30.776857699966058,right,1,0.38245740009006113,29.776522999978624,None,29.776522999978624,None,29.776522999978624,30.27629219996743,29.776522999978624,30.27629219996743,29.776522999978624,30.27629219996743,29.776522999978624,30.27629219996743,29.776522999978624,None,,,,,,,,,,,,,,,,,,,,,,,,,,,,,,,,,,,,,,,,,,12006,001,2024_Jun_13_1739,nback,2021.2.3,59.503231308789424,
0-back,instructions\back-0.png,conditions\0back-p.xlsx,instructions\0-BACK.png,"(15, 8)",practice,0,3,stim\gray.png,stim\gray.png,stim\yellow.png,stim\gray.png,right,0,0,0,0,0,0,0,0,0,8,8,8,,,,,,,,,,,,,,,,,,,,,,,,,,,31.27721530001145,32.27910499996506,31.27721530001145,32.27910499996506,31.27721530001145,32.27910499996506,31.27721530001145,32.27910499996506,right,1,0.4032058999873698,31.27721530001145,None,31.27721530001145,None,31.27721530001145,31.779495000024326,31.27721530001145,31.779495000024326,31.27721530001145,31.779495000024326,31.27721530001145,31.779495000024326,31.27721530001145,None,,,,,,,,,,,,,,,,,,,,,,,,,,,,,,,,,,,,,,,,,,12006,001,2024_Jun_13_1739,nback,2021.2.3,59.503231308789424,
0-back,instructions\back-0.png,conditions\0back-p.xlsx,instructions\0-BACK.png,"(15, 8)",practice,0,4,stim\gray.png,stim\gray.png,stim\gray.png,stim\yellow.png,down,0,0,0,0,0,0,0,0,0,9,9,9,,,,,,,,,,,,,,,,,,,,,,,,,,,32.77968709997367,33.78155339998193,32.77968709997367,33.78155339998193,32.77968709997367,33.78155339998193,32.77968709997367,33.78155339998193,down,1,0.49138769996352494,32.77968709997367,None,32.77968709997367,None,32.77968709997367,33.280469899997115,32.77968709997367,33.280469899997115,32.77968709997367,33.280469899997115,32.77968709997367,33.280469899997115,32.77968709997367,None,,,,,,,,,,,,,,,,,,,,,,,,,,,,,,,,,,,,,,,,,,12006,001,2024_Jun_13_1739,nback,2021.2.3,59.503231308789424,
0-back,instructions\back-0.png,conditions\0back-p.xlsx,instructions\0-BACK.png,"(15, 8)",practice,0,1,stim\yellow.png,stim\gray.png,stim\gray.png,stim\gray.png,up,0,0,0,0,0,0,0,0,0,10,10,10,,,,,,,,,,,,,,,,,,,,,,,,,,,34.282001800020225,35.28426230000332,34.282001800020225,35.28426230000332,34.282001800020225,35.28426230000332,34.282001800020225,35.28426230000332,up,1,0.3649033000692725,34.282001800020225,None,34.282001800020225,None,34.282001800020225,34.78475689992774,34.282001800020225,34.78475689992774,34.282001800020225,34.78475689992774,34.282001800020225,34.78475689992774,34.282001800020225,None,,,,,,,,,,,,,,,,,,,,,,,,,,,,,,,,,,,,,,,,,,12006,001,2024_Jun_13_1739,nback,2021.2.3,59.503231308789424,
0-back,instructions\back-0.png,conditions\0back-p.xlsx,instructions\0-BACK.png,"(15, 8)",practice,0,2,stim\gray.png,stim\yellow.png,stim\gray.png,stim\gray.png,left,0,0,0,0,0,0,0,0,0,11,11,11,,,,,,,,,,,,,,,,,,,,,,,,,,,35.784377399948426,36.78678419999778,35.784377399948426,36.78678419999778,35.784377399948426,36.78678419999778,35.784377399948426,36.78678419999778,left,1,0.3751539000077173,35.784377399948426,None,35.784377399948426,None,35.784377399948426,36.28663129999768,35.784377399948426,36.28663129999768,35.784377399948426,36.28663129999768,35.784377399948426,36.28663129999768,35.784377399948426,None,,,,,,,,,,,,,,,,,,,,,,,,,,,,,,,,,,,,,,,,,,12006,001,2024_Jun_13_1739,nback,2021.2.3,59.503231308789424,
0-back,instructions\back-0.png,conditions\0back-p.xlsx,instructions\0-BACK.png,"(15, 8)",practice,0,4,stim\gray.png,stim\gray.png,stim\gray.png,stim\yellow.png,down,0,0,0,0,0,0,0,0,0,12,12,12,,,,,,,,,,,,,,,,,,,,,,,,,,,37.286698999931104,38.28804929996841,37.286698999931104,38.28804929996841,37.286698999931104,38.28804929996841,37.286698999931104,38.28804929996841,down,1,0.560492999968119,37.286698999931104,None,37.286698999931104,None,37.286698999931104,37.78726539993659,37.286698999931104,37.78726539993659,37.286698999931104,37.78726539993659,37.286698999931104,37.78726539993659,37.286698999931104,None,,,,,,,,,,,,,,,,,,,,,,,,,,,,,,,,,,,,,,,,,,12006,001,2024_Jun_13_1739,nback,2021.2.3,59.503231308789424,
0-back,instructions\back-0.png,conditions\0back-p.xlsx,instructions\0-BACK.png,"(15, 8)",practice,0,3,stim\gray.png,stim\gray.png,stim\yellow.png,stim\gray.png,right,0,0,0,0,0,0,0,0,0,13,13,13,,,,,,,,,,,,,,,,,,,,,,,,,,,38.788773700012825,39.79039430001285,38.788773700012825,39.79039430001285,38.788773700012825,39.79039430001285,38.788773700012825,39.79039430001285,right,1,0.3547658999450505,38.788773700012825,None,38.788773700012825,None,38.788773700012825,39.2896462000208,38.788773700012825,39.2896462000208,38.788773700012825,39.2896462000208,38.788773700012825,39.2896462000208,38.788773700012825,None,,,,,,,,,,,,,,,,,,,,,,,,,,,,,,,,,,,,,,,,,,12006,001,2024_Jun_13_1739,nback,2021.2.3,59.503231308789424,
0-back,instructions\back-0.png,conditions\0back-p.xlsx,instructions\0-BACK.png,"(15, 8)",practice,0,1,stim\yellow.png,stim\gray.png,stim\gray.png,stim\gray.png,up,0,0,0,0,0,0,0,0,0,14,14,14,,,,,,,,,,,,,,,,,,,,,,,,,,,40.27440160000697,41.27711080003064,40.27440160000697,41.27711080003064,40.27440160000697,41.27711080003064,40.27440160000697,41.27711080003064,up,1,0.3254865000490099,40.27440160000697,None,40.27440160000697,None,40.27440160000697,40.77603840001393,40.27440160000697,40.77603840001393,40.27440160000697,40.77603840001393,40.27440160000697,40.77603840001393,40.27440160000697,None,,,,,,,,,,,,,,,,,,,,,,,,,,,,,,,,,,,,,,,,,,12006,001,2024_Jun_13_1739,nback,2021.2.3,59.503231308789424,
0-back,instructions\back-0.png,conditions\0back-p.xlsx,instructions\0-BACK.png,"(15, 8)",practice,0,2,stim\gray.png,stim\yellow.png,stim\gray.png,stim\gray.png,left,0,0,0,0,0,0,0,0,0,15,15,15,,,,,,,,,,,,,,,,,,,,,,,,,,,41.776488599949516,42.77813150000293,41.776488599949516,42.77813150000293,41.776488599949516,42.77813150000293,41.776488599949516,42.77813150000293,left,1,0.3597229999722913,41.776488599949516,None,41.776488599949516,None,41.776488599949516,42.27833230001852,41.776488599949516,42.27833230001852,41.776488599949516,42.27833230001852,41.776488599949516,42.27833230001852,41.776488599949516,None,,,,,,,,,,,,,,,,,,,,,,,,,,,,,,,,,,,,,,,,,,12006,001,2024_Jun_13_1739,nback,2021.2.3,59.503231308789424,
0-back,instructions\back-0.png,conditions\0back-p.xlsx,instructions\0-BACK.png,"(15, 8)",practice,0,3,stim\gray.png,stim\gray.png,stim\yellow.png,stim\gray.png,right,0,0,0,0,0,0,0,0,0,16,16,16,,,,,,,,,,,,,,,,,,,,,,,,,,,43.27887009992264,44.28123899991624,43.27887009992264,44.28123899991624,43.27887009992264,44.28123899991624,43.27887009992264,44.28123899991624,right,1,0.29646430001594126,43.27887009992264,None,43.27887009992264,None,43.27887009992264,43.77964860002976,43.27887009992264,43.77964860002976,43.27887009992264,43.77964860002976,43.27887009992264,43.77964860002976,43.27887009992264,None,,,,,,,,,,,,,,,,,,,,,,,,,,,,,,,,,,,,,,,,,,12006,001,2024_Jun_13_1739,nback,2021.2.3,59.503231308789424,
0-back,instructions\back-0.png,conditions\0back-p.xlsx,instructions\0-BACK.png,"(15, 8)",practice,0,1,stim\yellow.png,stim\gray.png,stim\gray.png,stim\gray.png,up,0,0,0,0,0,0,0,0,0,17,17,17,,,,,,,,,,,,,,,,,,,,,,,,,,,44.78120750002563,45.78275479993317,44.78120750002563,45.78275479993317,44.78120750002563,45.78275479993317,44.78120750002563,45.78275479993317,up,1,0.34623550006654114,44.78120750002563,None,44.78120750002563,None,44.78120750002563,45.282566000008956,44.78120750002563,45.282566000008956,44.78120750002563,45.282566000008956,44.78120750002563,45.282566000008956,44.78120750002563,None,,,,,,,,,,,,,,,,,,,,,,,,,,,,,,,,,,,,,,,,,,12006,001,2024_Jun_13_1739,nback,2021.2.3,59.503231308789424,
0-back,instructions\back-0.png,conditions\0back-p.xlsx,instructions\0-BACK.png,"(15, 8)",practice,0,4,stim\gray.png,stim\gray.png,stim\gray.png,stim\yellow.png,down,0,0,0,0,0,0,0,0,0,18,18,18,,,,,,,,,,,,,,,,,,,,,,,,,,,46.2842079999391,47.285584099940024,46.2842079999391,47.285584099940024,46.2842079999391,47.285584099940024,46.2842079999391,47.285584099940024,down,1,0.4592029999475926,46.2842079999391,None,46.2842079999391,None,46.2842079999391,46.78512130002491,46.2842079999391,46.78512130002491,46.2842079999391,46.78512130002491,46.2842079999391,46.78512130002491,46.2842079999391,None,,,,,,,,,,,,,,,,,,,,,,,,,,,,,,,,,,,,,,,,,,12006,001,2024_Jun_13_1739,nback,2021.2.3,59.503231308789424,
0-back,instructions\back-0.png,conditions\0back-p.xlsx,instructions\0-BACK.png,"(15, 8)",practice,0,2,stim\gray.png,stim\yellow.png,stim\gray.png,stim\gray.png,left,0,0,0,0,0,0,0,0,0,19,19,19,,,,,,,,,,,,,,,,,,,,,,,,,,,47.78569599997718,48.787077000015415,47.78569599997718,48.787077000015415,47.78569599997718,48.787077000015415,47.78569599997718,48.787077000015415,left,1,0.3344059999799356,47.78569599997718,None,47.78569599997718,None,47.78569599997718,48.28711499995552,47.78569599997718,48.28711499995552,47.78569599997718,48.28711499995552,47.78569599997718,48.28711499995552,47.78569599997718,None,,,,,,,,,,,,,,,,,,,,,,,,,,,,,,,,,,,,,,,,,,12006,001,2024_Jun_13_1739,nback,2021.2.3,59.503231308789424,
0-back,instructions\back-0.png,conditions\0back-p.xlsx,instructions\0-BACK.png,"(15, 8)",,,,,,,,,0,0,0,0,0,0,0,0,,,,,,,,,,,,,,,,,,,,,,,,,,,,,,,,,,,,,,,,,,,,,,,,,,,,,,,,,,,,,,,,,,,,,,,,,,,,,,,,,,,,,,,,,,,,,,,,,12006,001,2024_Jun_13_1739,nback,2021.2.3,59.503231308789424,
1-back,instructions\back-1.png,conditions\1back-p.xlsx,instructions\1-BACK.png,"(25, 15)",practice,1,1,stim\yellow.png,stim\gray.png,stim\gray.png,stim\gray.png,None,0,0,0,0,0,1,1,1,0,0,0,0,,,,,,,,,,,,,,,,,49.47141559992451,None,space,8.779875900014304,49.47141559992451,None,58.434389299945906,62.94271019997541,62.925205799983814,None,63.29498160001822,64.31082210002933,63.29498160001822,64.31082210002933,63.29498160001822,64.31082210002933,63.29498160001822,64.31082210002933,None,1,,63.29498160001822,None,63.29498160001822,None,63.29498160001822,63.81015999999363,63.29498160001822,63.81015999999363,63.29498160001822,63.81015999999363,63.29498160001822,63.81015999999363,63.29498160001822,None,,,,,,,,,,,,,,,,,,,,,,,,,,,,,,,,,,,,,,,,,,12006,001,2024_Jun_13_1739,nback,2021.2.3,59.503231308789424,
1-back,instructions\back-1.png,conditions\1back-p.xlsx,instructions\1-BACK.png,"(25, 15)",practice,1,2,stim\gray.png,stim\yellow.png,stim\gray.png,stim\gray.png,up,0,0,0,0,0,1,1,1,0,1,1,1,,,,,,,,,,,,,,,,,,,,,,,,,,,64.77793729992118,65.77958480000962,64.77793729992118,65.77958480000962,64.77793729992118,65.77958480000962,64.77793729992118,65.77958480000962,up,1,0.4222402001032606,64.77793729992118,None,64.77793729992118,None,64.77793729992118,65.27881139994133,64.77793729992118,65.27881139994133,64.77793729992118,65.27881139994133,64.77793729992118,65.27881139994133,64.77793729992118,None,,,,,,,,,,,,,,,,,,,,,,,,,,,,,,,,,,,,,,,,,,12006,001,2024_Jun_13_1739,nback,2021.2.3,59.503231308789424,
1-back,instructions\back-1.png,conditions\1back-p.xlsx,instructions\1-BACK.png,"(25, 15)",practice,1,3,stim\gray.png,stim\gray.png,stim\yellow.png,stim\gray.png,left,0,0,0,0,0,1,1,1,0,2,2,2,,,,,,,,,,,,,,,,,,,,,,,,,,,66.28018160001375,67.28281429992057,66.28018160001375,67.28281429992057,66.28018160001375,67.28281429992057,66.28018160001375,67.28281429992057,left,1,0.4961407999508083,66.28018160001375,None,66.28018160001375,None,66.28018160001375,66.78103389998432,66.28018160001375,66.78103389998432,66.28018160001375,66.78103389998432,66.28018160001375,66.78103389998432,66.28018160001375,None,,,,,,,,,,,,,,,,,,,,,,,,,,,,,,,,,,,,,,,,,,12006,001,2024_Jun_13_1739,nback,2021.2.3,59.503231308789424,
1-back,instructions\back-1.png,conditions\1back-p.xlsx,instructions\1-BACK.png,"(25, 15)",practice,1,4,stim\gray.png,stim\gray.png,stim\gray.png,stim\yellow.png,right,0,0,0,0,0,1,1,1,0,3,3,3,,,,,,,,,,,,,,,,,,,,,,,,,,,67.78251149994321,68.78392989991698,67.78251149994321,68.78392989991698,67.78251149994321,68.78392989991698,67.78251149994321,68.78392989991698,right,1,0.4418757999083027,67.78251149994321,None,67.78251149994321,None,67.78251149994321,68.28318689996377,67.78251149994321,68.28318689996377,67.78251149994321,68.28318689996377,67.78251149994321,68.28318689996377,67.78251149994321,None,,,,,,,,,,,,,,,,,,,,,,,,,,,,,,,,,,,,,,,,,,12006,001,2024_Jun_13_1739,nback,2021.2.3,59.503231308789424,
1-back,instructions\back-1.png,conditions\1back-p.xlsx,instructions\1-BACK.png,"(25, 15)",practice,1,2,stim\gray.png,stim\yellow.png,stim\gray.png,stim\gray.png,down,0,0,0,0,0,1,1,1,0,4,4,4,,,,,,,,,,,,,,,,,,,,,,,,,,,69.28480030002538,70.2868904999923,69.28480030002538,70.2868904999923,69.28480030002538,70.2868904999923,69.28480030002538,70.2868904999923,down,1,0.347367100068368,69.28480030002538,None,69.28480030002538,None,69.28480030002538,69.78537269996013,69.28480030002538,69.78537269996013,69.28480030002538,69.78537269996013,69.28480030002538,69.78537269996013,69.28480030002538,None,,,,,,,,,,,,,,,,,,,,,,,,,,,,,,,,,,,,,,,,,,12006,001,2024_Jun_13_1739,nback,2021.2.3,59.503231308789424,
1-back,instructions\back-1.png,conditions\1back-p.xlsx,instructions\1-BACK.png,"(25, 15)",practice,1,1,stim\yellow.png,stim\gray.png,stim\gray.png,stim\gray.png,left,0,0,0,0,0,1,1,1,0,5,5,5,,,,,,,,,,,,,,,,,,,,,,,,,,,70.78717089991551,71.78942519996781,70.78717089991551,71.78942519996781,70.78717089991551,71.78942519996781,70.78717089991551,71.78942519996781,left,1,0.17309379996731877,70.78717089991551,None,70.78717089991551,None,70.78717089991551,71.28766609996092,70.78717089991551,71.28766609996092,70.78717089991551,71.28766609996092,70.78717089991551,71.28766609996092,70.78717089991551,None,,,,,,,,,,,,,,,,,,,,,,,,,,,,,,,,,,,,,,,,,,12006,001,2024_Jun_13_1739,nback,2021.2.3,59.503231308789424,
1-back,instructions\back-1.png,conditions\1back-p.xlsx,instructions\1-BACK.png,"(25, 15)",practice,1,4,stim\gray.png,stim\gray.png,stim\gray.png,stim\yellow.png,up,0,0,0,0,0,1,1,1,0,6,6,6,,,,,,,,,,,,,,,,,,,,,,,,,,,72.27266170002986,73.27503489993978,72.27266170002986,73.27503489993978,72.27266170002986,73.27503489993978,72.27266170002986,73.27503489993978,up,1,0.20741989999078214,72.27266170002986,None,72.27266170002986,None,72.27266170002986,72.77439629996661,72.27266170002986,72.77439629996661,72.27266170002986,72.77439629996661,72.27266170002986,72.77439629996661,72.27266170002986,None,,,,,,,,,,,,,,,,,,,,,,,,,,,,,,,,,,,,,,,,,,12006,001,2024_Jun_13_1739,nback,2021.2.3,59.503231308789424,
1-back,instructions\back-1.png,conditions\1back-p.xlsx,instructions\1-BACK.png,"(25, 15)",practice,1,3,stim\gray.png,stim\gray.png,stim\yellow.png,stim\gray.png,down,0,0,0,0,0,1,1,1,0,7,7,7,,,,,,,,,,,,,,,,,,,,,,,,,,,73.77517529996112,74.77695580001455,73.77517529996112,74.77695580001455,73.77517529996112,74.77695580001455,73.77517529996112,74.77695580001455,down,1,0.1528172999387607,73.77517529996112,None,73.77517529996112,None,73.77517529996112,74.27566799998749,73.77517529996112,74.27566799998749,73.77517529996112,74.27566799998749,73.77517529996112,74.27566799998749,73.77517529996112,None,,,,,,,,,,,,,,,,,,,,,,,,,,,,,,,,,,,,,,,,,,12006,001,2024_Jun_13_1739,nback,2021.2.3,59.503231308789424,
1-back,instructions\back-1.png,conditions\1back-p.xlsx,instructions\1-BACK.png,"(25, 15)",practice,1,3,stim\gray.png,stim\gray.png,stim\yellow.png,stim\gray.png,right,0,0,0,0,0,1,1,1,0,8,8,8,,,,,,,,,,,,,,,,,,,,,,,,,,,75.27841139992233,76.27976459998172,75.27841139992233,76.27976459998172,75.27841139992233,76.27976459998172,75.27841139992233,76.27976459998172,right,1,0.20171739999204874,75.27841139992233,None,75.27841139992233,None,75.27841139992233,75.77824689995032,75.27841139992233,75.77824689995032,75.27841139992233,75.77824689995032,75.27841139992233,75.77824689995032,75.27841139992233,None,,,,,,,,,,,,,,,,,,,,,,,,,,,,,,,,,,,,,,,,,,12006,001,2024_Jun_13_1739,nback,2021.2.3,59.503231308789424,
1-back,instructions\back-1.png,conditions\1back-p.xlsx,instructions\1-BACK.png,"(25, 15)",practice,1,4,stim\gray.png,stim\gray.png,stim\gray.png,stim\yellow.png,right,0,0,0,0,0,1,1,1,0,9,9,9,,,,,,,,,,,,,,,,,,,,,,,,,,,76.77958979993127,77.78172999992967,76.77958979993127,77.78172999992967,76.77958979993127,77.78172999992967,76.77958979993127,77.78172999992967,right,1,0.13266900007147342,76.77958979993127,None,76.77958979993127,None,76.77958979993127,77.28031259996351,76.77958979993127,77.28031259996351,76.77958979993127,77.28031259996351,76.77958979993127,77.28031259996351,76.77958979993127,None,,,,,,,,,,,,,,,,,,,,,,,,,,,,,,,,,,,,,,,,,,12006,001,2024_Jun_13_1739,nback,2021.2.3,59.503231308789424,
1-back,instructions\back-1.png,conditions\1back-p.xlsx,instructions\1-BACK.png,"(25, 15)",practice,1,1,stim\yellow.png,stim\gray.png,stim\gray.png,stim\gray.png,down,0,0,0,0,0,1,1,1,0,10,10,10,,,,,,,,,,,,,,,,,,,,,,,,,,,78.2818364999257,79.28326749999542,78.2818364999257,79.28326749999542,78.2818364999257,79.28326749999542,78.2818364999257,79.28326749999542,down,1,0.08628649997990578,78.2818364999257,None,78.2818364999257,None,78.2818364999257,78.78301080001984,78.2818364999257,78.78301080001984,78.2818364999257,78.78301080001984,78.2818364999257,78.78301080001984,78.2818364999257,None,,,,,,,,,,,,,,,,,,,,,,,,,,,,,,,,,,,,,,,,,,12006,001,2024_Jun_13_1739,nback,2021.2.3,59.503231308789424,
1-back,instructions\back-1.png,conditions\1back-p.xlsx,instructions\1-BACK.png,"(25, 15)",practice,1,2,stim\gray.png,stim\yellow.png,stim\gray.png,stim\gray.png,up,0,0,0,0,0,1,1,1,0,11,11,11,,,,,,,,,,,,,,,,,,,,,,,,,,,79.78384399996139,80.78766889998224,79.78384399996139,80.78766889998224,79.78384399996139,80.78766889998224,79.78384399996139,80.78766889998224,up,1,0.008759699994698167,79.78384399996139,None,79.78384399996139,None,79.78384399996139,80.28582909994293,79.78384399996139,80.28582909994293,79.78384399996139,80.28582909994293,79.78384399996139,80.28582909994293,79.78384399996139,None,,,,,,,,,,,,,,,,,,,,,,,,,,,,,,,,,,,,,,,,,,12006,001,2024_Jun_13_1739,nback,2021.2.3,59.503231308789424,
1-back,instructions\back-1.png,conditions\1back-p.xlsx,instructions\1-BACK.png,"(25, 15)",practice,1,4,stim\gray.png,stim\gray.png,stim\gray.png,stim\yellow.png,left,0,0,0,0,0,1,1,1,0,12,12,12,,,,,,,,,,,,,,,,,,,,,,,,,,,81.28698779991828,82.28773139999248,81.28698779991828,82.28773139999248,81.28698779991828,82.28773139999248,81.28698779991828,82.28773139999248,left,1,0.05755749996751547,81.28698779991828,None,81.28698779991828,None,81.28698779991828,81.78695939993486,81.28698779991828,81.78695939993486,81.28698779991828,81.78695939993486,81.28698779991828,81.78695939993486,81.28698779991828,None,,,,,,,,,,,,,,,,,,,,,,,,,,,,,,,,,,,,,,,,,,12006,001,2024_Jun_13_1739,nback,2021.2.3,59.503231308789424,
1-back,instructions\back-1.png,conditions\1back-p.xlsx,instructions\1-BACK.png,"(25, 15)",practice,1,3,stim\gray.png,stim\gray.png,stim\yellow.png,stim\gray.png,down,0,0,0,0,0,1,1,1,0,13,13,13,,,,,,,,,,,,,,,,,,,,,,,,,,,82.78996690001804,83.79005559999496,82.78996690001804,83.79005559999496,82.78996690001804,83.79005559999496,82.78996690001804,83.79005559999496,down,1,0.1384717000182718,82.78996690001804,None,82.78996690001804,None,82.78996690001804,83.28936039994005,82.78996690001804,83.28936039994005,82.78996690001804,83.28936039994005,82.78996690001804,83.28936039994005,82.78996690001804,None,,,,,,,,,,,,,,,,,,,,,,,,,,,,,,,,,,,,,,,,,,12006,001,2024_Jun_13_1739,nback,2021.2.3,59.503231308789424,
1-back,instructions\back-1.png,conditions\1back-p.xlsx,instructions\1-BACK.png,"(25, 15)",practice,1,1,stim\yellow.png,stim\gray.png,stim\gray.png,stim\gray.png,right,0,0,0,0,0,1,1,1,0,14,14,14,,,,,,,,,,,,,,,,,,,,,,,,,,,84.27392720000353,85.27636629994959,84.27392720000353,85.27636629994959,84.27392720000353,85.27636629994959,84.27392720000353,85.27636629994959,right,1,0.07080509990919381,84.27392720000353,None,84.27392720000353,None,84.27392720000353,84.77581819996703,84.27392720000353,84.77581819996703,84.27392720000353,84.77581819996703,84.27392720000353,84.77581819996703,84.27392720000353,None,,,,,,,,,,,,,,,,,,,,,,,,,,,,,,,,,,,,,,,,,,12006,001,2024_Jun_13_1739,nback,2021.2.3,59.503231308789424,
1-back,instructions\back-1.png,conditions\1back-p.xlsx,instructions\1-BACK.png,"(25, 15)",practice,1,2,stim\gray.png,stim\yellow.png,stim\gray.png,stim\gray.png,up,0,0,0,0,0,1,1,1,0,15,15,15,,,,,,,,,,,,,,,,,,,,,,,,,,,85.77630149992183,86.7787079999689,85.77630149992183,86.7787079999689,85.77630149992183,86.7787079999689,85.77630149992183,86.7787079999689,None,0,,85.77630149992183,None,85.77630149992183,None,85.77630149992183,86.27782329998445,85.77630149992183,86.27782329998445,85.77630149992183,86.27782329998445,85.77630149992183,86.27782329998445,85.77630149992183,None,,,,,,,,,,,,,,,,,,,,,,,,,,,,,,,,,,,,,,,,,,12006,001,2024_Jun_13_1739,nback,2021.2.3,59.503231308789424,
1-back,instructions\back-1.png,conditions\1back-p.xlsx,instructions\1-BACK.png,"(25, 15)",practice,1,3,stim\gray.png,stim\gray.png,stim\yellow.png,stim\gray.png,left,0,0,0,0,0,1,1,1,0,16,16,16,,,,,,,,,,,,,,,,,,,,,,,,,,,87.2793106000172,88.2800917000277,87.2793106000172,88.2800917000277,87.2793106000172,88.2800917000277,87.2793106000172,88.2800917000277,right,0,1.4012796999886632,87.2793106000172,None,87.2793106000172,None,87.2793106000172,87.78031349997036,87.2793106000172,87.78031349997036,87.2793106000172,87.78031349997036,87.2793106000172,87.78031349997036,87.2793106000172,None,,,,,,,,,,,,,,,,,,,,,,,,,,,,,,,,,,,,,,,,,,12006,001,2024_Jun_13_1739,nback,2021.2.3,59.503231308789424,
1-back,instructions\back-1.png,conditions\1back-p.xlsx,instructions\1-BACK.png,"(25, 15)",practice,1,1,stim\yellow.png,stim\gray.png,stim\gray.png,stim\gray.png,right,0,0,0,0,0,1,1,1,0,17,17,17,,,,,,,,,,,,,,,,,,,,,,,,,,,88.78084749996196,89.78227909991983,88.78084749996196,89.78227909991983,88.78084749996196,89.78227909991983,88.78084749996196,89.78227909991983,up,0,1.3794591999612749,88.78084749996196,None,88.78084749996196,None,88.78084749996196,89.28252519993111,88.78084749996196,89.28252519993111,88.78084749996196,89.28252519993111,88.78084749996196,89.28252519993111,88.78084749996196,None,,,,,,,,,,,,,,,,,,,,,,,,,,,,,,,,,,,,,,,,,,12006,001,2024_Jun_13_1739,nback,2021.2.3,59.503231308789424,
1-back,instructions\back-1.png,conditions\1back-p.xlsx,instructions\1-BACK.png,"(25, 15)",practice,1,4,stim\gray.png,stim\gray.png,stim\gray.png,stim\yellow.png,up,0,0,0,0,0,1,1,1,0,18,18,18,,,,,,,,,,,,,,,,,,,,,,,,,,,90.28315219993237,91.28599150001537,90.28315219993237,91.28599150001537,90.28315219993237,91.28599150001537,90.28315219993237,91.28599150001537,down,0,1.1893436000682414,90.28315219993237,None,90.28315219993237,None,90.28315219993237,90.78388699993957,90.28315219993237,90.78388699993957,90.28315219993237,90.78388699993957,90.28315219993237,90.78388699993957,90.28315219993237,None,,,,,,,,,,,,,,,,,,,,,,,,,,,,,,,,,,,,,,,,,,12006,001,2024_Jun_13_1739,nback,2021.2.3,59.503231308789424,
1-back,instructions\back-1.png,conditions\1back-p.xlsx,instructions\1-BACK.png,"(25, 15)",practice,1,2,stim\gray.png,stim\yellow.png,stim\gray.png,stim\gray.png,down,0,0,0,0,0,1,1,1,0,19,19,19,,,,,,,,,,,,,,,,,,,,,,,,,,,91.7855890999781,92.78697499993723,91.7855890999781,92.78697499993723,91.7855890999781,92.78697499993723,91.7855890999781,92.78697499993723,None,0,,91.7855890999781,None,91.7855890999781,None,91.7855890999781,92.28676509996876,91.7855890999781,92.28676509996876,91.7855890999781,92.28676509996876,91.7855890999781,92.28676509996876,91.7855890999781,None,,,,,,,,,,,,,,,,,,,,,,,,,,,,,,,,,,,,,,,,,,12006,001,2024_Jun_13_1739,nback,2021.2.3,59.503231308789424,
1-back,instructions\back-1.png,conditions\1back-p.xlsx,instructions\1-BACK.png,"(25, 15)",,,,,,,,,0,0,0,0,0,1,1,1,,,,,,,,,,,,,,,,,,,,,,,,,,,,,,,,,,,,,,,,,,,,,,,,,,,,,,,,,,,,,,,,,,,,,,,,,,,,,,,,,,,,,,,,,,,,,,,,,12006,001,2024_Jun_13_1739,nback,2021.2.3,59.503231308789424,
2-back,instructions\back-2.png,conditions\2back-p.xlsx,instructions\2-BACK.png,"(25, 15)",practice,2,1,stim\yellow.png,stim\gray.png,stim\gray.png,stim\gray.png,None,0,0,0,0,0,2,2,2,0,0,0,0,,,,,,,,,,,,,,,,,93.48783429991454,None,space,28.07767769997008,93.48783429991454,None,121.76383099996019,126.27104869997129,126.20465049997438,None,126.60631429997738,127.60718859999906,126.60631429997738,127.60718859999906,126.60631429997738,127.60718859999906,126.60631429997738,127.60718859999906,None,1,,126.60631429997738,None,126.60631429997738,None,126.60631429997738,127.12291529995855,126.60631429997738,127.12291529995855,126.60631429997738,127.12291529995855,126.60631429997738,127.12291529995855,126.60631429997738,None,,,,,,,,,,,,,,,,,,,,,,,,,,,,,,,,,,,,,,,,,,12006,001,2024_Jun_13_1739,nback,2021.2.3,59.503231308789424,
2-back,instructions\back-2.png,conditions\2back-p.xlsx,instructions\2-BACK.png,"(25, 15)",practice,2,2,stim\gray.png,stim\yellow.png,stim\gray.png,stim\gray.png,None,0,0,0,0,0,2,2,2,0,1,1,1,,,,,,,,,,,,,,,,,,,,,,,,,,,128.0901510999538,129.09165369998664,128.0901510999538,129.09165369998664,128.0901510999538,129.09165369998664,128.0901510999538,129.09165369998664,None,1,,128.0901510999538,None,128.0901510999538,None,128.0901510999538,128.59088969998993,128.0901510999538,128.59088969998993,128.0901510999538,128.59088969998993,128.0901510999538,128.59088969998993,128.0901510999538,None,,,,,,,,,,,,,,,,,,,,,,,,,,,,,,,,,,,,,,,,,,12006,001,2024_Jun_13_1739,nback,2021.2.3,59.503231308789424,
2-back,instructions\back-2.png,conditions\2back-p.xlsx,instructions\2-BACK.png,"(25, 15)",practice,2,3,stim\gray.png,stim\gray.png,stim\yellow.png,stim\gray.png,up,0,0,0,0,0,2,2,2,0,2,2,2,,,,,,,,,,,,,,,,,,,,,,,,,,,129.59228520002216,130.59609100001398,129.59228520002216,130.59609100001398,129.59228520002216,130.59609100001398,129.59228520002216,130.59609100001398,up,1,0.6652844999916852,129.59228520002216,None,129.59228520002216,None,129.59228520002216,130.09323939995375,129.59228520002216,130.09323939995375,129.59228520002216,130.09323939995375,129.59228520002216,130.09323939995375,129.59228520002216,None,,,,,,,,,,,,,,,,,,,,,,,,,,,,,,,,,,,,,,,,,,12006,001,2024_Jun_13_1739,nback,2021.2.3,59.503231308789424,
2-back,instructions\back-2.png,conditions\2back-p.xlsx,instructions\2-BACK.png,"(25, 15)",practice,2,4,stim\gray.png,stim\gray.png,stim\gray.png,stim\yellow.png,left,0,0,0,0,0,2,2,2,0,3,3,3,,,,,,,,,,,,,,,,,,,,,,,,,,,131.09457840002142,132.09714219998568,131.09457840002142,132.09714219998568,131.09457840002142,132.09714219998568,131.09457840002142,132.09714219998568,left,1,0.5232433000346646,131.09457840002142,None,131.09457840002142,None,131.09457840002142,131.59616449999157,131.09457840002142,131.59616449999157,131.09457840002142,131.59616449999157,131.09457840002142,131.59616449999157,131.09457840002142,None,,,,,,,,,,,,,,,,,,,,,,,,,,,,,,,,,,,,,,,,,,12006,001,2024_Jun_13_1739,nback,2021.2.3,59.503231308789424,
2-back,instructions\back-2.png,conditions\2back-p.xlsx,instructions\2-BACK.png,"(25, 15)",practice,2,2,stim\gray.png,stim\yellow.png,stim\gray.png,stim\gray.png,right,0,0,0,0,0,2,2,2,0,4,4,4,,,,,,,,,,,,,,,,,,,,,,,,,,,132.59707739995793,133.60639510001056,132.59707739995793,133.60639510001056,132.59707739995793,133.60639510001056,132.59707739995793,133.60639510001056,right,1,0.3483047999907285,132.59707739995793,None,132.59707739995793,None,132.59707739995793,133.09820379992016,132.59707739995793,133.09820379992016,132.59707739995793,133.09820379992016,132.59707739995793,133.09820379992016,132.59707739995793,None,,,,,,,,,,,,,,,,,,,,,,,,,,,,,,,,,,,,,,,,,,12006,001,2024_Jun_13_1739,nback,2021.2.3,59.503231308789424,
2-back,instructions\back-2.png,conditions\2back-p.xlsx,instructions\2-BACK.png,"(25, 15)",practice,2,1,stim\yellow.png,stim\gray.png,stim\gray.png,stim\gray.png,down,0,0,0,0,0,2,2,2,0,5,5,5,,,,,,,,,,,,,,,,,,,,,,,,,,,134.0992297999328,135.10159420000855,134.0992297999328,135.10159420000855,134.0992297999328,135.10159420000855,134.0992297999328,135.10159420000855,down,1,0.16700889996718615,134.0992297999328,None,134.0992297999328,None,134.0992297999328,134.60080289992038,134.0992297999328,134.60080289992038,134.0992297999328,134.60080289992038,134.0992297999328,134.60080289992038,134.0992297999328,None,,,,,,,,,,,,,,,,,,,,,,,,,,,,,,,,,,,,,,,,,,12006,001,2024_Jun_13_1739,nback,2021.2.3,59.503231308789424,
2-back,instructions\back-2.png,conditions\2back-p.xlsx,instructions\2-BACK.png,"(25, 15)",practice,2,4,stim\gray.png,stim\gray.png,stim\gray.png,stim\yellow.png,left,0,0,0,0,0,2,2,2,0,6,6,6,,,,,,,,,,,,,,,,,,,,,,,,,,,135.5848787999712,136.58741279994138,135.5848787999712,136.58741279994138,135.5848787999712,136.58741279994138,135.5848787999712,136.58741279994138,left,1,0.4250050999689847,135.5848787999712,None,135.5848787999712,None,135.5848787999712,136.0862859999761,135.5848787999712,136.0862859999761,135.5848787999712,136.0862859999761,135.5848787999712,136.0862859999761,135.5848787999712,None,,,,,,,,,,,,,,,,,,,,,,,,,,,,,,,,,,,,,,,,,,12006,001,2024_Jun_13_1739,nback,2021.2.3,59.503231308789424,
2-back,instructions\back-2.png,conditions\2back-p.xlsx,instructions\2-BACK.png,"(25, 15)",practice,2,3,stim\gray.png,stim\gray.png,stim\yellow.png,stim\gray.png,up,0,0,0,0,0,2,2,2,0,7,7,7,,,,,,,,,,,,,,,,,,,,,,,,,,,137.0868736000266,138.08873239997774,137.0868736000266,138.08873239997774,137.0868736000266,138.08873239997774,137.0868736000266,138.08873239997774,up,1,0.25127909996081144,137.0868736000266,None,137.0868736000266,None,137.0868736000266,137.58788070001174,137.0868736000266,137.58788070001174,137.0868736000266,137.58788070001174,137.0868736000266,137.58788070001174,137.0868736000266,None,,,,,,,,,,,,,,,,,,,,,,,,,,,,,,,,,,,,,,,,,,12006,001,2024_Jun_13_1739,nback,2021.2.3,59.503231308789424,
2-back,instructions\back-2.png,conditions\2back-p.xlsx,instructions\2-BACK.png,"(25, 15)",practice,2,3,stim\gray.png,stim\gray.png,stim\yellow.png,stim\gray.png,down,0,0,0,0,0,2,2,2,0,8,8,8,,,,,,,,,,,,,,,,,,,,,,,,,,,138.59045339992736,139.59089089999907,138.59045339992736,139.59089089999907,138.59045339992736,139.59089089999907,138.59045339992736,139.59089089999907,down,1,0.2357406000373885,138.59045339992736,None,138.59045339992736,None,138.59045339992736,139.08993569994345,138.59045339992736,139.08993569994345,138.59045339992736,139.08993569994345,138.59045339992736,139.08993569994345,138.59045339992736,None,,,,,,,,,,,,,,,,,,,,,,,,,,,,,,,,,,,,,,,,,,12006,001,2024_Jun_13_1739,nback,2021.2.3,59.503231308789424,
2-back,instructions\back-2.png,conditions\2back-p.xlsx,instructions\2-BACK.png,"(25, 15)",practice,2,4,stim\gray.png,stim\gray.png,stim\gray.png,stim\yellow.png,right,0,0,0,0,0,2,2,2,0,9,9,9,,,,,,,,,,,,,,,,,,,,,,,,,,,140.09166369994637,141.09321790002286,140.09166369994637,141.09321790002286,140.09166369994637,141.09321790002286,140.09166369994637,141.09321790002286,right,1,0.16688140004407614,140.09166369994637,None,140.09166369994637,None,140.09166369994637,140.59246910002548,140.09166369994637,140.59246910002548,140.09166369994637,140.59246910002548,140.09166369994637,140.59246910002548,140.09166369994637,None,,,,,,,,,,,,,,,,,,,,,,,,,,,,,,,,,,,,,,,,,,12006,001,2024_Jun_13_1739,nback,2021.2.3,59.503231308789424,
2-back,instructions\back-2.png,conditions\2back-p.xlsx,instructions\2-BACK.png,"(25, 15)",practice,2,1,stim\yellow.png,stim\gray.png,stim\gray.png,stim\gray.png,right,0,0,0,0,0,2,2,2,0,10,10,10,,,,,,,,,,,,,,,,,,,,,,,,,,,141.59369220002554,142.59663949999958,141.59369220002554,142.59663949999958,141.59369220002554,142.59663949999958,141.59369220002554,142.59663949999958,right,1,0.18441700004041195,141.59369220002554,None,141.59369220002554,None,141.59369220002554,142.0947766000172,141.59369220002554,142.0947766000172,141.59369220002554,142.0947766000172,141.59369220002554,142.0947766000172,141.59369220002554,None,,,,,,,,,,,,,,,,,,,,,,,,,,,,,,,,,,,,,,,,,,12006,001,2024_Jun_13_1739,nback,2021.2.3,59.503231308789424,
2-back,instructions\back-2.png,conditions\2back-p.xlsx,instructions\2-BACK.png,"(25, 15)",practice,2,2,stim\gray.png,stim\yellow.png,stim\gray.png,stim\gray.png,down,0,0,0,0,0,2,2,2,0,11,11,11,,,,,,,,,,,,,,,,,,,,,,,,,,,143.0960136000067,144.09733509994112,143.0960136000067,144.09733509994112,143.0960136000067,144.09733509994112,143.0960136000067,144.09733509994112,down,1,0.07380589994136244,143.0960136000067,None,143.0960136000067,None,143.0960136000067,143.59669909998775,143.0960136000067,143.59669909998775,143.0960136000067,143.59669909998775,143.0960136000067,143.59669909998775,143.0960136000067,None,,,,,,,,,,,,,,,,,,,,,,,,,,,,,,,,,,,,,,,,,,12006,001,2024_Jun_13_1739,nback,2021.2.3,59.503231308789424,
2-back,instructions\back-2.png,conditions\2back-p.xlsx,instructions\2-BACK.png,"(25, 15)",practice,2,4,stim\gray.png,stim\gray.png,stim\gray.png,stim\yellow.png,up,0,0,0,0,0,2,2,2,0,12,12,12,,,,,,,,,,,,,,,,,,,,,,,,,,,144.59812239999883,145.60017180000432,144.59812239999883,145.60017180000432,144.59812239999883,145.60017180000432,144.59812239999883,145.60017180000432,up,1,0.1319258000003174,144.59812239999883,None,144.59812239999883,None,144.59812239999883,145.0992270000279,144.59812239999883,145.0992270000279,144.59812239999883,145.0992270000279,144.59812239999883,145.0992270000279,144.59812239999883,None,,,,,,,,,,,,,,,,,,,,,,,,,,,,,,,,,,,,,,,,,,12006,001,2024_Jun_13_1739,nback,2021.2.3,59.503231308789424,
2-back,instructions\back-2.png,conditions\2back-p.xlsx,instructions\2-BACK.png,"(25, 15)",practice,2,3,stim\gray.png,stim\gray.png,stim\yellow.png,stim\gray.png,left,0,0,0,0,0,2,2,2,0,13,13,13,,,,,,,,,,,,,,,,,,,,,,,,,,,146.1015228999313,147.10288449993823,146.1015228999313,147.10288449993823,146.1015228999313,147.10288449993823,146.1015228999313,147.10288449993823,left,1,0.044553799903951585,146.1015228999313,None,146.1015228999313,None,146.1015228999313,146.6015117999632,146.1015228999313,146.6015117999632,146.1015228999313,146.6015117999632,146.1015228999313,146.6015117999632,146.1015228999313,None,,,,,,,,,,,,,,,,,,,,,,,,,,,,,,,,,,,,,,,,,,12006,001,2024_Jun_13_1739,nback,2021.2.3,59.503231308789424,
2-back,instructions\back-2.png,conditions\2back-p.xlsx,instructions\2-BACK.png,"(25, 15)",practice,2,1,stim\yellow.png,stim\gray.png,stim\gray.png,stim\gray.png,down,0,0,0,0,0,2,2,2,0,14,14,14,,,,,,,,,,,,,,,,,,,,,,,,,,,147.5860745999962,148.58786829991732,147.5860745999962,148.58786829991732,147.5860745999962,148.58786829991732,147.5860745999962,148.58786829991732,down,1,0.1600841999752447,147.5860745999962,None,147.5860745999962,None,147.5860745999962,148.08678899996448,147.5860745999962,148.08678899996448,147.5860745999962,148.08678899996448,147.5860745999962,148.08678899996448,147.5860745999962,None,,,,,,,,,,,,,,,,,,,,,,,,,,,,,,,,,,,,,,,,,,12006,001,2024_Jun_13_1739,nback,2021.2.3,59.503231308789424,
2-back,instructions\back-2.png,conditions\2back-p.xlsx,instructions\2-BACK.png,"(25, 15)",practice,2,2,stim\gray.png,stim\yellow.png,stim\gray.png,stim\gray.png,right,0,0,0,0,0,2,2,2,0,15,15,15,,,,,,,,,,,,,,,,,,,,,,,,,,,149.08901899994817,150.0912845999701,149.08901899994817,150.0912845999701,149.08901899994817,150.0912845999701,149.08901899994817,150.0912845999701,right,1,0.12979480007197708,149.08901899994817,None,149.08901899994817,None,149.08901899994817,149.58919829991646,149.08901899994817,149.58919829991646,149.08901899994817,149.58919829991646,149.08901899994817,149.58919829991646,149.08901899994817,None,,,,,,,,,,,,,,,,,,,,,,,,,,,,,,,,,,,,,,,,,,12006,001,2024_Jun_13_1739,nback,2021.2.3,59.503231308789424,
2-back,instructions\back-2.png,conditions\2back-p.xlsx,instructions\2-BACK.png,"(25, 15)",practice,2,3,stim\gray.png,stim\gray.png,stim\yellow.png,stim\gray.png,up,0,0,0,0,0,2,2,2,0,16,16,16,,,,,,,,,,,,,,,,,,,,,,,,,,,150.59075570001733,151.59214969992172,150.59075570001733,151.59214969992172,150.59075570001733,151.59214969992172,150.59075570001733,151.59214969992172,up,1,0.1961876000277698,150.59075570001733,None,150.59075570001733,None,150.59075570001733,151.09148579998873,150.59075570001733,151.09148579998873,150.59075570001733,151.09148579998873,150.59075570001733,151.09148579998873,150.59075570001733,None,,,,,,,,,,,,,,,,,,,,,,,,,,,,,,,,,,,,,,,,,,12006,001,2024_Jun_13_1739,nback,2021.2.3,59.503231308789424,
2-back,instructions\back-2.png,conditions\2back-p.xlsx,instructions\2-BACK.png,"(25, 15)",practice,2,1,stim\yellow.png,stim\gray.png,stim\gray.png,stim\gray.png,left,0,0,0,0,0,2,2,2,0,17,17,17,,,,,,,,,,,,,,,,,,,,,,,,,,,152.09297220001463,153.094345599995,152.09297220001463,153.094345599995,152.09297220001463,153.094345599995,152.09297220001463,153.094345599995,left,1,0.09328649996314198,152.09297220001463,None,152.09297220001463,None,152.09297220001463,152.59386519994587,152.09297220001463,152.59386519994587,152.09297220001463,152.59386519994587,152.09297220001463,152.59386519994587,152.09297220001463,None,,,,,,,,,,,,,,,,,,,,,,,,,,,,,,,,,,,,,,,,,,12006,001,2024_Jun_13_1739,nback,2021.2.3,59.503231308789424,
2-back,instructions\back-2.png,conditions\2back-p.xlsx,instructions\2-BACK.png,"(25, 15)",practice,2,4,stim\gray.png,stim\gray.png,stim\gray.png,stim\yellow.png,right,0,0,0,0,0,2,2,2,0,18,18,18,,,,,,,,,,,,,,,,,,,,,,,,,,,153.5950835000258,154.59679440001491,153.5950835000258,154.59679440001491,153.5950835000258,154.59679440001491,153.5950835000258,154.59679440001491,None,0,,153.5950835000258,None,153.5950835000258,None,153.5950835000258,154.09591049992014,153.5950835000258,154.09591049992014,153.5950835000258,154.09591049992014,153.5950835000258,154.09591049992014,153.5950835000258,None,,,,,,,,,,,,,,,,,,,,,,,,,,,,,,,,,,,,,,,,,,12006,001,2024_Jun_13_1739,nback,2021.2.3,59.503231308789424,
2-back,instructions\back-2.png,conditions\2back-p.xlsx,instructions\2-BACK.png,"(25, 15)",practice,2,2,stim\gray.png,stim\yellow.png,stim\gray.png,stim\gray.png,up,0,0,0,0,0,2,2,2,0,19,19,19,,,,,,,,,,,,,,,,,,,,,,,,,,,155.097546499921,156.0995575999841,155.097546499921,156.0995575999841,155.097546499921,156.0995575999841,155.097546499921,156.0995575999841,up,1,0.009338400093838573,155.097546499921,None,155.097546499921,None,155.097546499921,155.59876129997429,155.097546499921,155.59876129997429,155.097546499921,155.59876129997429,155.097546499921,155.59876129997429,155.097546499921,None,,,,,,,,,,,,,,,,,,,,,,,,,,,,,,,,,,,,,,,,,,12006,001,2024_Jun_13_1739,nback,2021.2.3,59.503231308789424,
2-back,instructions\back-2.png,conditions\2back-p.xlsx,instructions\2-BACK.png,"(25, 15)",,,,,,,,,0,0,0,0,0,2,2,2,,,,,,,,,,,,,,,,,,,,,,,,,,,,,,,,,,,,,,,,,,,,,,,,,,,,,,,,,,,,,,,,,,,,,,,,,,,,,,,,,,,,,,,,,,,,,,,,,12006,001,2024_Jun_13_1739,nback,2021.2.3,59.503231308789424,
,,,,,,,,,,,,,0,0,0,0,,,,,,,,,,,,,,,,,,,,,,,,,,,,,,,,,,,,,,,,,,,,,,,,,,,,,,,,,,,,156.59966690000147,None,space,5.473518899991177,156.59966690000147,None,,,,,,,,,,,,,,,,,,,,,,,,,,,,,,,,,,,,12006,001,2024_Jun_13_1739,nback,2021.2.3,59.503231308789424,
,,,,,,,,,,,,,,,,,,,,,,,,,,,,,,,,,,,,,,,,,,,,,,,,,,,,,,,,,,,,,,,,,,,,,,,,,,,,,,,,,,162.0913295999635,None,space,16.399638700066134,162.0913295999635,None,,,,,,,,,,,,,,,,,,,,,,,,,,,,,,12006,001,2024_Jun_13_1739,nback,2021.2.3,59.503231308789424,
1-back,instructions\back-1.png,conditions\12back-e.xlsx,,,experiment,1,2,stim\gray.png,stim\yellow.png,stim\gray.png,stim\gray.png,None,,,,,,,,,,,,,0,0,0,6,0,0,0,0,,,,,,,,,,,,,,,178.73279509996064,183.24079650000203,183.18994039995596,None,,,,,,,,,,,,,,,,,,,,,,,,,,,,,,,,,,,,,,None,1,183.54030480002984,None,183.54030480002984,None,183.54030480002984,184.5419953999808,183.54030480002984,184.5419953999808,183.54030480002984,184.5419953999808,183.54030480002984,184.5419953999808,183.54030480002984,184.0420199999353,183.54030480002984,184.0420199999353,183.54030480002984,184.0420199999353,183.54030480002984,184.0420199999353,183.54030480002984,None,,,,,,12006,001,2024_Jun_13_1739,nback,2021.2.3,59.503231308789424,
1-back,instructions\back-1.png,conditions\12back-e.xlsx,,,experiment,1,3,stim\gray.png,stim\gray.png,stim\yellow.png,stim\gray.png,left,,,,,,,,,,,,,0,0,0,6,0,1,1,1,,,,,,,,,,,,,,,,,,,,,,,,,,,,,,,,,,,,,,,,,,,,,,,,,,,,,,,,left,1,185.0258074000012,None,185.0258074000012,None,185.0258074000012,186.0279405999463,185.0258074000012,186.0279405999463,185.0258074000012,186.0279405999463,185.0258074000012,186.0279405999463,185.0258074000012,185.52671030000784,185.0258074000012,185.52671030000784,185.0258074000012,185.52671030000784,185.0258074000012,185.52671030000784,185.0258074000012,None,0.321132899960503,,,,,12006,001,2024_Jun_13_1739,nback,2021.2.3,59.503231308789424,
1-back,instructions\back-1.png,conditions\12back-e.xlsx,,,experiment,1,4,stim\gray.png,stim\gray.png,stim\gray.png,stim\yellow.png,right,,,,,,,,,,,,,0,0,0,6,0,2,2,2,,,,,,,,,,,,,,,,,,,,,,,,,,,,,,,,,,,,,,,,,,,,,,,,,,,,,,,,right,1,186.5282792999642,None,186.5282792999642,None,186.5282792999642,187.53010039997753,186.5282792999642,187.53010039997753,186.5282792999642,187.53010039997753,186.5282792999642,187.53010039997753,186.5282792999642,187.02915790001862,186.5282792999642,187.02915790001862,186.5282792999642,187.02915790001862,186.5282792999642,187.02915790001862,186.5282792999642,None,0.3865761000197381,,,,,12006,001,2024_Jun_13_1739,nback,2021.2.3,59.503231308789424,
1-back,instructions\back-1.png,conditions\12back-e.xlsx,,,experiment,1,3,stim\gray.png,stim\gray.png,stim\yellow.png,stim\gray.png,down,,,,,,,,,,,,,0,0,0,6,0,3,3,3,,,,,,,,,,,,,,,,,,,,,,,,,,,,,,,,,,,,,,,,,,,,,,,,,,,,,,,,down,1,188.0304983999813,None,188.0304983999813,None,188.0304983999813,189.03194549994078,188.0304983999813,189.03194549994078,188.0304983999813,189.03194549994078,188.0304983999813,189.03194549994078,188.0304983999813,188.5312116999412,188.0304983999813,188.5312116999412,188.0304983999813,188.5312116999412,188.0304983999813,188.5312116999412,188.0304983999813,None,0.397381899994798,,,,,12006,001,2024_Jun_13_1739,nback,2021.2.3,59.503231308789424,
1-back,instructions\back-1.png,conditions\12back-e.xlsx,,,experiment,1,1,stim\yellow.png,stim\gray.png,stim\gray.png,stim\gray.png,right,,,,,,,,,,,,,0,0,0,6,0,4,4,4,,,,,,,,,,,,,,,,,,,,,,,,,,,,,,,,,,,,,,,,,,,,,,,,,,,,,,,,right,1,189.53275819995906,None,189.53275819995906,None,189.53275819995906,190.5342468000017,189.53275819995906,190.5342468000017,189.53275819995906,190.5342468000017,189.53275819995906,190.5342468000017,189.53275819995906,190.03358209994622,189.53275819995906,190.03358209994622,189.53275819995906,190.03358209994622,189.53275819995906,190.03358209994622,189.53275819995906,None,0.3510437000077218,,,,,12006,001,2024_Jun_13_1739,nback,2021.2.3,59.503231308789424,
1-back,instructions\back-1.png,conditions\12back-e.xlsx,,,experiment,1,2,stim\gray.png,stim\yellow.png,stim\gray.png,stim\gray.png,up,,,,,,,,,,,,,0,0,0,6,0,5,5,5,,,,,,,,,,,,,,,,,,,,,,,,,,,,,,,,,,,,,,,,,,,,,,,,,,,,,,,,up,1,191.03544070001226,None,191.03544070001226,None,191.03544070001226,192.036610799958,191.03544070001226,192.036610799958,191.03544070001226,192.036610799958,191.03544070001226,192.036610799958,191.03544070001226,191.53655630000867,191.03544070001226,191.53655630000867,191.03544070001226,191.53655630000867,191.03544070001226,191.53655630000867,191.03544070001226,None,0.23207690007984638,,,,,12006,001,2024_Jun_13_1739,nback,2021.2.3,59.503231308789424,
1-back,instructions\back-1.png,conditions\12back-e.xlsx,,,experiment,1,2,stim\gray.png,stim\yellow.png,stim\gray.png,stim\gray.png,left,,,,,,,,,,,,,0,0,0,6,0,6,6,6,,,,,,,,,,,,,,,,,,,,,,,,,,,,,,,,,,,,,,,,,,,,,,,,,,,,,,,,left,1,192.52053759992123,None,192.52053759992123,None,192.52053759992123,193.5221408000216,192.52053759992123,193.5221408000216,192.52053759992123,193.5221408000216,192.52053759992123,193.5221408000216,192.52053759992123,193.0220105999615,192.52053759992123,193.0220105999615,192.52053759992123,193.0220105999615,192.52053759992123,193.0220105999615,192.52053759992123,None,0.18661179998889565,,,,,12006,001,2024_Jun_13_1739,nback,2021.2.3,59.503231308789424,
1-back,instructions\back-1.png,conditions\12back-e.xlsx,,,experiment,1,4,stim\gray.png,stim\gray.png,stim\gray.png,stim\yellow.png,left,,,,,,,,,,,,,0,0,0,6,0,7,7,7,,,,,,,,,,,,,,,,,,,,,,,,,,,,,,,,,,,,,,,,,,,,,,,,,,,,,,,,left,1,194.02278200001456,None,194.02278200001456,None,194.02278200001456,195.02439239993691,194.02278200001456,195.02439239993691,194.02278200001456,195.02439239993691,194.02278200001456,195.02439239993691,194.02278200001456,194.52380269998685,194.02278200001456,194.52380269998685,194.02278200001456,194.52380269998685,194.02278200001456,194.52380269998685,194.02278200001456,None,0.3324600999476388,,,,,12006,001,2024_Jun_13_1739,nback,2021.2.3,59.503231308789424,
1-back,instructions\back-1.png,conditions\12back-e.xlsx,,,experiment,1,1,stim\yellow.png,stim\gray.png,stim\gray.png,stim\gray.png,down,,,,,,,,,,,,,0,0,0,6,0,8,8,8,,,,,,,,,,,,,,,,,,,,,,,,,,,,,,,,,,,,,,,,,,,,,,,,,,,,,,,,down,1,195.52515389991459,None,195.52515389991459,None,195.52515389991459,196.52749439992476,195.52515389991459,196.52749439992476,195.52515389991459,196.52749439992476,195.52515389991459,196.52749439992476,195.52515389991459,196.02708039991558,195.52515389991459,196.02708039991558,195.52515389991459,196.02708039991558,195.52515389991459,196.02708039991558,195.52515389991459,None,0.26223200000822544,,,,,12006,001,2024_Jun_13_1739,nback,2021.2.3,59.503231308789424,
1-back,instructions\back-1.png,conditions\12back-e.xlsx,,,experiment,1,3,stim\gray.png,stim\gray.png,stim\yellow.png,stim\gray.png,up,,,,,,,,,,,,,0,0,0,6,0,9,9,9,,,,,,,,,,,,,,,,,,,,,,,,,,,,,,,,,,,,,,,,,,,,,,,,,,,,,,,,up,1,197.02747730002739,None,197.02747730002739,None,197.02747730002739,198.03016339999158,197.02747730002739,198.03016339999158,197.02747730002739,198.03016339999158,197.02747730002739,198.03016339999158,197.02747730002739,197.52815339993685,197.02747730002739,197.52815339993685,197.02747730002739,197.52815339993685,197.02747730002739,197.52815339993685,197.02747730002739,None,0.3199286999879405,,,,,12006,001,2024_Jun_13_1739,nback,2021.2.3,59.503231308789424,
1-back,instructions\back-1.png,conditions\12back-e.xlsx,,,experiment,1,4,stim\gray.png,stim\gray.png,stim\gray.png,stim\yellow.png,right,,,,,,,,,,,,,0,0,0,6,0,10,10,10,,,,,,,,,,,,,,,,,,,,,,,,,,,,,,,,,,,,,,,,,,,,,,,,,,,,,,,,right,1,198.52969909994863,None,198.52969909994863,None,198.52969909994863,199.53101339994464,198.52969909994863,199.53101339994464,198.52969909994863,199.53101339994464,198.52969909994863,199.53101339994464,198.52969909994863,199.0304910999257,198.52969909994863,199.0304910999257,198.52969909994863,199.0304910999257,198.52969909994863,199.0304910999257,198.52969909994863,None,0.3056459999643266,,,,,12006,001,2024_Jun_13_1739,nback,2021.2.3,59.503231308789424,
1-back,instructions\back-1.png,conditions\12back-e.xlsx,,,experiment,1,3,stim\gray.png,stim\gray.png,stim\yellow.png,stim\gray.png,down,,,,,,,,,,,,,0,0,0,6,0,11,11,11,,,,,,,,,,,,,,,,,,,,,,,,,,,,,,,,,,,,,,,,,,,,,,,,,,,,,,,,down,1,200.03202129993588,None,200.03202129993588,None,200.03202129993588,201.03410960000474,200.03202129993588,201.03410960000474,200.03202129993588,201.03410960000474,200.03202129993588,201.03410960000474,200.03202129993588,200.53277039993554,200.03202129993588,200.53277039993554,200.03202129993588,200.53277039993554,200.03202129993588,200.53277039993554,200.03202129993588,None,0.23553740000352263,,,,,12006,001,2024_Jun_13_1739,nback,2021.2.3,59.503231308789424,
1-back,instructions\back-1.png,conditions\12back-e.xlsx,,,experiment,1,1,stim\yellow.png,stim\gray.png,stim\gray.png,stim\gray.png,left,,,,,,,,,,,,,0,0,0,6,0,12,12,12,,,,,,,,,,,,,,,,,,,,,,,,,,,,,,,,,,,,,,,,,,,,,,,,,,,,,,,,right,0,201.5341668999754,None,201.5341668999754,None,201.5341668999754,202.53583109995816,201.5341668999754,202.53583109995816,201.5341668999754,202.53583109995816,201.5341668999754,202.53583109995816,201.5341668999754,202.03481789992657,201.5341668999754,202.03481789992657,201.5341668999754,202.03481789992657,201.5341668999754,202.03481789992657,201.5341668999754,None,0.24536360008642077,,,,,12006,001,2024_Jun_13_1739,nback,2021.2.3,59.503231308789424,
1-back,instructions\back-1.png,conditions\12back-e.xlsx,,,experiment,1,4,stim\gray.png,stim\gray.png,stim\gray.png,stim\yellow.png,up,,,,,,,,,,,,,0,0,0,6,0,13,13,13,,,,,,,,,,,,,,,,,,,,,,,,,,,,,,,,,,,,,,,,,,,,,,,,,,,,,,,,up,1,203.01982940000016,None,203.01982940000016,None,203.01982940000016,204.0212678000098,203.01982940000016,204.0212678000098,203.01982940000016,204.0212678000098,203.01982940000016,204.0212678000098,203.01982940000016,203.5217823999701,203.01982940000016,203.5217823999701,203.01982940000016,203.5217823999701,203.01982940000016,203.5217823999701,203.01982940000016,None,0.25610300002153963,,,,,12006,001,2024_Jun_13_1739,nback,2021.2.3,59.503231308789424,
1-back,instructions\back-1.png,conditions\12back-e.xlsx,,,experiment,1,1,stim\yellow.png,stim\gray.png,stim\gray.png,stim\gray.png,down,,,,,,,,,,,,,0,0,0,6,0,14,14,14,,,,,,,,,,,,,,,,,,,,,,,,,,,,,,,,,,,,,,,,,,,,,,,,,,,,,,,,down,1,204.52257759997156,None,204.52257759997156,None,204.52257759997156,205.52352639997844,204.52257759997156,205.52352639997844,204.52257759997156,205.52352639997844,204.52257759997156,205.52352639997844,204.52257759997156,205.02260519994888,204.52257759997156,205.02260519994888,204.52257759997156,205.02260519994888,204.52257759997156,205.02260519994888,204.52257759997156,None,0.1775047000264749,,,,,12006,001,2024_Jun_13_1739,nback,2021.2.3,59.503231308789424,
1-back,instructions\back-1.png,conditions\12back-e.xlsx,,,experiment,1,2,stim\gray.png,stim\yellow.png,stim\gray.png,stim\gray.png,up,,,,,,,,,,,,,0,0,0,6,0,15,15,15,,,,,,,,,,,,,,,,,,,,,,,,,,,,,,,,,,,,,,,,,,,,,,,,,,,,,,,,up,1,206.02437009999994,None,206.02437009999994,None,206.02437009999994,207.0283150000032,206.02437009999994,207.0283150000032,206.02437009999994,207.0283150000032,206.02437009999994,207.0283150000032,206.02437009999994,206.5258037999738,206.02437009999994,206.5258037999738,206.02437009999994,206.5258037999738,206.02437009999994,206.5258037999738,206.02437009999994,None,0.2114575000014156,,,,,12006,001,2024_Jun_13_1739,nback,2021.2.3,59.503231308789424,
1-back,instructions\back-1.png,conditions\12back-e.xlsx,,,experiment,1,1,stim\yellow.png,stim\gray.png,stim\gray.png,stim\gray.png,left,,,,,,,,,,,,,0,0,0,6,0,16,16,16,,,,,,,,,,,,,,,,,,,,,,,,,,,,,,,,,,,,,,,,,,,,,,,,,,,,,,,,left,1,207.52712029998656,None,207.52712029998656,None,207.52712029998656,208.5281629000092,207.52712029998656,208.5281629000092,207.52712029998656,208.5281629000092,207.52712029998656,208.5281629000092,207.52712029998656,208.02737689996138,207.52712029998656,208.02737689996138,207.52712029998656,208.02737689996138,207.52712029998656,208.02737689996138,207.52712029998656,None,0.23657780000939965,,,,,12006,001,2024_Jun_13_1739,nback,2021.2.3,59.503231308789424,
1-back,instructions\back-1.png,conditions\12back-e.xlsx,,,experiment,1,3,stim\gray.png,stim\gray.png,stim\yellow.png,stim\gray.png,up,,,,,,,,,,,,,0,0,0,6,0,17,17,17,,,,,,,,,,,,,,,,,,,,,,,,,,,,,,,,,,,,,,,,,,,,,,,,,,,,,,,,up,1,209.02865220000967,None,209.02865220000967,None,209.02865220000967,210.0309218999464,209.02865220000967,210.0309218999464,209.02865220000967,210.0309218999464,209.02865220000967,210.0309218999464,209.02865220000967,209.53025800001342,209.02865220000967,209.53025800001342,209.02865220000967,209.53025800001342,209.02865220000967,209.53025800001342,209.02865220000967,None,0.27093320002313703,,,,,12006,001,2024_Jun_13_1739,nback,2021.2.3,59.503231308789424,
1-back,instructions\back-1.png,conditions\12back-e.xlsx,,,experiment,1,2,stim\gray.png,stim\yellow.png,stim\gray.png,stim\gray.png,right,,,,,,,,,,,,,0,0,0,6,0,18,18,18,,,,,,,,,,,,,,,,,,,,,,,,,,,,,,,,,,,,,,,,,,,,,,,,,,,,,,,,right,1,210.5309878999833,None,210.5309878999833,None,210.5309878999833,211.53327769995667,210.5309878999833,211.53327769995667,210.5309878999833,211.53327769995667,210.5309878999833,211.53327769995667,210.5309878999833,211.03310370002873,210.5309878999833,211.03310370002873,210.5309878999833,211.03310370002873,210.5309878999833,211.03310370002873,210.5309878999833,None,0.24080999998841435,,,,,12006,001,2024_Jun_13_1739,nback,2021.2.3,59.503231308789424,
1-back,instructions\back-1.png,conditions\12back-e.xlsx,,,experiment,1,4,stim\gray.png,stim\gray.png,stim\gray.png,stim\yellow.png,left,,,,,,,,,,,,,0,0,0,6,0,19,19,19,,,,,,,,,,,,,,,,,,,,,,,,,,,,,,,,,,,,,,,,,,,,,,,,,,,,,,,,left,1,212.03346820001025,None,212.03346820001025,None,212.03346820001025,213.0347657999955,212.03346820001025,213.0347657999955,212.03346820001025,213.0347657999955,212.03346820001025,213.0347657999955,212.03346820001025,212.53417919995263,212.03346820001025,212.53417919995263,212.03346820001025,212.53417919995263,212.03346820001025,212.53417919995263,212.03346820001025,None,0.24242990009952337,,,,,12006,001,2024_Jun_13_1739,nback,2021.2.3,59.503231308789424,
1-back,instructions\back-1.png,conditions\12back-e.xlsx,,,,,,,,,,,,,,,,,,,,,,,0,0,0,6,,,,,,,,,,,,,,,,,,,,,,,,,,,,,,,,,,,,,,,,,,,,,,,,,,,,,,,,,,,,,,,,,,,,,,,,,,,,,,,,,,,,,213.51945349993184,None,,,12006,001,2024_Jun_13_1739,nback,2021.2.3,59.503231308789424,
2-back,instructions\back-2.png,conditions\22back-e.xlsx,,,experiment,2,2,stim\gray.png,stim\yellow.png,stim\gray.png,stim\gray.png,None,,,,,,,,,,,,,0,1,1,8,0,0,0,0,,,,,,,,,,,,,,,214.80416239995975,219.31146440003067,219.19597100000829,None,,,,,,,,,,,,,,,,,,,,,,,,,,,,,,,,,,,,,,None,1,219.54560419998597,None,219.54560419998597,None,219.54560419998597,220.5461181999417,219.54560419998597,220.5461181999417,219.54560419998597,220.5461181999417,219.54560419998597,220.5461181999417,219.54560419998597,220.04557890002616,219.54560419998597,220.04557890002616,219.54560419998597,220.04557890002616,219.54560419998597,220.04557890002616,219.54560419998597,None,,,,,,12006,001,2024_Jun_13_1739,nback,2021.2.3,59.503231308789424,
2-back,instructions\back-2.png,conditions\22back-e.xlsx,,,experiment,2,3,stim\gray.png,stim\gray.png,stim\yellow.png,stim\gray.png,None,,,,,,,,,,,,,0,1,1,8,0,1,1,1,,,,,,,,,,,,,,,,,,,,,,,,,,,,,,,,,,,,,,,,,,,,,,,,,,,,,,,,None,1,221.0303381999256,None,221.0303381999256,None,221.0303381999256,222.03253349999432,221.0303381999256,222.03253349999432,221.0303381999256,222.03253349999432,221.0303381999256,222.03253349999432,221.0303381999256,221.53181539999787,221.0303381999256,221.53181539999787,221.0303381999256,221.53181539999787,221.0303381999256,221.53181539999787,221.0303381999256,None,,,,,,12006,001,2024_Jun_13_1739,nback,2021.2.3,59.503231308789424,
2-back,instructions\back-2.png,conditions\22back-e.xlsx,,,experiment,2,1,stim\yellow.png,stim\gray.png,stim\gray.png,stim\gray.png,left,,,,,,,,,,,,,0,1,1,8,0,2,2,2,,,,,,,,,,,,,,,,,,,,,,,,,,,,,,,,,,,,,,,,,,,,,,,,,,,,,,,,left,1,222.53254589997232,None,222.53254589997232,None,222.53254589997232,223.53421720000915,222.53254589997232,223.53421720000915,222.53254589997232,223.53421720000915,222.53254589997232,223.53421720000915,222.53254589997232,223.03410950000398,222.53254589997232,223.03410950000398,222.53254589997232,223.03410950000398,222.53254589997232,223.03410950000398,222.53254589997232,None,0.22368429997004569,,,,,12006,001,2024_Jun_13_1739,nback,2021.2.3,59.503231308789424,
2-back,instructions\back-2.png,conditions\22back-e.xlsx,,,experiment,2,2,stim\gray.png,stim\yellow.png,stim\gray.png,stim\gray.png,right,,,,,,,,,,,,,0,1,1,8,0,3,3,3,,,,,,,,,,,,,,,,,,,,,,,,,,,,,,,,,,,,,,,,,,,,,,,,,,,,,,,,right,1,224.0346097999718,None,224.0346097999718,None,224.0346097999718,225.03632299997844,224.0346097999718,225.03632299997844,224.0346097999718,225.03632299997844,224.0346097999718,225.03632299997844,224.0346097999718,224.5354927999433,224.0346097999718,224.5354927999433,224.0346097999718,224.5354927999433,224.0346097999718,224.5354927999433,224.0346097999718,None,0.23383749998174608,,,,,12006,001,2024_Jun_13_1739,nback,2021.2.3,59.503231308789424,
2-back,instructions\back-2.png,conditions\22back-e.xlsx,,,experiment,2,1,stim\yellow.png,stim\gray.png,stim\gray.png,stim\gray.png,up,,,,,,,,,,,,,0,1,1,8,0,4,4,4,,,,,,,,,,,,,,,,,,,,,,,,,,,,,,,,,,,,,,,,,,,,,,,,,,,,,,,,up,1,225.5202923999168,None,225.5202923999168,None,225.5202923999168,226.5219316999428,225.5202923999168,226.5219316999428,225.5202923999168,226.5219316999428,225.5202923999168,226.5219316999428,225.5202923999168,226.02202549995854,225.5202923999168,226.02202549995854,225.5202923999168,226.02202549995854,225.5202923999168,226.02202549995854,225.5202923999168,None,0.2119310999987647,,,,,12006,001,2024_Jun_13_1739,nback,2021.2.3,59.503231308789424,
2-back,instructions\back-2.png,conditions\22back-e.xlsx,,,experiment,2,4,stim\gray.png,stim\gray.png,stim\gray.png,stim\yellow.png,left,,,,,,,,,,,,,0,1,1,8,0,5,5,5,,,,,,,,,,,,,,,,,,,,,,,,,,,,,,,,,,,,,,,,,,,,,,,,,,,,,,,,left,1,227.02258220000658,None,227.02258220000658,None,227.02258220000658,228.0255324000027,227.02258220000658,228.0255324000027,227.02258220000658,228.0255324000027,227.02258220000658,228.0255324000027,227.02258220000658,227.52421569998842,227.02258220000658,227.52421569998842,227.02258220000658,227.52421569998842,227.02258220000658,227.52421569998842,227.02258220000658,None,0.15840770001523197,,,,,12006,001,2024_Jun_13_1739,nback,2021.2.3,59.503231308789424,
2-back,instructions\back-2.png,conditions\22back-e.xlsx,,,experiment,2,3,stim\gray.png,stim\gray.png,stim\yellow.png,stim\gray.png,up,,,,,,,,,,,,,0,1,1,8,0,6,6,6,,,,,,,,,,,,,,,,,,,,,,,,,,,,,,,,,,,,,,,,,,,,,,,,,,,,,,,,up,1,228.52547049999703,None,228.52547049999703,None,228.52547049999703,229.52668060001452,228.52547049999703,229.52668060001452,228.52547049999703,229.52668060001452,228.52547049999703,229.52668060001452,228.52547049999703,229.02659829996992,228.52547049999703,229.02659829996992,228.52547049999703,229.02659829996992,228.52547049999703,229.02659829996992,228.52547049999703,None,0.1430153000401333,,,,,12006,001,2024_Jun_13_1739,nback,2021.2.3,59.503231308789424,
2-back,instructions\back-2.png,conditions\22back-e.xlsx,,,experiment,2,1,stim\yellow.png,stim\gray.png,stim\gray.png,stim\gray.png,down,,,,,,,,,,,,,0,1,1,8,0,7,7,7,,,,,,,,,,,,,,,,,,,,,,,,,,,,,,,,,,,,,,,,,,,,,,,,,,,,,,,,down,1,230.0271696000127,None,230.0271696000127,None,230.0271696000127,231.0295609999448,230.0271696000127,231.0295609999448,230.0271696000127,231.0295609999448,230.0271696000127,231.0295609999448,230.0271696000127,230.52808690001257,230.0271696000127,230.52808690001257,230.0271696000127,230.52808690001257,230.0271696000127,230.52808690001257,230.0271696000127,None,0.16922439995687455,,,,,12006,001,2024_Jun_13_1739,nback,2021.2.3,59.503231308789424,
2-back,instructions\back-2.png,conditions\22back-e.xlsx,,,experiment,2,2,stim\gray.png,stim\yellow.png,stim\gray.png,stim\gray.png,right,,,,,,,,,,,,,0,1,1,8,0,8,8,8,,,,,,,,,,,,,,,,,,,,,,,,,,,,,,,,,,,,,,,,,,,,,,,,,,,,,,,,right,1,231.5292648000177,None,231.5292648000177,None,231.5292648000177,232.53112749999855,231.5292648000177,232.53112749999855,231.5292648000177,232.53112749999855,231.5292648000177,232.53112749999855,231.5292648000177,232.0310194999911,231.5292648000177,232.0310194999911,231.5292648000177,232.0310194999911,231.5292648000177,232.0310194999911,231.5292648000177,None,0.17972689995076507,,,,,12006,001,2024_Jun_13_1739,nback,2021.2.3,59.503231308789424,
2-back,instructions\back-2.png,conditions\22back-e.xlsx,,,experiment,2,1,stim\yellow.png,stim\gray.png,stim\gray.png,stim\gray.png,up,,,,,,,,,,,,,0,1,1,8,0,9,9,9,,,,,,,,,,,,,,,,,,,,,,,,,,,,,,,,,,,,,,,,,,,,,,,,,,,,,,,,up,1,233.0317011999432,None,233.0317011999432,None,233.0317011999432,234.0331844999455,233.0317011999432,234.0331844999455,233.0317011999432,234.0331844999455,233.0317011999432,234.0331844999455,233.0317011999432,233.53323940001428,233.0317011999432,233.53323940001428,233.0317011999432,233.53323940001428,233.0317011999432,233.53323940001428,233.0317011999432,None,0.17340590001549572,,,,,12006,001,2024_Jun_13_1739,nback,2021.2.3,59.503231308789424,
2-back,instructions\back-2.png,conditions\22back-e.xlsx,,,experiment,2,4,stim\gray.png,stim\gray.png,stim\gray.png,stim\yellow.png,left,,,,,,,,,,,,,0,1,1,8,0,10,10,10,,,,,,,,,,,,,,,,,,,,,,,,,,,,,,,,,,,,,,,,,,,,,,,,,,,,,,,,left,1,234.5340320999967,None,234.5340320999967,None,234.5340320999967,235.53540089994203,234.5340320999967,235.53540089994203,234.5340320999967,235.53540089994203,234.5340320999967,235.53540089994203,234.5340320999967,235.03465970000252,234.5340320999967,235.03465970000252,234.5340320999967,235.03465970000252,234.5340320999967,235.03465970000252,234.5340320999967,None,0.2145322000142187,,,,,12006,001,2024_Jun_13_1739,nback,2021.2.3,59.503231308789424,
2-back,instructions\back-2.png,conditions\22back-e.xlsx,,,experiment,2,2,stim\gray.png,stim\yellow.png,stim\gray.png,stim\gray.png,up,,,,,,,,,,,,,0,1,1,8,0,11,11,11,,,,,,,,,,,,,,,,,,,,,,,,,,,,,,,,,,,,,,,,,,,,,,,,,,,,,,,,up,1,236.03718290000688,None,236.03718290000688,None,236.03718290000688,237.03765409998596,236.03718290000688,237.03765409998596,236.03718290000688,237.03765409998596,236.03718290000688,237.03765409998596,236.03718290000688,236.53747270000167,236.03718290000688,236.53747270000167,236.03718290000688,236.53747270000167,236.03718290000688,236.53747270000167,236.03718290000688,None,0.16794970002956688,,,,,12006,001,2024_Jun_13_1739,nback,2021.2.3,59.503231308789424,
2-back,instructions\back-2.png,conditions\22back-e.xlsx,,,experiment,2,4,stim\gray.png,stim\gray.png,stim\gray.png,stim\yellow.png,down,,,,,,,,,,,,,0,1,1,8,0,12,12,12,,,,,,,,,,,,,,,,,,,,,,,,,,,,,,,,,,,,,,,,,,,,,,,,,,,,,,,,down,1,237.5229256999446,None,237.5229256999446,None,237.5229256999446,238.52375589997973,237.5229256999446,238.52375589997973,237.5229256999446,238.52375589997973,237.5229256999446,238.52375589997973,237.5229256999446,238.0227096999297,237.5229256999446,238.0227096999297,237.5229256999446,238.0227096999297,237.5229256999446,238.0227096999297,237.5229256999446,None,0.3056415000464767,,,,,12006,001,2024_Jun_13_1739,nback,2021.2.3,59.503231308789424,
2-back,instructions\back-2.png,conditions\22back-e.xlsx,,,experiment,2,3,stim\gray.png,stim\gray.png,stim\yellow.png,stim\gray.png,left,,,,,,,,,,,,,0,1,1,8,0,13,13,13,,,,,,,,,,,,,,,,,,,,,,,,,,,,,,,,,,,,,,,,,,,,,,,,,,,,,,,,left,1,239.02414110000245,None,239.02414110000245,None,239.02414110000245,240.0277263999451,239.02414110000245,240.0277263999451,239.02414110000245,240.0277263999451,239.02414110000245,240.0277263999451,239.02414110000245,239.52486949996091,239.02414110000245,239.52486949996091,239.02414110000245,239.52486949996091,239.02414110000245,239.52486949996091,239.02414110000245,None,0.18844719999469817,,,,,12006,001,2024_Jun_13_1739,nback,2021.2.3,59.503231308789424,
2-back,instructions\back-2.png,conditions\22back-e.xlsx,,,experiment,2,3,stim\gray.png,stim\gray.png,stim\yellow.png,stim\gray.png,down,,,,,,,,,,,,,0,1,1,8,0,14,14,14,,,,,,,,,,,,,,,,,,,,,,,,,,,,,,,,,,,,,,,,,,,,,,,,,,,,,,,,down,1,240.5267667999724,None,240.5267667999724,None,240.5267667999724,241.52939039992634,240.5267667999724,241.52939039992634,240.5267667999724,241.52939039992634,240.5267667999724,241.52939039992634,240.5267667999724,241.0281157999998,240.5267667999724,241.0281157999998,240.5267667999724,241.0281157999998,240.5267667999724,241.0281157999998,240.5267667999724,None,0.17405989998951554,,,,,12006,001,2024_Jun_13_1739,nback,2021.2.3,59.503231308789424,
2-back,instructions\back-2.png,conditions\22back-e.xlsx,,,experiment,2,4,stim\gray.png,stim\gray.png,stim\gray.png,stim\yellow.png,right,,,,,,,,,,,,,0,1,1,8,0,15,15,15,,,,,,,,,,,,,,,,,,,,,,,,,,,,,,,,,,,,,,,,,,,,,,,,,,,,,,,,right,1,242.0285708999727,None,242.0285708999727,None,242.0285708999727,243.03097049996722,242.0285708999727,243.03097049996722,242.0285708999727,243.03097049996722,242.0285708999727,243.03097049996722,242.0285708999727,242.53079160000198,242.0285708999727,242.53079160000198,242.0285708999727,242.53079160000198,242.0285708999727,242.53079160000198,242.0285708999727,None,0.2007481000619009,,,,,12006,001,2024_Jun_13_1739,nback,2021.2.3,59.503231308789424,
2-back,instructions\back-2.png,conditions\22back-e.xlsx,,,experiment,2,2,stim\gray.png,stim\yellow.png,stim\gray.png,stim\gray.png,right,,,,,,,,,,,,,0,1,1,8,0,16,16,16,,,,,,,,,,,,,,,,,,,,,,,,,,,,,,,,,,,,,,,,,,,,,,,,,,,,,,,,right,1,243.53085959993768,None,243.53085959993768,None,243.53085959993768,244.5327646000078,243.53085959993768,244.5327646000078,243.53085959993768,244.5327646000078,243.53085959993768,244.5327646000078,243.53085959993768,244.03142599994317,243.53085959993768,244.03142599994317,243.53085959993768,244.03142599994317,243.53085959993768,244.03142599994317,243.53085959993768,None,0.1537159999134019,,,,,12006,001,2024_Jun_13_1739,nback,2021.2.3,59.503231308789424,
2-back,instructions\back-2.png,conditions\22back-e.xlsx,,,experiment,2,1,stim\yellow.png,stim\gray.png,stim\gray.png,stim\gray.png,down,,,,,,,,,,,,,0,1,1,8,0,17,17,17,,,,,,,,,,,,,,,,,,,,,,,,,,,,,,,,,,,,,,,,,,,,,,,,,,,,,,,,down,1,245.0331159000052,None,245.0331159000052,None,245.0331159000052,246.03528229997028,245.0331159000052,246.03528229997028,245.0331159000052,246.03528229997028,245.0331159000052,246.03528229997028,245.0331159000052,245.53396179992706,245.0331159000052,245.53396179992706,245.0331159000052,245.53396179992706,245.0331159000052,245.53396179992706,245.0331159000052,None,0.06874209991656244,,,,,12006,001,2024_Jun_13_1739,nback,2021.2.3,59.503231308789424,
2-back,instructions\back-2.png,conditions\22back-e.xlsx,,,experiment,2,4,stim\gray.png,stim\gray.png,stim\gray.png,stim\yellow.png,left,,,,,,,,,,,,,0,1,1,8,0,18,18,18,,,,,,,,,,,,,,,,,,,,,,,,,,,,,,,,,,,,,,,,,,,,,,,,,,,,,,,,left,1,246.53549399995245,None,246.53549399995245,None,246.53549399995245,247.53814459999558,246.53549399995245,247.53814459999558,246.53549399995245,247.53814459999558,246.53549399995245,247.53814459999558,246.53549399995245,247.03734109993093,246.53549399995245,247.03734109993093,246.53549399995245,247.03734109993093,246.53549399995245,247.03734109993093,246.53549399995245,None,0.1895164999878034,,,,,12006,001,2024_Jun_13_1739,nback,2021.2.3,59.503231308789424,
2-back,instructions\back-2.png,conditions\22back-e.xlsx,,,experiment,2,3,stim\gray.png,stim\gray.png,stim\yellow.png,stim\gray.png,up,,,,,,,,,,,,,0,1,1,8,0,19,19,19,,,,,,,,,,,,,,,,,,,,,,,,,,,,,,,,,,,,,,,,,,,,,,,,,,,,,,,,up,1,248.02186540002003,None,248.02186540002003,None,248.02186540002003,249.02429710002616,248.02186540002003,249.02429710002616,248.02186540002003,249.02429710002616,248.02186540002003,249.02429710002616,248.02186540002003,248.5225321999751,248.02186540002003,248.5225321999751,248.02186540002003,248.5225321999751,248.02186540002003,248.5225321999751,248.02186540002003,None,0.14306749997194856,,,,,12006,001,2024_Jun_13_1739,nback,2021.2.3,59.503231308789424,
2-back,instructions\back-2.png,conditions\22back-e.xlsx,,,,,,,,,,,,,,,,,,,,,,,0,1,1,8,,,,,,,,,,,,,,,,,,,,,,,,,,,,,,,,,,,,,,,,,,,,,,,,,,,,,,,,,,,,,,,,,,,,,,,,,,,,,,,,,,,,,249.52347639994696,None,,,12006,001,2024_Jun_13_1739,nback,2021.2.3,59.503231308789424,
2-back,instructions\back-2.png,conditions\21back-e.xlsx,,,experiment,2,3,stim\gray.png,stim\gray.png,stim\yellow.png,stim\gray.png,None,,,,,,,,,,,,,0,2,2,3,0,0,0,0,,,,,,,,,,,,,,,250.67472240002826,255.18192449992057,255.14843549998477,None,,,,,,,,,,,,,,,,,,,,,,,,,,,,,,,,,,,,,,None,1,255.5499634000007,None,255.5499634000007,None,255.5499634000007,256.55125050002243,255.5499634000007,256.55125050002243,255.5499634000007,256.55125050002243,255.5499634000007,256.55125050002243,255.5499634000007,256.0503876999719,255.5499634000007,256.0503876999719,255.5499634000007,256.0503876999719,255.5499634000007,256.0503876999719,255.5499634000007,None,,,,,,12006,001,2024_Jun_13_1739,nback,2021.2.3,59.503231308789424,
2-back,instructions\back-2.png,conditions\21back-e.xlsx,,,experiment,2,4,stim\gray.png,stim\gray.png,stim\gray.png,stim\yellow.png,None,,,,,,,,,,,,,0,2,2,3,0,1,1,1,,,,,,,,,,,,,,,,,,,,,,,,,,,,,,,,,,,,,,,,,,,,,,,,,,,,,,,,None,1,257.0346205999376,None,257.0346205999376,None,257.0346205999376,258.03629059996456,257.0346205999376,258.03629059996456,257.0346205999376,258.03629059996456,257.0346205999376,258.03629059996456,257.0346205999376,257.53551499999594,257.0346205999376,257.53551499999594,257.0346205999376,257.53551499999594,257.0346205999376,257.53551499999594,257.0346205999376,None,,,,,,12006,001,2024_Jun_13_1739,nback,2021.2.3,59.503231308789424,
2-back,instructions\back-2.png,conditions\21back-e.xlsx,,,experiment,2,1,stim\yellow.png,stim\gray.png,stim\gray.png,stim\gray.png,right,,,,,,,,,,,,,0,2,2,3,0,2,2,2,,,,,,,,,,,,,,,,,,,,,,,,,,,,,,,,,,,,,,,,,,,,,,,,,,,,,,,,right,1,258.51997999998275,None,258.51997999998275,None,258.51997999998275,259.5224374999525,258.51997999998275,259.5224374999525,258.51997999998275,259.5224374999525,258.51997999998275,259.5224374999525,258.51997999998275,259.0210801999783,258.51997999998275,259.0210801999783,258.51997999998275,259.0210801999783,258.51997999998275,259.0210801999783,258.51997999998275,None,0.26920440001413226,,,,,12006,001,2024_Jun_13_1739,nback,2021.2.3,59.503231308789424,
2-back,instructions\back-2.png,conditions\21back-e.xlsx,,,experiment,2,2,stim\gray.png,stim\yellow.png,stim\gray.png,stim\gray.png,down,,,,,,,,,,,,,0,2,2,3,0,3,3,3,,,,,,,,,,,,,,,,,,,,,,,,,,,,,,,,,,,,,,,,,,,,,,,,,,,,,,,,down,1,260.02331630000845,None,260.02331630000845,None,260.02331630000845,261.0239246999845,260.02331630000845,261.0239246999845,260.02331630000845,261.0239246999845,260.02331630000845,261.0239246999845,260.02331630000845,260.5243346999632,260.02331630000845,260.5243346999632,260.02331630000845,260.5243346999632,260.02331630000845,260.5243346999632,260.02331630000845,None,0.1336262000259012,,,,,12006,001,2024_Jun_13_1739,nback,2021.2.3,59.503231308789424,
2-back,instructions\back-2.png,conditions\21back-e.xlsx,,,experiment,2,1,stim\yellow.png,stim\gray.png,stim\gray.png,stim\gray.png,up,,,,,,,,,,,,,0,2,2,3,0,4,4,4,,,,,,,,,,,,,,,,,,,,,,,,,,,,,,,,,,,,,,,,,,,,,,,,,,,,,,,,up,1,261.5246321000159,None,261.5246321000159,None,261.5246321000159,262.5267902999185,261.5246321000159,262.5267902999185,261.5246321000159,262.5267902999185,261.5246321000159,262.5267902999185,261.5246321000159,262.0253126999596,261.5246321000159,262.0253126999596,261.5246321000159,262.0253126999596,261.5246321000159,262.0253126999596,261.5246321000159,None,0.1766726999776438,,,,,12006,001,2024_Jun_13_1739,nback,2021.2.3,59.503231308789424,
2-back,instructions\back-2.png,conditions\21back-e.xlsx,,,experiment,2,2,stim\gray.png,stim\yellow.png,stim\gray.png,stim\gray.png,left,,,,,,,,,,,,,0,2,2,3,0,5,5,5,,,,,,,,,,,,,,,,,,,,,,,,,,,,,,,,,,,,,,,,,,,,,,,,,,,,,,,,left,1,263.0268919999944,None,263.0268919999944,None,263.0268919999944,264.0284160999581,263.0268919999944,264.0284160999581,263.0268919999944,264.0284160999581,263.0268919999944,264.0284160999581,263.0268919999944,263.5288979000179,263.0268919999944,263.5288979000179,263.0268919999944,263.5288979000179,263.0268919999944,263.5288979000179,263.0268919999944,None,0.1701508000260219,,,,,12006,001,2024_Jun_13_1739,nback,2021.2.3,59.503231308789424,
2-back,instructions\back-2.png,conditions\21back-e.xlsx,,,experiment,2,3,stim\gray.png,stim\gray.png,stim\yellow.png,stim\gray.png,up,,,,,,,,,,,,,0,2,2,3,0,6,6,6,,,,,,,,,,,,,,,,,,,,,,,,,,,,,,,,,,,,,,,,,,,,,,,,,,,,,,,,up,1,264.5293253000127,None,264.5293253000127,None,264.5293253000127,265.531549599953,264.5293253000127,265.531549599953,264.5293253000127,265.531549599953,264.5293253000127,265.531549599953,264.5293253000127,265.02998110000044,264.5293253000127,265.02998110000044,264.5293253000127,265.02998110000044,264.5293253000127,265.02998110000044,264.5293253000127,None,0.19629540003370494,,,,,12006,001,2024_Jun_13_1739,nback,2021.2.3,59.503231308789424,
2-back,instructions\back-2.png,conditions\21back-e.xlsx,,,experiment,2,4,stim\gray.png,stim\gray.png,stim\gray.png,stim\yellow.png,left,,,,,,,,,,,,,0,2,2,3,0,7,7,7,,,,,,,,,,,,,,,,,,,,,,,,,,,,,,,,,,,,,,,,,,,,,,,,,,,,,,,,left,1,266.03137739992235,None,266.03137739992235,None,266.03137739992235,267.03421229997184,266.03137739992235,267.03421229997184,266.03137739992235,267.03421229997184,266.03137739992235,267.03421229997184,266.03137739992235,266.532249199925,266.03137739992235,266.532249199925,266.03137739992235,266.532249199925,266.03137739992235,266.532249199925,266.03137739992235,None,0.17481330002192408,,,,,12006,001,2024_Jun_13_1739,nback,2021.2.3,59.503231308789424,
2-back,instructions\back-2.png,conditions\21back-e.xlsx,,,experiment,2,3,stim\gray.png,stim\gray.png,stim\yellow.png,stim\gray.png,right,,,,,,,,,,,,,0,2,2,3,0,8,8,8,,,,,,,,,,,,,,,,,,,,,,,,,,,,,,,,,,,,,,,,,,,,,,,,,,,,,,,,right,1,267.5338309999788,None,267.5338309999788,None,267.5338309999788,268.5359664999414,267.5338309999788,268.5359664999414,267.5338309999788,268.5359664999414,267.5338309999788,268.5359664999414,267.5338309999788,268.035263299942,267.5338309999788,268.035263299942,267.5338309999788,268.035263299942,267.5338309999788,268.035263299942,267.5338309999788,None,0.1679156000027433,,,,,12006,001,2024_Jun_13_1739,nback,2021.2.3,59.503231308789424,
2-back,instructions\back-2.png,conditions\21back-e.xlsx,,,experiment,2,1,stim\yellow.png,stim\gray.png,stim\gray.png,stim\gray.png,down,,,,,,,,,,,,,0,2,2,3,0,9,9,9,,,,,,,,,,,,,,,,,,,,,,,,,,,,,,,,,,,,,,,,,,,,,,,,,,,,,,,,down,1,269.01937839994207,None,269.01937839994207,None,269.01937839994207,270.02073959994595,269.01937839994207,270.02073959994595,269.01937839994207,270.02073959994595,269.01937839994207,270.02073959994595,269.01937839994207,269.52081649994943,269.01937839994207,269.52081649994943,269.01937839994207,269.52081649994943,269.01937839994207,269.52081649994943,269.01937839994207,None,0.11548440007027239,,,,,12006,001,2024_Jun_13_1739,nback,2021.2.3,59.503231308789424,
2-back,instructions\back-2.png,conditions\21back-e.xlsx,,,experiment,2,4,stim\gray.png,stim\gray.png,stim\gray.png,stim\yellow.png,right,,,,,,,,,,,,,0,2,2,3,0,10,10,10,,,,,,,,,,,,,,,,,,,,,,,,,,,,,,,,,,,,,,,,,,,,,,,,,,,,,,,,right,1,270.521624899935,None,270.521624899935,None,270.521624899935,271.5238515000092,270.521624899935,271.5238515000092,270.521624899935,271.5238515000092,270.521624899935,271.5238515000092,270.521624899935,271.02417629992124,270.521624899935,271.02417629992124,270.521624899935,271.02417629992124,270.521624899935,271.02417629992124,270.521624899935,None,0.1716672999318689,,,,,12006,001,2024_Jun_13_1739,nback,2021.2.3,59.503231308789424,
2-back,instructions\back-2.png,conditions\21back-e.xlsx,,,experiment,2,2,stim\gray.png,stim\yellow.png,stim\gray.png,stim\gray.png,up,,,,,,,,,,,,,0,2,2,3,0,11,11,11,,,,,,,,,,,,,,,,,,,,,,,,,,,,,,,,,,,,,,,,,,,,,,,,,,,,,,,,up,1,272.0237448000116,None,272.0237448000116,None,272.0237448000116,273.0251453999663,272.0237448000116,273.0251453999663,272.0237448000116,273.0251453999663,272.0237448000116,273.0251453999663,272.0237448000116,272.5259614000097,272.0237448000116,272.5259614000097,272.0237448000116,272.5259614000097,272.0237448000116,272.5259614000097,272.0237448000116,None,0.20672190003097057,,,,,12006,001,2024_Jun_13_1739,nback,2021.2.3,59.503231308789424,
2-back,instructions\back-2.png,conditions\21back-e.xlsx,,,experiment,2,4,stim\gray.png,stim\gray.png,stim\gray.png,stim\yellow.png,down,,,,,,,,,,,,,0,2,2,3,0,12,12,12,,,,,,,,,,,,,,,,,,,,,,,,,,,,,,,,,,,,,,,,,,,,,,,,,,,,,,,,down,1,273.52617029997054,None,273.52617029997054,None,273.52617029997054,274.52876659994945,273.52617029997054,274.52876659994945,273.52617029997054,274.52876659994945,273.52617029997054,274.52876659994945,273.52617029997054,274.02737409994006,273.52617029997054,274.02737409994006,273.52617029997054,274.02737409994006,273.52617029997054,274.02737409994006,273.52617029997054,None,0.2473620999371633,,,,,12006,001,2024_Jun_13_1739,nback,2021.2.3,59.503231308789424,
2-back,instructions\back-2.png,conditions\21back-e.xlsx,,,experiment,2,3,stim\gray.png,stim\gray.png,stim\yellow.png,stim\gray.png,left,,,,,,,,,,,,,0,2,2,3,0,13,13,13,,,,,,,,,,,,,,,,,,,,,,,,,,,,,,,,,,,,,,,,,,,,,,,,,,,,,,,,left,1,275.0282703000121,None,275.0282703000121,None,275.0282703000121,276.0299464999698,275.0282703000121,276.0299464999698,275.0282703000121,276.0299464999698,275.0282703000121,276.0299464999698,275.0282703000121,275.5291814999655,275.0282703000121,275.5291814999655,275.0282703000121,275.5291814999655,275.0282703000121,275.5291814999655,275.0282703000121,None,0.21779289992991835,,,,,12006,001,2024_Jun_13_1739,nback,2021.2.3,59.503231308789424,
2-back,instructions\back-2.png,conditions\21back-e.xlsx,,,experiment,2,1,stim\yellow.png,stim\gray.png,stim\gray.png,stim\gray.png,down,,,,,,,,,,,,,0,2,2,3,0,14,14,14,,,,,,,,,,,,,,,,,,,,,,,,,,,,,,,,,,,,,,,,,,,,,,,,,,,,,,,,down,1,276.53064339992125,None,276.53064339992125,None,276.53064339992125,277.53254789998755,276.53064339992125,277.53254789998755,276.53064339992125,277.53254789998755,276.53064339992125,277.53254789998755,276.53064339992125,277.0314360000193,276.53064339992125,277.0314360000193,276.53064339992125,277.0314360000193,276.53064339992125,277.0314360000193,276.53064339992125,None,0.1793974000029266,,,,,12006,001,2024_Jun_13_1739,nback,2021.2.3,59.503231308789424,
2-back,instructions\back-2.png,conditions\21back-e.xlsx,,,experiment,2,2,stim\gray.png,stim\yellow.png,stim\gray.png,stim\gray.png,right,,,,,,,,,,,,,0,2,2,3,0,15,15,15,,,,,,,,,,,,,,,,,,,,,,,,,,,,,,,,,,,,,,,,,,,,,,,,,,,,,,,,right,1,278.0328537999885,None,278.0328537999885,None,278.0328537999885,279.0351246999344,278.0328537999885,279.0351246999344,278.0328537999885,279.0351246999344,278.0328537999885,279.0351246999344,278.0328537999885,278.53368809993844,278.0328537999885,278.53368809993844,278.0328537999885,278.53368809993844,278.0328537999885,278.53368809993844,278.0328537999885,None,0.11716260004322976,,,,,12006,001,2024_Jun_13_1739,nback,2021.2.3,59.503231308789424,
2-back,instructions\back-2.png,conditions\21back-e.xlsx,,,experiment,2,2,stim\gray.png,stim\yellow.png,stim\gray.png,stim\gray.png,up,,,,,,,,,,,,,0,2,2,3,0,16,16,16,,,,,,,,,,,,,,,,,,,,,,,,,,,,,,,,,,,,,,,,,,,,,,,,,,,,,,,,up,1,279.53566059994046,None,279.53566059994046,None,279.53566059994046,280.536629499984,279.53566059994046,280.536629499984,279.53566059994046,280.536629499984,279.53566059994046,280.536629499984,279.53566059994046,280.03598189994227,279.53566059994046,280.03598189994227,279.53566059994046,280.03598189994227,279.53566059994046,280.03598189994227,279.53566059994046,None,0.11005149991251528,,,,,12006,001,2024_Jun_13_1739,nback,2021.2.3,59.503231308789424,
2-back,instructions\back-2.png,conditions\21back-e.xlsx,,,experiment,2,1,stim\yellow.png,stim\gray.png,stim\gray.png,stim\gray.png,left,,,,,,,,,,,,,0,2,2,3,0,17,17,17,,,,,,,,,,,,,,,,,,,,,,,,,,,,,,,,,,,,,,,,,,,,,,,,,,,,,,,,left,1,281.0208239000058,None,281.0208239000058,None,281.0208239000058,282.0231546999421,281.0208239000058,282.0231546999421,281.0208239000058,282.0231546999421,281.0208239000058,282.0231546999421,281.0208239000058,281.52147149993107,281.0208239000058,281.52147149993107,281.0208239000058,281.52147149993107,281.0208239000058,281.52147149993107,281.0208239000058,None,0.16080850001890212,,,,,12006,001,2024_Jun_13_1739,nback,2021.2.3,59.503231308789424,
2-back,instructions\back-2.png,conditions\21back-e.xlsx,,,experiment,2,4,stim\gray.png,stim\gray.png,stim\gray.png,stim\yellow.png,left,,,,,,,,,,,,,0,2,2,3,0,18,18,18,,,,,,,,,,,,,,,,,,,,,,,,,,,,,,,,,,,,,,,,,,,,,,,,,,,,,,,,left,1,282.52308159996755,None,282.52308159996755,None,282.52308159996755,283.5257409999613,282.52308159996755,283.5257409999613,282.52308159996755,283.5257409999613,282.52308159996755,283.5257409999613,282.52308159996755,283.024614199996,282.52308159996755,283.024614199996,282.52308159996755,283.024614199996,282.52308159996755,283.024614199996,282.52308159996755,None,0.10035399999469519,,,,,12006,001,2024_Jun_13_1739,nback,2021.2.3,59.503231308789424,
2-back,instructions\back-2.png,conditions\21back-e.xlsx,,,experiment,2,3,stim\gray.png,stim\gray.png,stim\yellow.png,stim\gray.png,up,,,,,,,,,,,,,0,2,2,3,0,19,19,19,,,,,,,,,,,,,,,,,,,,,,,,,,,,,,,,,,,,,,,,,,,,,,,,,,,,,,,,up,1,284.0250487999292,None,284.0250487999292,None,284.0250487999292,285.02747580001596,284.0250487999292,285.02747580001596,284.0250487999292,285.02747580001596,284.0250487999292,285.02747580001596,284.0250487999292,284.52614079997875,284.0250487999292,284.52614079997875,284.0250487999292,284.52614079997875,284.0250487999292,284.52614079997875,284.0250487999292,None,0.1727680000476539,,,,,12006,001,2024_Jun_13_1739,nback,2021.2.3,59.503231308789424,
2-back,instructions\back-2.png,conditions\21back-e.xlsx,,,,,,,,,,,,,,,,,,,,,,,0,2,2,3,,,,,,,,,,,,,,,,,,,,,,,,,,,,,,,,,,,,,,,,,,,,,,,,,,,,,,,,,,,,,,,,,,,,,,,,,,,,,,,,,,,,,285.5285436999984,None,,,12006,001,2024_Jun_13_1739,nback,2021.2.3,59.503231308789424,
0-back,instructions\back-0.png,conditions\00back-e.xlsx,,,experiment,0,3,stim\gray.png,stim\gray.png,stim\yellow.png,stim\gray.png,right,,,,,,,,,,,,,0,3,3,0,0,0,0,0,,,,,,,,,,,,,,,286.7290098000085,291.2368043999886,291.1706980000017,None,,,,,,,,,,,,,,,,,,,,,,,,,,,,,,,,,,,,,,right,1,291.537654499989,None,291.537654499989,None,291.537654499989,292.53884709998965,291.537654499989,292.53884709998965,291.537654499989,292.53884709998965,291.537654499989,292.53884709998965,291.537654499989,292.0383782000281,291.537654499989,292.0383782000281,291.537654499989,292.0383782000281,291.537654499989,292.0383782000281,291.537654499989,None,0.572306300047785,,,,,12006,001,2024_Jun_13_1739,nback,2021.2.3,59.503231308789424,
0-back,instructions\back-0.png,conditions\00back-e.xlsx,,,experiment,0,4,stim\gray.png,stim\gray.png,stim\gray.png,stim\yellow.png,down,,,,,,,,,,,,,0,3,3,0,0,1,1,1,,,,,,,,,,,,,,,,,,,,,,,,,,,,,,,,,,,,,,,,,,,,,,,,,,,,,,,,down,1,293.0230534999864,None,293.0230534999864,None,293.0230534999864,294.02363319997676,293.0230534999864,294.02363319997676,293.0230534999864,294.02363319997676,293.0230534999864,294.02363319997676,293.0230534999864,293.5228869999992,293.0230534999864,293.5228869999992,293.0230534999864,293.5228869999992,293.0230534999864,293.5228869999992,293.0230534999864,None,0.3994089999468997,,,,,12006,001,2024_Jun_13_1739,nback,2021.2.3,59.503231308789424,
0-back,instructions\back-0.png,conditions\00back-e.xlsx,,,experiment,0,1,stim\yellow.png,stim\gray.png,stim\gray.png,stim\gray.png,up,,,,,,,,,,,,,0,3,3,0,0,2,2,2,,,,,,,,,,,,,,,,,,,,,,,,,,,,,,,,,,,,,,,,,,,,,,,,,,,,,,,,up,1,294.524720299989,None,294.524720299989,None,294.524720299989,295.52700290002394,294.524720299989,295.52700290002394,294.524720299989,295.52700290002394,294.524720299989,295.52700290002394,294.524720299989,295.02506040001754,294.524720299989,295.02506040001754,294.524720299989,295.02506040001754,294.524720299989,295.02506040001754,294.524720299989,None,0.3934316000668332,,,,,12006,001,2024_Jun_13_1739,nback,2021.2.3,59.503231308789424,
0-back,instructions\back-0.png,conditions\00back-e.xlsx,,,experiment,0,2,stim\gray.png,stim\yellow.png,stim\gray.png,stim\gray.png,left,,,,,,,,,,,,,0,3,3,0,0,3,3,3,,,,,,,,,,,,,,,,,,,,,,,,,,,,,,,,,,,,,,,,,,,,,,,,,,,,,,,,left,1,296.026709400001,None,296.026709400001,None,296.026709400001,297.0295058999909,296.026709400001,297.0295058999909,296.026709400001,297.0295058999909,296.026709400001,297.0295058999909,296.026709400001,296.5274624999147,296.026709400001,296.5274624999147,296.026709400001,296.5274624999147,296.026709400001,296.5274624999147,296.026709400001,None,0.32355690002441406,,,,,12006,001,2024_Jun_13_1739,nback,2021.2.3,59.503231308789424,
0-back,instructions\back-0.png,conditions\00back-e.xlsx,,,experiment,0,2,stim\gray.png,stim\yellow.png,stim\gray.png,stim\gray.png,left,,,,,,,,,,,,,0,3,3,0,0,4,4,4,,,,,,,,,,,,,,,,,,,,,,,,,,,,,,,,,,,,,,,,,,,,,,,,,,,,,,,,left,1,297.5290066000307,None,297.5290066000307,None,297.5290066000307,298.5306980999885,297.5290066000307,298.5306980999885,297.5290066000307,298.5306980999885,297.5290066000307,298.5306980999885,297.5290066000307,298.02973349997774,297.5290066000307,298.02973349997774,297.5290066000307,298.02973349997774,297.5290066000307,298.02973349997774,297.5290066000307,None,0.3814813999924809,,,,,12006,001,2024_Jun_13_1739,nback,2021.2.3,59.503231308789424,
0-back,instructions\back-0.png,conditions\00back-e.xlsx,,,experiment,0,1,stim\yellow.png,stim\gray.png,stim\gray.png,stim\gray.png,up,,,,,,,,,,,,,0,3,3,0,0,5,5,5,,,,,,,,,,,,,,,,,,,,,,,,,,,,,,,,,,,,,,,,,,,,,,,,,,,,,,,,up,1,299.0312944999896,None,299.0312944999896,None,299.0312944999896,300.0327191000106,299.0312944999896,300.0327191000106,299.0312944999896,300.0327191000106,299.0312944999896,300.0327191000106,299.0312944999896,299.53198720002547,299.0312944999896,299.53198720002547,299.0312944999896,299.53198720002547,299.0312944999896,299.53198720002547,299.0312944999896,None,0.31094529991969466,,,,,12006,001,2024_Jun_13_1739,nback,2021.2.3,59.503231308789424,
0-back,instructions\back-0.png,conditions\00back-e.xlsx,,,experiment,0,4,stim\gray.png,stim\gray.png,stim\gray.png,stim\yellow.png,down,,,,,,,,,,,,,0,3,3,0,0,6,6,6,,,,,,,,,,,,,,,,,,,,,,,,,,,,,,,,,,,,,,,,,,,,,,,,,,,,,,,,down,1,300.5333849999588,None,300.5333849999588,None,300.5333849999588,301.5357809999259,300.5333849999588,301.5357809999259,300.5333849999588,301.5357809999259,300.5333849999588,301.5357809999259,300.5333849999588,301.0342579999706,300.5333849999588,301.0342579999706,300.5333849999588,301.0342579999706,300.5333849999588,301.0342579999706,300.5333849999588,None,0.4811415000585839,,,,,12006,001,2024_Jun_13_1739,nback,2021.2.3,59.503231308789424,
0-back,instructions\back-0.png,conditions\00back-e.xlsx,,,experiment,0,3,stim\gray.png,stim\gray.png,stim\yellow.png,stim\gray.png,right,,,,,,,,,,,,,0,3,3,0,0,7,7,7,,,,,,,,,,,,,,,,,,,,,,,,,,,,,,,,,,,,,,,,,,,,,,,,,,,,,,,,right,1,302.0358435999369,None,302.0358435999369,None,302.0358435999369,303.0378903999226,302.0358435999369,303.0378903999226,302.0358435999369,303.0378903999226,302.0358435999369,303.0378903999226,302.0358435999369,302.5375826000236,302.0358435999369,302.5375826000236,302.0358435999369,302.5375826000236,302.0358435999369,302.5375826000236,302.0358435999369,None,0.34658960008528084,,,,,12006,001,2024_Jun_13_1739,nback,2021.2.3,59.503231308789424,
0-back,instructions\back-0.png,conditions\00back-e.xlsx,,,experiment,0,4,stim\gray.png,stim\gray.png,stim\gray.png,stim\yellow.png,down,,,,,,,,,,,,,0,3,3,0,0,8,8,8,,,,,,,,,,,,,,,,,,,,,,,,,,,,,,,,,,,,,,,,,,,,,,,,,,,,,,,,down,1,303.52150209993124,None,303.52150209993124,None,303.52150209993124,304.52297599997837,303.52150209993124,304.52297599997837,303.52150209993124,304.52297599997837,303.52150209993124,304.52297599997837,303.52150209993124,304.0230493999552,303.52150209993124,304.0230493999552,303.52150209993124,304.0230493999552,303.52150209993124,304.0230493999552,303.52150209993124,None,0.38870130002032965,,,,,12006,001,2024_Jun_13_1739,nback,2021.2.3,59.503231308789424,
0-back,instructions\back-0.png,conditions\00back-e.xlsx,,,experiment,0,3,stim\gray.png,stim\gray.png,stim\yellow.png,stim\gray.png,right,,,,,,,,,,,,,0,3,3,0,0,9,9,9,,,,,,,,,,,,,,,,,,,,,,,,,,,,,,,,,,,,,,,,,,,,,,,,,,,,,,,,right,1,305.02356639993377,None,305.02356639993377,None,305.02356639993377,306.0257662999211,305.02356639993377,306.0257662999211,305.02356639993377,306.0257662999211,305.02356639993377,306.0257662999211,305.02356639993377,305.52442000003066,305.02356639993377,305.52442000003066,305.02356639993377,305.52442000003066,305.02356639993377,305.52442000003066,305.02356639993377,None,0.2866805999074131,,,,,12006,001,2024_Jun_13_1739,nback,2021.2.3,59.503231308789424,
0-back,instructions\back-0.png,conditions\00back-e.xlsx,,,experiment,0,1,stim\yellow.png,stim\gray.png,stim\gray.png,stim\gray.png,up,,,,,,,,,,,,,0,3,3,0,0,10,10,10,,,,,,,,,,,,,,,,,,,,,,,,,,,,,,,,,,,,,,,,,,,,,,,,,,,,,,,,up,1,306.5259001000086,None,306.5259001000086,None,306.5259001000086,307.52856300002895,306.5259001000086,307.52856300002895,306.5259001000086,307.52856300002895,306.5259001000086,307.52856300002895,306.5259001000086,307.02735909994226,306.5259001000086,307.02735909994226,306.5259001000086,307.02735909994226,306.5259001000086,307.02735909994226,306.5259001000086,None,0.3362316999118775,,,,,12006,001,2024_Jun_13_1739,nback,2021.2.3,59.503231308789424,
0-back,instructions\back-0.png,conditions\00back-e.xlsx,,,experiment,0,2,stim\gray.png,stim\yellow.png,stim\gray.png,stim\gray.png,left,,,,,,,,,,,,,0,3,3,0,0,11,11,11,,,,,,,,,,,,,,,,,,,,,,,,,,,,,,,,,,,,,,,,,,,,,,,,,,,,,,,,left,1,308.02820339996833,None,308.02820339996833,None,308.02820339996833,309.0303249999415,308.02820339996833,309.0303249999415,308.02820339996833,309.0303249999415,308.02820339996833,309.0303249999415,308.02820339996833,308.52906700002495,308.02820339996833,308.52906700002495,308.02820339996833,308.52906700002495,308.02820339996833,308.52906700002495,308.02820339996833,None,0.31450620002578944,,,,,12006,001,2024_Jun_13_1739,nback,2021.2.3,59.503231308789424,
0-back,instructions\back-0.png,conditions\00back-e.xlsx,,,experiment,0,3,stim\gray.png,stim\gray.png,stim\yellow.png,stim\gray.png,right,,,,,,,,,,,,,0,3,3,0,0,12,12,12,,,,,,,,,,,,,,,,,,,,,,,,,,,,,,,,,,,,,,,,,,,,,,,,,,,,,,,,right,1,309.5303484000033,None,309.5303484000033,None,309.5303484000033,310.53201439999975,309.5303484000033,310.53201439999975,309.5303484000033,310.53201439999975,309.5303484000033,310.53201439999975,309.5303484000033,310.03121389995795,309.5303484000033,310.03121389995795,309.5303484000033,310.03121389995795,309.5303484000033,310.03121389995795,309.5303484000033,None,0.3562443000264466,,,,,12006,001,2024_Jun_13_1739,nback,2021.2.3,59.503231308789424,
0-back,instructions\back-0.png,conditions\00back-e.xlsx,,,experiment,0,1,stim\yellow.png,stim\gray.png,stim\gray.png,stim\gray.png,up,,,,,,,,,,,,,0,3,3,0,0,13,13,13,,,,,,,,,,,,,,,,,,,,,,,,,,,,,,,,,,,,,,,,,,,,,,,,,,,,,,,,up,1,311.03280769998673,None,311.03280769998673,None,311.03280769998673,312.03409720002674,311.03280769998673,312.03409720002674,311.03280769998673,312.03409720002674,311.03280769998673,312.03409720002674,311.03280769998673,311.53443789994344,311.03280769998673,311.53443789994344,311.03280769998673,311.53443789994344,311.03280769998673,311.53443789994344,311.03280769998673,None,0.26961720001418144,,,,,12006,001,2024_Jun_13_1739,nback,2021.2.3,59.503231308789424,
0-back,instructions\back-0.png,conditions\00back-e.xlsx,,,experiment,0,4,stim\gray.png,stim\gray.png,stim\gray.png,stim\yellow.png,down,,,,,,,,,,,,,0,3,3,0,0,14,14,14,,,,,,,,,,,,,,,,,,,,,,,,,,,,,,,,,,,,,,,,,,,,,,,,,,,,,,,,down,1,312.53494009992573,None,312.53494009992573,None,312.53494009992573,313.53723829996306,312.53494009992573,313.53723829996306,312.53494009992573,313.53723829996306,312.53494009992573,313.53723829996306,312.53494009992573,313.03696950001176,312.53494009992573,313.03696950001176,312.53494009992573,313.03696950001176,312.53494009992573,313.03696950001176,312.53494009992573,None,0.45582749997265637,,,,,12006,001,2024_Jun_13_1739,nback,2021.2.3,59.503231308789424,
0-back,instructions\back-0.png,conditions\00back-e.xlsx,,,experiment,0,2,stim\gray.png,stim\yellow.png,stim\gray.png,stim\gray.png,left,,,,,,,,,,,,,0,3,3,0,0,15,15,15,,,,,,,,,,,,,,,,,,,,,,,,,,,,,,,,,,,,,,,,,,,,,,,,,,,,,,,,left,1,314.02050009998493,None,314.02050009998493,None,314.02050009998493,315.0219479999505,314.02050009998493,315.0219479999505,314.02050009998493,315.0219479999505,314.02050009998493,315.0219479999505,314.02050009998493,314.5215316999238,314.02050009998493,314.5215316999238,314.02050009998493,314.5215316999238,314.02050009998493,314.5215316999238,314.02050009998493,None,0.3385645999806002,,,,,12006,001,2024_Jun_13_1739,nback,2021.2.3,59.503231308789424,
0-back,instructions\back-0.png,conditions\00back-e.xlsx,,,experiment,0,1,stim\yellow.png,stim\gray.png,stim\gray.png,stim\gray.png,up,,,,,,,,,,,,,0,3,3,0,0,16,16,16,,,,,,,,,,,,,,,,,,,,,,,,,,,,,,,,,,,,,,,,,,,,,,,,,,,,,,,,up,1,315.52279940003064,None,315.52279940003064,None,315.52279940003064,316.5241818999639,315.52279940003064,316.5241818999639,315.52279940003064,316.5241818999639,315.52279940003064,316.5241818999639,315.52279940003064,316.0234521999955,315.52279940003064,316.0234521999955,315.52279940003064,316.0234521999955,315.52279940003064,316.0234521999955,315.52279940003064,None,0.3161198999732733,,,,,12006,001,2024_Jun_13_1739,nback,2021.2.3,59.503231308789424,
0-back,instructions\back-0.png,conditions\00back-e.xlsx,,,experiment,0,2,stim\gray.png,stim\yellow.png,stim\gray.png,stim\gray.png,left,,,,,,,,,,,,,0,3,3,0,0,17,17,17,,,,,,,,,,,,,,,,,,,,,,,,,,,,,,,,,,,,,,,,,,,,,,,,,,,,,,,,left,1,317.02603339997586,None,317.02603339997586,None,317.02603339997586,318.0267046999652,317.02603339997586,318.0267046999652,317.02603339997586,318.0267046999652,317.02603339997586,318.0267046999652,317.02603339997586,317.52688849996775,317.02603339997586,317.52688849996775,317.02603339997586,317.52688849996775,317.02603339997586,317.52688849996775,317.02603339997586,None,0.3569374999497086,,,,,12006,001,2024_Jun_13_1739,nback,2021.2.3,59.503231308789424,
