backseq,backinstr,backfile,instruction,size_in,Trialtype,back,number,P1,P2,P3,P4,corrAns,trials_practice.thisRepN,trials_practice.thisTrialN,trials_practice.thisN,trials_practice.thisIndex,trials.thisRepN,trials.thisTrialN,trials.thisN,trials.thisIndex,trials_3.thisRepN,trials_3.thisTrialN,trials_3.thisN,trials_3.thisIndex,trials_2.thisRepN,trials_2.thisTrialN,trials_2.thisN,trials_2.thisIndex,trials_4.thisRepN,trials_4.thisTrialN,trials_4.thisN,trials_4.thisIndex,image.started,image.stopped,image_2.started,image_2.stopped,key_resp.keys,key_resp.rt,key_resp.started,key_resp.stopped,image_3.started,image_3.stopped,key_resp_2.keys,key_resp_2.rt,key_resp_2.started,key_resp_2.stopped,image_4.started,image_4.stopped,text.started,text.stopped,H1.started,H1.stopped,H2.started,H2.stopped,H3.started,H3.stopped,H4.started,H4.stopped,key_resp_3.keys,key_resp_3.corr,key_resp_3.rt,key_resp_3.started,key_resp_3.stopped,text_4.started,text_4.stopped,F1.started,F1.stopped,F2.started,F2.stopped,F3.started,F3.stopped,F4.started,F4.stopped,image_7.started,image_7.stopped,text_5.started,text_5.stopped,key_resp_6.keys,key_resp_6.rt,key_resp_6.started,key_resp_6.stopped,image_5.started,image_5.stopped,key_resp_4.keys,key_resp_4.rt,key_resp_4.started,key_resp_4.stopped,key_resp_5.keys,key_resp_5.corr,key_resp_5.rt,key_resp_5.started,key_resp_5.stopped,text_3.started,text_3.stopped,H1_2.started,H1_2.stopped,H2_2.started,H2_2.stopped,H3_2.started,H3_2.stopped,H4_2.started,H4_2.stopped,F1_2.started,F1_2.stopped,F2_2.started,F2_2.stopped,F3_2.started,F3_2.stopped,F4_2.started,F4_2.stopped,image_8.started,image_8.stopped,text_2.started,text_2.stopped,image_6.started,image_6.stopped,participant,session,date,expName,psychopyVersion,frameRate,
,,,,,,,,,,,,,,,,,,,,,,,,,,,,,,,,,10.19946280005388,None,11.017684999969788,None,space,0.49671269999817014,11.017684999969788,None,,,,,,,,,,,,,,,,,,,,,,,,,,,,,,,,,,,,,,,,,,,,,,,,,,,,,,,,,,,,,,,,,,,,,,,,,,,,,12005,001,2024_Jun_13_1613,nback,2021.2.3,59.70498571627966,
0-back,instructions\back-0.png,conditions\0back-p.xlsx,instructions\0-BACK.png,"(15, 8)",practice,0,1,stim\yellow.png,stim\gray.png,stim\gray.png,stim\gray.png,up,0,0,0,0,0,0,0,0,0,0,0,0,,,,,,,,,,,,,,,,,11.56807509995997,None,space,3.1245383000932634,11.56807509995997,None,14.89001690002624,19.397920200019144,19.331184900016524,None,19.799257799983025,20.79964480001945,19.799257799983025,20.79964480001945,19.799257799983025,20.79964480001945,19.799257799983025,20.79964480001945,up,1,0.4912491000723094,19.799257799983025,None,19.799257799983025,None,19.799257799983025,20.315142199979164,19.799257799983025,20.315142199979164,19.799257799983025,20.315142199979164,19.799257799983025,20.315142199979164,19.799257799983025,None,,,,,,,,,,,,,,,,,,,,,,,,,,,,,,,,,,,,,,,,,,12005,001,2024_Jun_13_1613,nback,2021.2.3,59.70498571627966,
0-back,instructions\back-0.png,conditions\0back-p.xlsx,instructions\0-BACK.png,"(15, 8)",practice,0,2,stim\gray.png,stim\yellow.png,stim\gray.png,stim\gray.png,left,0,0,0,0,0,0,0,0,0,1,1,1,,,,,,,,,,,,,,,,,,,,,,,,,,,21.23314470006153,22.23474049998913,21.23314470006153,22.23474049998913,21.23314470006153,22.23474049998913,21.23314470006153,22.23474049998913,left,1,0.5696799999568611,21.23314470006153,None,21.23314470006153,None,21.23314470006153,21.734655000036582,21.23314470006153,21.734655000036582,21.23314470006153,21.734655000036582,21.23314470006153,21.734655000036582,21.23314470006153,None,,,,,,,,,,,,,,,,,,,,,,,,,,,,,,,,,,,,,,,,,,12005,001,2024_Jun_13_1613,nback,2021.2.3,59.70498571627966,
0-back,instructions\back-0.png,conditions\0back-p.xlsx,instructions\0-BACK.png,"(15, 8)",practice,0,3,stim\gray.png,stim\gray.png,stim\yellow.png,stim\gray.png,right,0,0,0,0,0,0,0,0,0,2,2,2,,,,,,,,,,,,,,,,,,,,,,,,,,,22.73540420003701,23.73777730006259,22.73540420003701,23.73777730006259,22.73540420003701,23.73777730006259,22.73540420003701,23.73777730006259,right,1,0.547355999937281,22.73540420003701,None,22.73540420003701,None,22.73540420003701,23.236931800027378,22.73540420003701,23.236931800027378,22.73540420003701,23.236931800027378,22.73540420003701,23.236931800027378,22.73540420003701,None,,,,,,,,,,,,,,,,,,,,,,,,,,,,,,,,,,,,,,,,,,12005,001,2024_Jun_13_1613,nback,2021.2.3,59.70498571627966,
0-back,instructions\back-0.png,conditions\0back-p.xlsx,instructions\0-BACK.png,"(15, 8)",practice,0,4,stim\gray.png,stim\gray.png,stim\gray.png,stim\yellow.png,down,0,0,0,0,0,0,0,0,0,3,3,3,,,,,,,,,,,,,,,,,,,,,,,,,,,24.237483900040388,25.238977700006217,24.237483900040388,25.238977700006217,24.237483900040388,25.238977700006217,24.237483900040388,25.238977700006217,down,1,0.5652670999988914,24.237483900040388,None,24.237483900040388,None,24.237483900040388,24.73937650001608,24.237483900040388,24.73937650001608,24.237483900040388,24.73937650001608,24.237483900040388,24.73937650001608,24.237483900040388,None,,,,,,,,,,,,,,,,,,,,,,,,,,,,,,,,,,,,,,,,,,12005,001,2024_Jun_13_1613,nback,2021.2.3,59.70498571627966,
0-back,instructions\back-0.png,conditions\0back-p.xlsx,instructions\0-BACK.png,"(15, 8)",practice,0,2,stim\gray.png,stim\yellow.png,stim\gray.png,stim\gray.png,left,0,0,0,0,0,0,0,0,0,4,4,4,,,,,,,,,,,,,,,,,,,,,,,,,,,25.739982899976894,26.742299300036393,25.739982899976894,26.742299300036393,25.739982899976894,26.742299300036393,25.739982899976894,26.742299300036393,left,1,0.4387607000535354,25.739982899976894,None,25.739982899976894,None,25.739982899976894,26.241347200004384,25.739982899976894,26.241347200004384,25.739982899976894,26.241347200004384,25.739982899976894,26.241347200004384,25.739982899976894,None,,,,,,,,,,,,,,,,,,,,,,,,,,,,,,,,,,,,,,,,,,12005,001,2024_Jun_13_1613,nback,2021.2.3,59.70498571627966,
0-back,instructions\back-0.png,conditions\0back-p.xlsx,instructions\0-BACK.png,"(15, 8)",practice,0,1,stim\yellow.png,stim\gray.png,stim\gray.png,stim\gray.png,up,0,0,0,0,0,0,0,0,0,5,5,5,,,,,,,,,,,,,,,,,,,,,,,,,,,27.242102100048214,28.2436510999687,27.242102100048214,28.2436510999687,27.242102100048214,28.2436510999687,27.242102100048214,28.2436510999687,up,1,0.5531945999246091,27.242102100048214,None,27.242102100048214,None,27.242102100048214,27.74278770003002,27.242102100048214,27.74278770003002,27.242102100048214,27.74278770003002,27.242102100048214,27.74278770003002,27.242102100048214,None,,,,,,,,,,,,,,,,,,,,,,,,,,,,,,,,,,,,,,,,,,12005,001,2024_Jun_13_1613,nback,2021.2.3,59.70498571627966,
0-back,instructions\back-0.png,conditions\0back-p.xlsx,instructions\0-BACK.png,"(15, 8)",practice,0,4,stim\gray.png,stim\gray.png,stim\gray.png,stim\yellow.png,down,0,0,0,0,0,0,0,0,0,6,6,6,,,,,,,,,,,,,,,,,,,,,,,,,,,28.74439370003529,29.74590600002557,28.74439370003529,29.74590600002557,28.74439370003529,29.74590600002557,28.74439370003529,29.74590600002557,down,1,0.31422309996560216,28.74439370003529,None,28.74439370003529,None,28.74439370003529,29.245192400063388,28.74439370003529,29.245192400063388,28.74439370003529,29.245192400063388,28.74439370003529,29.245192400063388,28.74439370003529,None,,,,,,,,,,,,,,,,,,,,,,,,,,,,,,,,,,,,,,,,,,12005,001,2024_Jun_13_1613,nback,2021.2.3,59.70498571627966,
0-back,instructions\back-0.png,conditions\0back-p.xlsx,instructions\0-BACK.png,"(15, 8)",practice,0,3,stim\gray.png,stim\gray.png,stim\yellow.png,stim\gray.png,right,0,0,0,0,0,0,0,0,0,7,7,7,,,,,,,,,,,,,,,,,,,,,,,,,,,30.229884700034745,31.23177289997693,30.229884700034745,31.23177289997693,30.229884700034745,31.23177289997693,30.229884700034745,31.23177289997693,right,1,0.3490100000053644,30.229884700034745,None,30.229884700034745,None,30.229884700034745,30.730595199973322,30.229884700034745,30.730595199973322,30.229884700034745,30.730595199973322,30.229884700034745,30.730595199973322,30.229884700034745,None,,,,,,,,,,,,,,,,,,,,,,,,,,,,,,,,,,,,,,,,,,12005,001,2024_Jun_13_1613,nback,2021.2.3,59.70498571627966,
0-back,instructions\back-0.png,conditions\0back-p.xlsx,instructions\0-BACK.png,"(15, 8)",practice,0,3,stim\gray.png,stim\gray.png,stim\yellow.png,stim\gray.png,right,0,0,0,0,0,0,0,0,0,8,8,8,,,,,,,,,,,,,,,,,,,,,,,,,,,31.732132700039074,32.73409389995504,31.732132700039074,32.73409389995504,31.732132700039074,32.73409389995504,31.732132700039074,32.73409389995504,right,1,0.3428403999423608,31.732132700039074,None,31.732132700039074,None,31.732132700039074,32.23303860006854,31.732132700039074,32.23303860006854,31.732132700039074,32.23303860006854,31.732132700039074,32.23303860006854,31.732132700039074,None,,,,,,,,,,,,,,,,,,,,,,,,,,,,,,,,,,,,,,,,,,12005,001,2024_Jun_13_1613,nback,2021.2.3,59.70498571627966,
0-back,instructions\back-0.png,conditions\0back-p.xlsx,instructions\0-BACK.png,"(15, 8)",practice,0,4,stim\gray.png,stim\gray.png,stim\gray.png,stim\yellow.png,down,0,0,0,0,0,0,0,0,0,9,9,9,,,,,,,,,,,,,,,,,,,,,,,,,,,33.234388799988665,34.23591240006499,33.234388799988665,34.23591240006499,33.234388799988665,34.23591240006499,33.234388799988665,34.23591240006499,down,1,0.3047192000085488,33.234388799988665,None,33.234388799988665,None,33.234388799988665,33.735402400023304,33.234388799988665,33.735402400023304,33.234388799988665,33.735402400023304,33.234388799988665,33.735402400023304,33.234388799988665,None,,,,,,,,,,,,,,,,,,,,,,,,,,,,,,,,,,,,,,,,,,12005,001,2024_Jun_13_1613,nback,2021.2.3,59.70498571627966,
0-back,instructions\back-0.png,conditions\0back-p.xlsx,instructions\0-BACK.png,"(15, 8)",practice,0,1,stim\yellow.png,stim\gray.png,stim\gray.png,stim\gray.png,up,0,0,0,0,0,0,0,0,0,10,10,10,,,,,,,,,,,,,,,,,,,,,,,,,,,34.737590500037186,35.73834999999963,34.737590500037186,35.73834999999963,34.737590500037186,35.73834999999963,34.737590500037186,35.73834999999963,up,1,0.3772781000006944,34.737590500037186,None,34.737590500037186,None,34.737590500037186,35.237609500065446,34.737590500037186,35.237609500065446,34.737590500037186,35.237609500065446,34.737590500037186,35.237609500065446,34.737590500037186,None,,,,,,,,,,,,,,,,,,,,,,,,,,,,,,,,,,,,,,,,,,12005,001,2024_Jun_13_1613,nback,2021.2.3,59.70498571627966,
0-back,instructions\back-0.png,conditions\0back-p.xlsx,instructions\0-BACK.png,"(15, 8)",practice,0,2,stim\gray.png,stim\yellow.png,stim\gray.png,stim\gray.png,left,0,0,0,0,0,0,0,0,0,11,11,11,,,,,,,,,,,,,,,,,,,,,,,,,,,36.239521399955265,37.24061189999338,36.239521399955265,37.24061189999338,36.239521399955265,37.24061189999338,36.239521399955265,37.24061189999338,left,1,0.34022309991996735,36.239521399955265,None,36.239521399955265,None,36.239521399955265,36.74015089997556,36.239521399955265,36.74015089997556,36.239521399955265,36.74015089997556,36.239521399955265,36.74015089997556,36.239521399955265,None,,,,,,,,,,,,,,,,,,,,,,,,,,,,,,,,,,,,,,,,,,12005,001,2024_Jun_13_1613,nback,2021.2.3,59.70498571627966,
0-back,instructions\back-0.png,conditions\0back-p.xlsx,instructions\0-BACK.png,"(15, 8)",practice,0,4,stim\gray.png,stim\gray.png,stim\gray.png,stim\yellow.png,down,0,0,0,0,0,0,0,0,0,12,12,12,,,,,,,,,,,,,,,,,,,,,,,,,,,37.74117649998516,38.742757600033656,37.74117649998516,38.742757600033656,37.74117649998516,38.742757600033656,37.74117649998516,38.742757600033656,down,1,0.39814790000673383,37.74117649998516,None,37.74117649998516,None,37.74117649998516,38.242068400024436,37.74117649998516,38.242068400024436,37.74117649998516,38.242068400024436,37.74117649998516,38.242068400024436,37.74117649998516,None,,,,,,,,,,,,,,,,,,,,,,,,,,,,,,,,,,,,,,,,,,12005,001,2024_Jun_13_1613,nback,2021.2.3,59.70498571627966,
0-back,instructions\back-0.png,conditions\0back-p.xlsx,instructions\0-BACK.png,"(15, 8)",practice,0,3,stim\gray.png,stim\gray.png,stim\yellow.png,stim\gray.png,right,0,0,0,0,0,0,0,0,0,13,13,13,,,,,,,,,,,,,,,,,,,,,,,,,,,39.24358660005964,40.24610680004116,39.24358660005964,40.24610680004116,39.24358660005964,40.24610680004116,39.24358660005964,40.24610680004116,right,1,0.33543819992337376,39.24358660005964,None,39.24358660005964,None,39.24358660005964,39.74398030003067,39.24358660005964,39.74398030003067,39.24358660005964,39.74398030003067,39.24358660005964,39.74398030003067,39.24358660005964,None,,,,,,,,,,,,,,,,,,,,,,,,,,,,,,,,,,,,,,,,,,12005,001,2024_Jun_13_1613,nback,2021.2.3,59.70498571627966,
0-back,instructions\back-0.png,conditions\0back-p.xlsx,instructions\0-BACK.png,"(15, 8)",practice,0,1,stim\yellow.png,stim\gray.png,stim\gray.png,stim\gray.png,up,0,0,0,0,0,0,0,0,0,14,14,14,,,,,,,,,,,,,,,,,,,,,,,,,,,40.72904919995926,41.730416500009596,40.72904919995926,41.730416500009596,40.72904919995926,41.730416500009596,40.72904919995926,41.730416500009596,up,1,0.45167390001006424,40.72904919995926,None,40.72904919995926,None,40.72904919995926,41.22996879997663,40.72904919995926,41.22996879997663,40.72904919995926,41.22996879997663,40.72904919995926,41.22996879997663,40.72904919995926,None,,,,,,,,,,,,,,,,,,,,,,,,,,,,,,,,,,,,,,,,,,12005,001,2024_Jun_13_1613,nback,2021.2.3,59.70498571627966,
0-back,instructions\back-0.png,conditions\0back-p.xlsx,instructions\0-BACK.png,"(15, 8)",practice,0,2,stim\gray.png,stim\yellow.png,stim\gray.png,stim\gray.png,left,0,0,0,0,0,0,0,0,0,15,15,15,,,,,,,,,,,,,,,,,,,,,,,,,,,42.23135400004685,43.232846200000495,42.23135400004685,43.232846200000495,42.23135400004685,43.232846200000495,42.23135400004685,43.232846200000495,left,1,0.34834209992550313,42.23135400004685,None,42.23135400004685,None,42.23135400004685,42.7320708000334,42.23135400004685,42.7320708000334,42.23135400004685,42.7320708000334,42.23135400004685,42.7320708000334,42.23135400004685,None,,,,,,,,,,,,,,,,,,,,,,,,,,,,,,,,,,,,,,,,,,12005,001,2024_Jun_13_1613,nback,2021.2.3,59.70498571627966,
0-back,instructions\back-0.png,conditions\0back-p.xlsx,instructions\0-BACK.png,"(15, 8)",practice,0,3,stim\gray.png,stim\gray.png,stim\yellow.png,stim\gray.png,right,0,0,0,0,0,0,0,0,0,16,16,16,,,,,,,,,,,,,,,,,,,,,,,,,,,43.73365690000355,44.73520750005264,43.73365690000355,44.73520750005264,43.73365690000355,44.73520750005264,43.73365690000355,44.73520750005264,right,1,0.365887499996461,43.73365690000355,None,43.73365690000355,None,43.73365690000355,44.23464729997795,43.73365690000355,44.23464729997795,43.73365690000355,44.23464729997795,43.73365690000355,44.23464729997795,43.73365690000355,None,,,,,,,,,,,,,,,,,,,,,,,,,,,,,,,,,,,,,,,,,,12005,001,2024_Jun_13_1613,nback,2021.2.3,59.70498571627966,
0-back,instructions\back-0.png,conditions\0back-p.xlsx,instructions\0-BACK.png,"(15, 8)",practice,0,1,stim\yellow.png,stim\gray.png,stim\gray.png,stim\gray.png,up,0,0,0,0,0,0,0,0,0,17,17,17,,,,,,,,,,,,,,,,,,,,,,,,,,,45.23581780004315,46.237232099985704,45.23581780004315,46.237232099985704,45.23581780004315,46.237232099985704,45.23581780004315,46.237232099985704,up,1,0.4076154000358656,45.23581780004315,None,45.23581780004315,None,45.23581780004315,45.7374562000623,45.23581780004315,45.7374562000623,45.23581780004315,45.7374562000623,45.23581780004315,45.7374562000623,45.23581780004315,None,,,,,,,,,,,,,,,,,,,,,,,,,,,,,,,,,,,,,,,,,,12005,001,2024_Jun_13_1613,nback,2021.2.3,59.70498571627966,
0-back,instructions\back-0.png,conditions\0back-p.xlsx,instructions\0-BACK.png,"(15, 8)",practice,0,4,stim\gray.png,stim\gray.png,stim\gray.png,stim\yellow.png,down,0,0,0,0,0,0,0,0,0,18,18,18,,,,,,,,,,,,,,,,,,,,,,,,,,,46.737994399969466,47.74018459999934,46.737994399969466,47.74018459999934,46.737994399969466,47.74018459999934,46.737994399969466,47.74018459999934,down,1,0.24111019994597882,46.737994399969466,None,46.737994399969466,None,46.737994399969466,47.23859620001167,46.737994399969466,47.23859620001167,46.737994399969466,47.23859620001167,46.737994399969466,47.23859620001167,46.737994399969466,None,,,,,,,,,,,,,,,,,,,,,,,,,,,,,,,,,,,,,,,,,,12005,001,2024_Jun_13_1613,nback,2021.2.3,59.70498571627966,
0-back,instructions\back-0.png,conditions\0back-p.xlsx,instructions\0-BACK.png,"(15, 8)",practice,0,2,stim\gray.png,stim\yellow.png,stim\gray.png,stim\gray.png,left,0,0,0,0,0,0,0,0,0,19,19,19,,,,,,,,,,,,,,,,,,,,,,,,,,,48.24036249995697,49.2427835999988,48.24036249995697,49.2427835999988,48.24036249995697,49.2427835999988,48.24036249995697,49.2427835999988,left,1,0.26712279999628663,48.24036249995697,None,48.24036249995697,None,48.24036249995697,48.74203840002883,48.24036249995697,48.74203840002883,48.24036249995697,48.74203840002883,48.24036249995697,48.74203840002883,48.24036249995697,None,,,,,,,,,,,,,,,,,,,,,,,,,,,,,,,,,,,,,,,,,,12005,001,2024_Jun_13_1613,nback,2021.2.3,59.70498571627966,
0-back,instructions\back-0.png,conditions\0back-p.xlsx,instructions\0-BACK.png,"(15, 8)",,,,,,,,,0,0,0,0,0,0,0,0,,,,,,,,,,,,,,,,,,,,,,,,,,,,,,,,,,,,,,,,,,,,,,,,,,,,,,,,,,,,,,,,,,,,,,,,,,,,,,,,,,,,,,,,,,,,,,,,,12005,001,2024_Jun_13_1613,nback,2021.2.3,59.70498571627966,
1-back,instructions\back-1.png,conditions\1back-p.xlsx,instructions\1-BACK.png,"(25, 15)",practice,1,1,stim\yellow.png,stim\gray.png,stim\gray.png,stim\gray.png,None,0,0,0,0,0,1,1,1,0,0,0,0,,,,,,,,,,,,,,,,,49.92624249996152,None,space,3.8527847999939695,49.92624249996152,None,53.915444000042044,58.423609300050884,58.406409300048836,None,58.82364249997772,59.82446989999153,58.82364249997772,59.82446989999153,58.82364249997772,59.82446989999153,58.82364249997772,59.82446989999153,None,1,,58.82364249997772,None,58.82364249997772,None,58.82364249997772,59.325663800002076,58.82364249997772,59.325663800002076,58.82364249997772,59.325663800002076,58.82364249997772,59.325663800002076,58.82364249997772,None,,,,,,,,,,,,,,,,,,,,,,,,,,,,,,,,,,,,,,,,,,12005,001,2024_Jun_13_1613,nback,2021.2.3,59.70498571627966,
1-back,instructions\back-1.png,conditions\1back-p.xlsx,instructions\1-BACK.png,"(25, 15)",practice,1,2,stim\gray.png,stim\yellow.png,stim\gray.png,stim\gray.png,up,0,0,0,0,0,1,1,1,0,1,1,1,,,,,,,,,,,,,,,,,,,,,,,,,,,60.30870990001131,61.31095049995929,60.30870990001131,61.31095049995929,60.30870990001131,61.31095049995929,60.30870990001131,61.31095049995929,up,1,0.43078260007314384,60.30870990001131,None,60.30870990001131,None,60.30870990001131,60.80926540005021,60.30870990001131,60.80926540005021,60.30870990001131,60.80926540005021,60.30870990001131,60.80926540005021,60.30870990001131,None,,,,,,,,,,,,,,,,,,,,,,,,,,,,,,,,,,,,,,,,,,12005,001,2024_Jun_13_1613,nback,2021.2.3,59.70498571627966,
1-back,instructions\back-1.png,conditions\1back-p.xlsx,instructions\1-BACK.png,"(25, 15)",practice,1,3,stim\gray.png,stim\gray.png,stim\yellow.png,stim\gray.png,left,0,0,0,0,0,1,1,1,0,2,2,2,,,,,,,,,,,,,,,,,,,,,,,,,,,61.81089379999321,62.812425300013274,61.81089379999321,62.812425300013274,61.81089379999321,62.812425300013274,61.81089379999321,62.812425300013274,left,1,1.3767714001005515,61.81089379999321,None,61.81089379999321,None,61.81089379999321,62.3123339000158,61.81089379999321,62.3123339000158,61.81089379999321,62.3123339000158,61.81089379999321,62.3123339000158,61.81089379999321,None,,,,,,,,,,,,,,,,,,,,,,,,,,,,,,,,,,,,,,,,,,12005,001,2024_Jun_13_1613,nback,2021.2.3,59.70498571627966,
1-back,instructions\back-1.png,conditions\1back-p.xlsx,instructions\1-BACK.png,"(25, 15)",practice,1,4,stim\gray.png,stim\gray.png,stim\gray.png,stim\yellow.png,right,0,0,0,0,0,1,1,1,0,3,3,3,,,,,,,,,,,,,,,,,,,,,,,,,,,63.31311580003239,64.31569590000436,63.31311580003239,64.31569590000436,63.31311580003239,64.31569590000436,63.31311580003239,64.31569590000436,right,1,1.3703571000369266,63.31311580003239,None,63.31311580003239,None,63.31311580003239,63.81393309996929,63.31311580003239,63.81393309996929,63.31311580003239,63.81393309996929,63.31311580003239,63.81393309996929,63.31311580003239,None,,,,,,,,,,,,,,,,,,,,,,,,,,,,,,,,,,,,,,,,,,12005,001,2024_Jun_13_1613,nback,2021.2.3,59.70498571627966,
1-back,instructions\back-1.png,conditions\1back-p.xlsx,instructions\1-BACK.png,"(25, 15)",practice,1,2,stim\gray.png,stim\yellow.png,stim\gray.png,stim\gray.png,down,0,0,0,0,0,1,1,1,0,4,4,4,,,,,,,,,,,,,,,,,,,,,,,,,,,64.81543089996558,65.81696670001838,64.81543089996558,65.81696670001838,64.81543089996558,65.81696670001838,64.81543089996558,65.81696670001838,None,0,,64.81543089996558,None,64.81543089996558,None,64.81543089996558,65.31671429995913,64.81543089996558,65.31671429995913,64.81543089996558,65.31671429995913,64.81543089996558,65.31671429995913,64.81543089996558,None,,,,,,,,,,,,,,,,,,,,,,,,,,,,,,,,,,,,,,,,,,12005,001,2024_Jun_13_1613,nback,2021.2.3,59.70498571627966,
1-back,instructions\back-1.png,conditions\1back-p.xlsx,instructions\1-BACK.png,"(25, 15)",practice,1,1,stim\yellow.png,stim\gray.png,stim\gray.png,stim\gray.png,left,0,0,0,0,0,1,1,1,0,5,5,5,,,,,,,,,,,,,,,,,,,,,,,,,,,66.31759830005467,67.31935390003491,66.31759830005467,67.31935390003491,66.31759830005467,67.31935390003491,66.31759830005467,67.31935390003491,left,1,0.3263788999756798,66.31759830005467,None,66.31759830005467,None,66.31759830005467,66.81890860002022,66.31759830005467,66.81890860002022,66.31759830005467,66.81890860002022,66.31759830005467,66.81890860002022,66.31759830005467,None,,,,,,,,,,,,,,,,,,,,,,,,,,,,,,,,,,,,,,,,,,12005,001,2024_Jun_13_1613,nback,2021.2.3,59.70498571627966,
1-back,instructions\back-1.png,conditions\1back-p.xlsx,instructions\1-BACK.png,"(25, 15)",practice,1,4,stim\gray.png,stim\gray.png,stim\gray.png,stim\yellow.png,up,0,0,0,0,0,1,1,1,0,6,6,6,,,,,,,,,,,,,,,,,,,,,,,,,,,67.80324310006108,68.80491679999977,67.80324310006108,68.80491679999977,67.80324310006108,68.80491679999977,67.80324310006108,68.80491679999977,up,1,0.496246499940753,67.80324310006108,None,67.80324310006108,None,67.80324310006108,68.30513450002763,67.80324310006108,68.30513450002763,67.80324310006108,68.30513450002763,67.80324310006108,68.30513450002763,67.80324310006108,None,,,,,,,,,,,,,,,,,,,,,,,,,,,,,,,,,,,,,,,,,,12005,001,2024_Jun_13_1613,nback,2021.2.3,59.70498571627966,
1-back,instructions\back-1.png,conditions\1back-p.xlsx,instructions\1-BACK.png,"(25, 15)",practice,1,3,stim\gray.png,stim\gray.png,stim\yellow.png,stim\gray.png,down,0,0,0,0,0,1,1,1,0,7,7,7,,,,,,,,,,,,,,,,,,,,,,,,,,,69.30537409998942,70.30786790000275,69.30537409998942,70.30786790000275,69.30537409998942,70.30786790000275,69.30537409998942,70.30786790000275,down,1,0.4104946000734344,69.30537409998942,None,69.30537409998942,None,69.30537409998942,69.80715210002381,69.30537409998942,69.80715210002381,69.30537409998942,69.80715210002381,69.30537409998942,69.80715210002381,69.30537409998942,None,,,,,,,,,,,,,,,,,,,,,,,,,,,,,,,,,,,,,,,,,,12005,001,2024_Jun_13_1613,nback,2021.2.3,59.70498571627966,
1-back,instructions\back-1.png,conditions\1back-p.xlsx,instructions\1-BACK.png,"(25, 15)",practice,1,3,stim\gray.png,stim\gray.png,stim\yellow.png,stim\gray.png,right,0,0,0,0,0,1,1,1,0,8,8,8,,,,,,,,,,,,,,,,,,,,,,,,,,,70.80880120000802,71.80927840003278,70.80880120000802,71.80927840003278,70.80880120000802,71.80927840003278,70.80880120000802,71.80927840003278,right,1,0.41112529998645186,70.80880120000802,None,70.80880120000802,None,70.80880120000802,71.30865450005513,70.80880120000802,71.30865450005513,70.80880120000802,71.30865450005513,70.80880120000802,71.30865450005513,70.80880120000802,None,,,,,,,,,,,,,,,,,,,,,,,,,,,,,,,,,,,,,,,,,,12005,001,2024_Jun_13_1613,nback,2021.2.3,59.70498571627966,
1-back,instructions\back-1.png,conditions\1back-p.xlsx,instructions\1-BACK.png,"(25, 15)",practice,1,4,stim\gray.png,stim\gray.png,stim\gray.png,stim\yellow.png,right,0,0,0,0,0,1,1,1,0,9,9,9,,,,,,,,,,,,,,,,,,,,,,,,,,,72.31005390000064,73.31134130002465,72.31005390000064,73.31134130002465,72.31005390000064,73.31134130002465,72.31005390000064,73.31134130002465,right,1,0.445907499990426,72.31005390000064,None,72.31005390000064,None,72.31005390000064,72.81070799997542,72.31005390000064,72.81070799997542,72.31005390000064,72.81070799997542,72.31005390000064,72.81070799997542,72.31005390000064,None,,,,,,,,,,,,,,,,,,,,,,,,,,,,,,,,,,,,,,,,,,12005,001,2024_Jun_13_1613,nback,2021.2.3,59.70498571627966,
1-back,instructions\back-1.png,conditions\1back-p.xlsx,instructions\1-BACK.png,"(25, 15)",practice,1,1,stim\yellow.png,stim\gray.png,stim\gray.png,stim\gray.png,down,0,0,0,0,0,1,1,1,0,10,10,10,,,,,,,,,,,,,,,,,,,,,,,,,,,73.81282940006349,74.81382589996792,73.81282940006349,74.81382589996792,73.81282940006349,74.81382589996792,73.81282940006349,74.81382589996792,up,0,0.4391217000083998,73.81282940006349,None,73.81282940006349,None,73.81282940006349,74.3131758000236,73.81282940006349,74.3131758000236,73.81282940006349,74.3131758000236,73.81282940006349,74.3131758000236,73.81282940006349,None,,,,,,,,,,,,,,,,,,,,,,,,,,,,,,,,,,,,,,,,,,12005,001,2024_Jun_13_1613,nback,2021.2.3,59.70498571627966,
1-back,instructions\back-1.png,conditions\1back-p.xlsx,instructions\1-BACK.png,"(25, 15)",practice,1,2,stim\gray.png,stim\yellow.png,stim\gray.png,stim\gray.png,up,0,0,0,0,0,1,1,1,0,11,11,11,,,,,,,,,,,,,,,,,,,,,,,,,,,75.31623450003099,76.31669770006556,75.31623450003099,76.31669770006556,75.31623450003099,76.31669770006556,75.31623450003099,76.31669770006556,up,1,1.2000374000053853,75.31623450003099,None,75.31623450003099,None,75.31623450003099,75.81539080000948,75.31623450003099,75.81539080000948,75.31623450003099,75.81539080000948,75.31623450003099,75.81539080000948,75.31623450003099,None,,,,,,,,,,,,,,,,,,,,,,,,,,,,,,,,,,,,,,,,,,12005,001,2024_Jun_13_1613,nback,2021.2.3,59.70498571627966,
1-back,instructions\back-1.png,conditions\1back-p.xlsx,instructions\1-BACK.png,"(25, 15)",practice,1,4,stim\gray.png,stim\gray.png,stim\gray.png,stim\yellow.png,left,0,0,0,0,0,1,1,1,0,12,12,12,,,,,,,,,,,,,,,,,,,,,,,,,,,76.81675290002022,77.81827190006152,76.81675290002022,77.81827190006152,76.81675290002022,77.81827190006152,76.81675290002022,77.81827190006152,left,1,1.083438399946317,76.81675290002022,None,76.81675290002022,None,76.81675290002022,77.3183510999661,76.81675290002022,77.3183510999661,76.81675290002022,77.3183510999661,76.81675290002022,77.3183510999661,76.81675290002022,None,,,,,,,,,,,,,,,,,,,,,,,,,,,,,,,,,,,,,,,,,,12005,001,2024_Jun_13_1613,nback,2021.2.3,59.70498571627966,
1-back,instructions\back-1.png,conditions\1back-p.xlsx,instructions\1-BACK.png,"(25, 15)",practice,1,3,stim\gray.png,stim\gray.png,stim\yellow.png,stim\gray.png,down,0,0,0,0,0,1,1,1,0,13,13,13,,,,,,,,,,,,,,,,,,,,,,,,,,,78.3023494000081,79.3039332999615,78.3023494000081,79.3039332999615,78.3023494000081,79.3039332999615,78.3023494000081,79.3039332999615,None,0,,78.3023494000081,None,78.3023494000081,None,78.3023494000081,78.80286140006501,78.3023494000081,78.80286140006501,78.3023494000081,78.80286140006501,78.3023494000081,78.80286140006501,78.3023494000081,None,,,,,,,,,,,,,,,,,,,,,,,,,,,,,,,,,,,,,,,,,,12005,001,2024_Jun_13_1613,nback,2021.2.3,59.70498571627966,
1-back,instructions\back-1.png,conditions\1back-p.xlsx,instructions\1-BACK.png,"(25, 15)",practice,1,1,stim\yellow.png,stim\gray.png,stim\gray.png,stim\gray.png,right,0,0,0,0,0,1,1,1,0,14,14,14,,,,,,,,,,,,,,,,,,,,,,,,,,,79.80531640001573,80.80681330000516,79.80531640001573,80.80681330000516,79.80531640001573,80.80681330000516,79.80531640001573,80.80681330000516,right,1,0.9029656000202522,79.80531640001573,None,79.80531640001573,None,79.80531640001573,80.30550270003732,79.80531640001573,80.30550270003732,79.80531640001573,80.30550270003732,79.80531640001573,80.30550270003732,79.80531640001573,None,,,,,,,,,,,,,,,,,,,,,,,,,,,,,,,,,,,,,,,,,,12005,001,2024_Jun_13_1613,nback,2021.2.3,59.70498571627966,
1-back,instructions\back-1.png,conditions\1back-p.xlsx,instructions\1-BACK.png,"(25, 15)",practice,1,2,stim\gray.png,stim\yellow.png,stim\gray.png,stim\gray.png,up,0,0,0,0,0,1,1,1,0,15,15,15,,,,,,,,,,,,,,,,,,,,,,,,,,,81.3070269000018,82.30932080000639,81.3070269000018,82.30932080000639,81.3070269000018,82.30932080000639,81.3070269000018,82.30932080000639,left,0,0.9130355999805033,81.3070269000018,None,81.3070269000018,None,81.3070269000018,81.80761979997624,81.3070269000018,81.80761979997624,81.3070269000018,81.80761979997624,81.3070269000018,81.80761979997624,81.3070269000018,None,,,,,,,,,,,,,,,,,,,,,,,,,,,,,,,,,,,,,,,,,,12005,001,2024_Jun_13_1613,nback,2021.2.3,59.70498571627966,
1-back,instructions\back-1.png,conditions\1back-p.xlsx,instructions\1-BACK.png,"(25, 15)",practice,1,3,stim\gray.png,stim\gray.png,stim\yellow.png,stim\gray.png,left,0,0,0,0,0,1,1,1,0,16,16,16,,,,,,,,,,,,,,,,,,,,,,,,,,,82.80928849999327,83.81085690006148,82.80928849999327,83.81085690006148,82.80928849999327,83.81085690006148,82.80928849999327,83.81085690006148,None,0,,82.80928849999327,None,82.80928849999327,None,82.80928849999327,83.30993850005325,82.80928849999327,83.30993850005325,82.80928849999327,83.30993850005325,82.80928849999327,83.30993850005325,82.80928849999327,None,,,,,,,,,,,,,,,,,,,,,,,,,,,,,,,,,,,,,,,,,,12005,001,2024_Jun_13_1613,nback,2021.2.3,59.70498571627966,
1-back,instructions\back-1.png,conditions\1back-p.xlsx,instructions\1-BACK.png,"(25, 15)",practice,1,1,stim\yellow.png,stim\gray.png,stim\gray.png,stim\gray.png,right,0,0,0,0,0,1,1,1,0,17,17,17,,,,,,,,,,,,,,,,,,,,,,,,,,,84.31130060006399,85.31301659997553,84.31130060006399,85.31301659997553,84.31130060006399,85.31301659997553,84.31130060006399,85.31301659997553,right,1,0.4769808000419289,84.31130060006399,None,84.31130060006399,None,84.31130060006399,84.81350809999276,84.31130060006399,84.81350809999276,84.31130060006399,84.81350809999276,84.31130060006399,84.81350809999276,84.31130060006399,None,,,,,,,,,,,,,,,,,,,,,,,,,,,,,,,,,,,,,,,,,,12005,001,2024_Jun_13_1613,nback,2021.2.3,59.70498571627966,
1-back,instructions\back-1.png,conditions\1back-p.xlsx,instructions\1-BACK.png,"(25, 15)",practice,1,4,stim\gray.png,stim\gray.png,stim\gray.png,stim\yellow.png,up,0,0,0,0,0,1,1,1,0,18,18,18,,,,,,,,,,,,,,,,,,,,,,,,,,,85.8137340999674,86.81528940005228,85.8137340999674,86.81528940005228,85.8137340999674,86.81528940005228,85.8137340999674,86.81528940005228,up,1,0.9031976999249309,85.8137340999674,None,85.8137340999674,None,85.8137340999674,86.3144182000542,85.8137340999674,86.3144182000542,85.8137340999674,86.3144182000542,85.8137340999674,86.3144182000542,85.8137340999674,None,,,,,,,,,,,,,,,,,,,,,,,,,,,,,,,,,,,,,,,,,,12005,001,2024_Jun_13_1613,nback,2021.2.3,59.70498571627966,
1-back,instructions\back-1.png,conditions\1back-p.xlsx,instructions\1-BACK.png,"(25, 15)",practice,1,2,stim\gray.png,stim\yellow.png,stim\gray.png,stim\gray.png,down,0,0,0,0,0,1,1,1,0,19,19,19,,,,,,,,,,,,,,,,,,,,,,,,,,,87.31601159996353,88.31745550001506,87.31601159996353,88.31745550001506,87.31601159996353,88.31745550001506,87.31601159996353,88.31745550001506,down,1,1.3360392999602482,87.31601159996353,None,87.31601159996353,None,87.31601159996353,87.81686270004138,87.31601159996353,87.81686270004138,87.31601159996353,87.81686270004138,87.31601159996353,87.81686270004138,87.31601159996353,None,,,,,,,,,,,,,,,,,,,,,,,,,,,,,,,,,,,,,,,,,,12005,001,2024_Jun_13_1613,nback,2021.2.3,59.70498571627966,
1-back,instructions\back-1.png,conditions\1back-p.xlsx,instructions\1-BACK.png,"(25, 15)",,,,,,,,,0,0,0,0,0,1,1,1,,,,,,,,,,,,,,,,,,,,,,,,,,,,,,,,,,,,,,,,,,,,,,,,,,,,,,,,,,,,,,,,,,,,,,,,,,,,,,,,,,,,,,,,,,,,,,,,,12005,001,2024_Jun_13_1613,nback,2021.2.3,59.70498571627966,
2-back,instructions\back-2.png,conditions\2back-p.xlsx,instructions\2-BACK.png,"(25, 15)",practice,2,1,stim\yellow.png,stim\gray.png,stim\gray.png,stim\gray.png,None,0,0,0,0,0,2,2,2,0,0,0,0,,,,,,,,,,,,,,,,,88.96839110006113,None,space,8.596109099918976,88.96839110006113,None,97.7650386999594,102.27188729995396,102.22179930005223,None,102.606483999989,103.6073527999688,102.606483999989,103.6073527999688,102.606483999989,103.6073527999688,102.606483999989,103.6073527999688,None,1,,102.606483999989,None,102.606483999989,None,102.606483999989,103.10643519996665,102.606483999989,103.10643519996665,102.606483999989,103.10643519996665,102.606483999989,103.10643519996665,102.606483999989,None,,,,,,,,,,,,,,,,,,,,,,,,,,,,,,,,,,,,,,,,,,12005,001,2024_Jun_13_1613,nback,2021.2.3,59.70498571627966,
2-back,instructions\back-2.png,conditions\2back-p.xlsx,instructions\2-BACK.png,"(25, 15)",practice,2,2,stim\gray.png,stim\yellow.png,stim\gray.png,stim\gray.png,None,0,0,0,0,0,2,2,2,0,1,1,1,,,,,,,,,,,,,,,,,,,,,,,,,,,104.09137499995995,105.09296719997656,104.09137499995995,105.09296719997656,104.09137499995995,105.09296719997656,104.09137499995995,105.09296719997656,None,1,,104.09137499995995,None,104.09137499995995,None,104.09137499995995,104.59212130005471,104.09137499995995,104.59212130005471,104.09137499995995,104.59212130005471,104.09137499995995,104.59212130005471,104.09137499995995,None,,,,,,,,,,,,,,,,,,,,,,,,,,,,,,,,,,,,,,,,,,12005,001,2024_Jun_13_1613,nback,2021.2.3,59.70498571627966,
2-back,instructions\back-2.png,conditions\2back-p.xlsx,instructions\2-BACK.png,"(25, 15)",practice,2,3,stim\gray.png,stim\gray.png,stim\yellow.png,stim\gray.png,up,0,0,0,0,0,2,2,2,0,2,2,2,,,,,,,,,,,,,,,,,,,,,,,,,,,105.59519070002716,106.59725520003121,105.59519070002716,106.59725520003121,105.59519070002716,106.59725520003121,105.59519070002716,106.59725520003121,left,0,1.2255208999849856,105.59519070002716,None,105.59519070002716,None,105.59519070002716,106.09525210002903,105.59519070002716,106.09525210002903,105.59519070002716,106.09525210002903,105.59519070002716,106.09525210002903,105.59519070002716,None,,,,,,,,,,,,,,,,,,,,,,,,,,,,,,,,,,,,,,,,,,12005,001,2024_Jun_13_1613,nback,2021.2.3,59.70498571627966,
2-back,instructions\back-2.png,conditions\2back-p.xlsx,instructions\2-BACK.png,"(25, 15)",practice,2,4,stim\gray.png,stim\gray.png,stim\gray.png,stim\yellow.png,left,0,0,0,0,0,2,2,2,0,3,3,3,,,,,,,,,,,,,,,,,,,,,,,,,,,107.0957991000032,108.09736660006456,107.0957991000032,108.09736660006456,107.0957991000032,108.09736660006456,107.0957991000032,108.09736660006456,None,0,,107.0957991000032,None,107.0957991000032,None,107.0957991000032,107.59656920004636,107.0957991000032,107.59656920004636,107.0957991000032,107.59656920004636,107.0957991000032,107.59656920004636,107.0957991000032,None,,,,,,,,,,,,,,,,,,,,,,,,,,,,,,,,,,,,,,,,,,12005,001,2024_Jun_13_1613,nback,2021.2.3,59.70498571627966,
2-back,instructions\back-2.png,conditions\2back-p.xlsx,instructions\2-BACK.png,"(25, 15)",practice,2,2,stim\gray.png,stim\yellow.png,stim\gray.png,stim\gray.png,right,0,0,0,0,0,2,2,2,0,4,4,4,,,,,,,,,,,,,,,,,,,,,,,,,,,108.59877390007023,109.59957389999181,108.59877390007023,109.59957389999181,108.59877390007023,109.59957389999181,108.59877390007023,109.59957389999181,right,1,0.3343397000571713,108.59877390007023,None,108.59877390007023,None,108.59877390007023,109.0987737000687,108.59877390007023,109.0987737000687,108.59877390007023,109.0987737000687,108.59877390007023,109.0987737000687,108.59877390007023,None,,,,,,,,,,,,,,,,,,,,,,,,,,,,,,,,,,,,,,,,,,12005,001,2024_Jun_13_1613,nback,2021.2.3,59.70498571627966,
2-back,instructions\back-2.png,conditions\2back-p.xlsx,instructions\2-BACK.png,"(25, 15)",practice,2,1,stim\yellow.png,stim\gray.png,stim\gray.png,stim\gray.png,down,0,0,0,0,0,2,2,2,0,5,5,5,,,,,,,,,,,,,,,,,,,,,,,,,,,110.10178959998302,111.10193230002187,110.10178959998302,111.10193230002187,110.10178959998302,111.10193230002187,110.10178959998302,111.10193230002187,down,1,0.8231462000403553,110.10178959998302,None,110.10178959998302,None,110.10178959998302,110.60104520001914,110.10178959998302,110.60104520001914,110.10178959998302,110.60104520001914,110.10178959998302,110.60104520001914,110.10178959998302,None,,,,,,,,,,,,,,,,,,,,,,,,,,,,,,,,,,,,,,,,,,12005,001,2024_Jun_13_1613,nback,2021.2.3,59.70498571627966,
2-back,instructions\back-2.png,conditions\2back-p.xlsx,instructions\2-BACK.png,"(25, 15)",practice,2,4,stim\gray.png,stim\gray.png,stim\gray.png,stim\yellow.png,left,0,0,0,0,0,2,2,2,0,6,6,6,,,,,,,,,,,,,,,,,,,,,,,,,,,111.58601440000348,112.5876437999541,111.58601440000348,112.5876437999541,111.58601440000348,112.5876437999541,111.58601440000348,112.5876437999541,None,0,,111.58601440000348,None,111.58601440000348,None,111.58601440000348,112.08667780004907,111.58601440000348,112.08667780004907,111.58601440000348,112.08667780004907,111.58601440000348,112.08667780004907,111.58601440000348,None,,,,,,,,,,,,,,,,,,,,,,,,,,,,,,,,,,,,,,,,,,12005,001,2024_Jun_13_1613,nback,2021.2.3,59.70498571627966,
2-back,instructions\back-2.png,conditions\2back-p.xlsx,instructions\2-BACK.png,"(25, 15)",practice,2,3,stim\gray.png,stim\gray.png,stim\yellow.png,stim\gray.png,up,0,0,0,0,0,2,2,2,0,7,7,7,,,,,,,,,,,,,,,,,,,,,,,,,,,113.089219699963,114.08956920006312,113.089219699963,114.08956920006312,113.089219699963,114.08956920006312,113.089219699963,114.08956920006312,None,0,,113.089219699963,None,113.089219699963,None,113.089219699963,113.58973620005418,113.089219699963,113.58973620005418,113.089219699963,113.58973620005418,113.089219699963,113.58973620005418,113.089219699963,None,,,,,,,,,,,,,,,,,,,,,,,,,,,,,,,,,,,,,,,,,,12005,001,2024_Jun_13_1613,nback,2021.2.3,59.70498571627966,
2-back,instructions\back-2.png,conditions\2back-p.xlsx,instructions\2-BACK.png,"(25, 15)",practice,2,3,stim\gray.png,stim\gray.png,stim\yellow.png,stim\gray.png,down,0,0,0,0,0,2,2,2,0,8,8,8,,,,,,,,,,,,,,,,,,,,,,,,,,,114.59054350003134,115.59251880005468,114.59054350003134,115.59251880005468,114.59054350003134,115.59251880005468,114.59054350003134,115.59251880005468,right,0,0.9190430999733508,114.59054350003134,None,114.59054350003134,None,114.59054350003134,115.09160300006624,114.59054350003134,115.09160300006624,114.59054350003134,115.09160300006624,114.59054350003134,115.09160300006624,114.59054350003134,None,,,,,,,,,,,,,,,,,,,,,,,,,,,,,,,,,,,,,,,,,,12005,001,2024_Jun_13_1613,nback,2021.2.3,59.70498571627966,
2-back,instructions\back-2.png,conditions\2back-p.xlsx,instructions\2-BACK.png,"(25, 15)",practice,2,4,stim\gray.png,stim\gray.png,stim\gray.png,stim\yellow.png,right,0,0,0,0,0,2,2,2,0,9,9,9,,,,,,,,,,,,,,,,,,,,,,,,,,,116.09480149997398,117.0944108000258,116.09480149997398,117.0944108000258,116.09480149997398,117.0944108000258,116.09480149997398,117.0944108000258,None,0,,116.09480149997398,None,116.09480149997398,None,116.09480149997398,116.59435230004601,116.09480149997398,116.59435230004601,116.09480149997398,116.59435230004601,116.09480149997398,116.59435230004601,116.09480149997398,None,,,,,,,,,,,,,,,,,,,,,,,,,,,,,,,,,,,,,,,,,,12005,001,2024_Jun_13_1613,nback,2021.2.3,59.70498571627966,
2-back,instructions\back-2.png,conditions\2back-p.xlsx,instructions\2-BACK.png,"(25, 15)",practice,2,1,stim\yellow.png,stim\gray.png,stim\gray.png,stim\gray.png,right,0,0,0,0,0,2,2,2,0,10,10,10,,,,,,,,,,,,,,,,,,,,,,,,,,,117.59499340003822,118.59739690006245,117.59499340003822,118.59739690006245,117.59499340003822,118.59739690006245,117.59499340003822,118.59739690006245,None,0,,117.59499340003822,None,117.59499340003822,None,117.59499340003822,118.09693630004767,117.59499340003822,118.09693630004767,117.59499340003822,118.09693630004767,117.59499340003822,118.09693630004767,117.59499340003822,None,,,,,,,,,,,,,,,,,,,,,,,,,,,,,,,,,,,,,,,,,,12005,001,2024_Jun_13_1613,nback,2021.2.3,59.70498571627966,
2-back,instructions\back-2.png,conditions\2back-p.xlsx,instructions\2-BACK.png,"(25, 15)",practice,2,2,stim\gray.png,stim\yellow.png,stim\gray.png,stim\gray.png,down,0,0,0,0,0,2,2,2,0,11,11,11,,,,,,,,,,,,,,,,,,,,,,,,,,,119.09727859997656,120.09917010006029,119.09727859997656,120.09917010006029,119.09727859997656,120.09917010006029,119.09727859997656,120.09917010006029,up,0,0.7485164999961853,119.09727859997656,None,119.09727859997656,None,119.09727859997656,119.59797020000406,119.09727859997656,119.59797020000406,119.09727859997656,119.59797020000406,119.09727859997656,119.59797020000406,119.09727859997656,None,,,,,,,,,,,,,,,,,,,,,,,,,,,,,,,,,,,,,,,,,,12005,001,2024_Jun_13_1613,nback,2021.2.3,59.70498571627966,
2-back,instructions\back-2.png,conditions\2back-p.xlsx,instructions\2-BACK.png,"(25, 15)",practice,2,4,stim\gray.png,stim\gray.png,stim\gray.png,stim\yellow.png,up,0,0,0,0,0,2,2,2,0,12,12,12,,,,,,,,,,,,,,,,,,,,,,,,,,,120.60024269996211,121.60110410000198,120.60024269996211,121.60110410000198,120.60024269996211,121.60110410000198,120.60024269996211,121.60110410000198,None,0,,120.60024269996211,None,120.60024269996211,None,120.60024269996211,121.10146919998806,120.60024269996211,121.10146919998806,120.60024269996211,121.10146919998806,120.60024269996211,121.10146919998806,120.60024269996211,None,,,,,,,,,,,,,,,,,,,,,,,,,,,,,,,,,,,,,,,,,,12005,001,2024_Jun_13_1613,nback,2021.2.3,59.70498571627966,
2-back,instructions\back-2.png,conditions\2back-p.xlsx,instructions\2-BACK.png,"(25, 15)",practice,2,3,stim\gray.png,stim\gray.png,stim\yellow.png,stim\gray.png,left,0,0,0,0,0,2,2,2,0,13,13,13,,,,,,,,,,,,,,,,,,,,,,,,,,,122.08488019998185,123.08688099996652,122.08488019998185,123.08688099996652,122.08488019998185,123.08688099996652,122.08488019998185,123.08688099996652,down,0,0.9683969001052901,122.08488019998185,None,122.08488019998185,None,122.08488019998185,122.58577670005616,122.08488019998185,122.58577670005616,122.08488019998185,122.58577670005616,122.08488019998185,122.58577670005616,122.08488019998185,None,,,,,,,,,,,,,,,,,,,,,,,,,,,,,,,,,,,,,,,,,,12005,001,2024_Jun_13_1613,nback,2021.2.3,59.70498571627966,
2-back,instructions\back-2.png,conditions\2back-p.xlsx,instructions\2-BACK.png,"(25, 15)",practice,2,1,stim\yellow.png,stim\gray.png,stim\gray.png,stim\gray.png,down,0,0,0,0,0,2,2,2,0,14,14,14,,,,,,,,,,,,,,,,,,,,,,,,,,,123.5873931000242,124.5888971000677,123.5873931000242,124.5888971000677,123.5873931000242,124.5888971000677,123.5873931000242,124.5888971000677,None,0,,123.5873931000242,None,123.5873931000242,None,123.5873931000242,124.08876219997182,123.5873931000242,124.08876219997182,123.5873931000242,124.08876219997182,123.5873931000242,124.08876219997182,123.5873931000242,None,,,,,,,,,,,,,,,,,,,,,,,,,,,,,,,,,,,,,,,,,,12005,001,2024_Jun_13_1613,nback,2021.2.3,59.70498571627966,
2-back,instructions\back-2.png,conditions\2back-p.xlsx,instructions\2-BACK.png,"(25, 15)",practice,2,2,stim\gray.png,stim\yellow.png,stim\gray.png,stim\gray.png,right,0,0,0,0,0,2,2,2,0,15,15,15,,,,,,,,,,,,,,,,,,,,,,,,,,,125.08958510006778,126.09135180001613,125.08958510006778,126.09135180001613,125.08958510006778,126.09135180001613,125.08958510006778,126.09135180001613,None,0,,125.08958510006778,None,125.08958510006778,None,125.08958510006778,125.5904268999584,125.08958510006778,125.5904268999584,125.08958510006778,125.5904268999584,125.08958510006778,125.5904268999584,125.08958510006778,None,,,,,,,,,,,,,,,,,,,,,,,,,,,,,,,,,,,,,,,,,,12005,001,2024_Jun_13_1613,nback,2021.2.3,59.70498571627966,
2-back,instructions\back-2.png,conditions\2back-p.xlsx,instructions\2-BACK.png,"(25, 15)",practice,2,3,stim\gray.png,stim\gray.png,stim\yellow.png,stim\gray.png,up,0,0,0,0,0,2,2,2,0,16,16,16,,,,,,,,,,,,,,,,,,,,,,,,,,,126.59196470002644,127.59373730001971,126.59196470002644,127.59373730001971,126.59196470002644,127.59373730001971,126.59196470002644,127.59373730001971,None,0,,126.59196470002644,None,126.59196470002644,None,126.59196470002644,127.09297770005651,126.59196470002644,127.09297770005651,126.59196470002644,127.09297770005651,126.59196470002644,127.09297770005651,126.59196470002644,None,,,,,,,,,,,,,,,,,,,,,,,,,,,,,,,,,,,,,,,,,,12005,001,2024_Jun_13_1613,nback,2021.2.3,59.70498571627966,
2-back,instructions\back-2.png,conditions\2back-p.xlsx,instructions\2-BACK.png,"(25, 15)",practice,2,1,stim\yellow.png,stim\gray.png,stim\gray.png,stim\gray.png,left,0,0,0,0,0,2,2,2,0,17,17,17,,,,,,,,,,,,,,,,,,,,,,,,,,,128.0943113999674,129.09744579996914,128.0943113999674,129.09744579996914,128.0943113999674,129.09744579996914,128.0943113999674,129.09744579996914,up,0,1.4229765000054613,128.0943113999674,None,128.0943113999674,None,128.0943113999674,128.59494320000522,128.0943113999674,128.59494320000522,128.0943113999674,128.59494320000522,128.0943113999674,128.59494320000522,128.0943113999674,None,,,,,,,,,,,,,,,,,,,,,,,,,,,,,,,,,,,,,,,,,,12005,001,2024_Jun_13_1613,nback,2021.2.3,59.70498571627966,
2-back,instructions\back-2.png,conditions\2back-p.xlsx,instructions\2-BACK.png,"(25, 15)",practice,2,4,stim\gray.png,stim\gray.png,stim\gray.png,stim\yellow.png,right,0,0,0,0,0,2,2,2,0,18,18,18,,,,,,,,,,,,,,,,,,,,,,,,,,,129.5963049000129,130.59880020003766,129.5963049000129,130.59880020003766,129.5963049000129,130.59880020003766,129.5963049000129,130.59880020003766,None,0,,129.5963049000129,None,129.5963049000129,None,129.5963049000129,130.09724619996268,129.5963049000129,130.09724619996268,129.5963049000129,130.09724619996268,129.5963049000129,130.09724619996268,129.5963049000129,None,,,,,,,,,,,,,,,,,,,,,,,,,,,,,,,,,,,,,,,,,,12005,001,2024_Jun_13_1613,nback,2021.2.3,59.70498571627966,
2-back,instructions\back-2.png,conditions\2back-p.xlsx,instructions\2-BACK.png,"(25, 15)",practice,2,2,stim\gray.png,stim\yellow.png,stim\gray.png,stim\gray.png,up,0,0,0,0,0,2,2,2,0,19,19,19,,,,,,,,,,,,,,,,,,,,,,,,,,,131.098665800062,132.10027289995924,131.098665800062,132.10027289995924,131.098665800062,132.10027289995924,131.098665800062,132.10027289995924,None,0,,131.098665800062,None,131.098665800062,None,131.098665800062,131.60079619998578,131.098665800062,131.60079619998578,131.098665800062,131.60079619998578,131.098665800062,131.60079619998578,131.098665800062,None,,,,,,,,,,,,,,,,,,,,,,,,,,,,,,,,,,,,,,,,,,12005,001,2024_Jun_13_1613,nback,2021.2.3,59.70498571627966,
2-back,instructions\back-2.png,conditions\2back-p.xlsx,instructions\2-BACK.png,"(25, 15)",,,,,,,,,0,0,0,0,0,2,2,2,,,,,,,,,,,,,,,,,,,,,,,,,,,,,,,,,,,,,,,,,,,,,,,,,,,,,,,,,,,,,,,,,,,,,,,,,,,,,,,,,,,,,,,,,,,,,,,,,12005,001,2024_Jun_13_1613,nback,2021.2.3,59.70498571627966,
,,,,,,,,,,,,,0,0,0,0,,,,,,,,,,,,,,,,,,,,,,,,,,,,,,,,,,,,,,,,,,,,,,,,,,,,,,,,,,,,132.60213720006868,None,s,27.556306199985556,132.60213720006868,None,,,,,,,,,,,,,,,,,,,,,,,,,,,,,,,,,,,,12005,001,2024_Jun_13_1613,nback,2021.2.3,59.70498571627966,
0-back,instructions\back-0.png,conditions\0back-p.xlsx,instructions\0-BACK.png,"(15, 8)",practice,0,1,stim\yellow.png,stim\gray.png,stim\gray.png,stim\gray.png,up,1,0,1,0,0,0,0,0,0,0,0,0,,,,,,,,,,,,,,,,,160.31099689996336,None,space,1.3656707000918686,160.31099689996336,None,161.89429770002607,166.40232820005622,166.33627520001028,None,166.72076269995887,167.72058860003017,166.72076269995887,167.72058860003017,166.72076269995887,167.72058860003017,166.72076269995887,167.72058860003017,None,0,,166.72076269995887,None,166.72076269995887,None,166.72076269995887,167.22091959998943,166.72076269995887,167.22091959998943,166.72076269995887,167.22091959998943,166.72076269995887,167.22091959998943,166.72076269995887,None,,,,,,,,,,,,,,,,,,,,,,,,,,,,,,,,,,,,,,,,,,12005,001,2024_Jun_13_1613,nback,2021.2.3,59.70498571627966,
0-back,instructions\back-0.png,conditions\0back-p.xlsx,instructions\0-BACK.png,"(15, 8)",practice,0,2,stim\gray.png,stim\yellow.png,stim\gray.png,stim\gray.png,left,1,0,1,0,0,0,0,0,0,1,1,1,,,,,,,,,,,,,,,,,,,,,,,,,,,168.2046127000358,169.20597080001608,168.2046127000358,169.20597080001608,168.2046127000358,169.20597080001608,168.2046127000358,169.20597080001608,None,0,,168.2046127000358,None,168.2046127000358,None,168.2046127000358,168.70605939999223,168.2046127000358,168.70605939999223,168.2046127000358,168.70605939999223,168.2046127000358,168.70605939999223,168.2046127000358,None,,,,,,,,,,,,,,,,,,,,,,,,,,,,,,,,,,,,,,,,,,12005,001,2024_Jun_13_1613,nback,2021.2.3,59.70498571627966,
0-back,instructions\back-0.png,conditions\0back-p.xlsx,instructions\0-BACK.png,"(15, 8)",practice,0,3,stim\gray.png,stim\gray.png,stim\yellow.png,stim\gray.png,right,1,0,1,0,0,0,0,0,0,2,2,2,,,,,,,,,,,,,,,,,,,,,,,,,,,169.7068539999891,170.70937180006877,169.7068539999891,170.70937180006877,169.7068539999891,170.70937180006877,169.7068539999891,170.70937180006877,None,0,,169.7068539999891,None,169.7068539999891,None,169.7068539999891,170.20800049998797,169.7068539999891,170.20800049998797,169.7068539999891,170.20800049998797,169.7068539999891,170.20800049998797,169.7068539999891,None,,,,,,,,,,,,,,,,,,,,,,,,,,,,,,,,,,,,,,,,,,12005,001,2024_Jun_13_1613,nback,2021.2.3,59.70498571627966,
0-back,instructions\back-0.png,conditions\0back-p.xlsx,instructions\0-BACK.png,"(15, 8)",practice,0,4,stim\gray.png,stim\gray.png,stim\gray.png,stim\yellow.png,down,1,0,1,0,0,0,0,0,0,3,3,3,,,,,,,,,,,,,,,,,,,,,,,,,,,171.20926809997763,172.21095410000999,171.20926809997763,172.21095410000999,171.20926809997763,172.21095410000999,171.20926809997763,172.21095410000999,None,0,,171.20926809997763,None,171.20926809997763,None,171.20926809997763,171.7122068000026,171.20926809997763,171.7122068000026,171.20926809997763,171.7122068000026,171.20926809997763,171.7122068000026,171.20926809997763,None,,,,,,,,,,,,,,,,,,,,,,,,,,,,,,,,,,,,,,,,,,12005,001,2024_Jun_13_1613,nback,2021.2.3,59.70498571627966,
0-back,instructions\back-0.png,conditions\0back-p.xlsx,instructions\0-BACK.png,"(15, 8)",practice,0,2,stim\gray.png,stim\yellow.png,stim\gray.png,stim\gray.png,left,1,0,1,0,0,0,0,0,0,4,4,4,,,,,,,,,,,,,,,,,,,,,,,,,,,172.71156970004085,173.7129494000692,172.71156970004085,173.7129494000692,172.71156970004085,173.7129494000692,172.71156970004085,173.7129494000692,None,0,,172.71156970004085,None,172.71156970004085,None,172.71156970004085,173.21312410000246,172.71156970004085,173.21312410000246,172.71156970004085,173.21312410000246,172.71156970004085,173.21312410000246,172.71156970004085,None,,,,,,,,,,,,,,,,,,,,,,,,,,,,,,,,,,,,,,,,,,12005,001,2024_Jun_13_1613,nback,2021.2.3,59.70498571627966,
0-back,instructions\back-0.png,conditions\0back-p.xlsx,instructions\0-BACK.png,"(15, 8)",practice,0,1,stim\yellow.png,stim\gray.png,stim\gray.png,stim\gray.png,up,1,0,1,0,0,0,0,0,0,5,5,5,,,,,,,,,,,,,,,,,,,,,,,,,,,174.2137584000593,175.2151681999676,174.2137584000593,175.2151681999676,174.2137584000593,175.2151681999676,174.2137584000593,175.2151681999676,None,0,,174.2137584000593,None,174.2137584000593,None,174.2137584000593,174.71531720005441,174.2137584000593,174.71531720005441,174.2137584000593,174.71531720005441,174.2137584000593,174.71531720005441,174.2137584000593,None,,,,,,,,,,,,,,,,,,,,,,,,,,,,,,,,,,,,,,,,,,12005,001,2024_Jun_13_1613,nback,2021.2.3,59.70498571627966,
0-back,instructions\back-0.png,conditions\0back-p.xlsx,instructions\0-BACK.png,"(15, 8)",practice,0,4,stim\gray.png,stim\gray.png,stim\gray.png,stim\yellow.png,down,1,0,1,0,0,0,0,0,0,6,6,6,,,,,,,,,,,,,,,,,,,,,,,,,,,175.69923180004116,176.70094640005846,175.69923180004116,176.70094640005846,175.69923180004116,176.70094640005846,175.69923180004116,176.70094640005846,None,0,,175.69923180004116,None,175.69923180004116,None,175.69923180004116,176.20031670003664,175.69923180004116,176.20031670003664,175.69923180004116,176.20031670003664,175.69923180004116,176.20031670003664,175.69923180004116,None,,,,,,,,,,,,,,,,,,,,,,,,,,,,,,,,,,,,,,,,,,12005,001,2024_Jun_13_1613,nback,2021.2.3,59.70498571627966,
0-back,instructions\back-0.png,conditions\0back-p.xlsx,instructions\0-BACK.png,"(15, 8)",practice,0,3,stim\gray.png,stim\gray.png,stim\yellow.png,stim\gray.png,right,1,0,1,0,0,0,0,0,0,7,7,7,,,,,,,,,,,,,,,,,,,,,,,,,,,177.20246669999324,178.20370810001623,177.20246669999324,178.20370810001623,177.20246669999324,178.20370810001623,177.20246669999324,178.20370810001623,None,0,,177.20246669999324,None,177.20246669999324,None,177.20246669999324,177.70286960003432,177.20246669999324,177.70286960003432,177.20246669999324,177.70286960003432,177.20246669999324,177.70286960003432,177.20246669999324,None,,,,,,,,,,,,,,,,,,,,,,,,,,,,,,,,,,,,,,,,,,12005,001,2024_Jun_13_1613,nback,2021.2.3,59.70498571627966,
0-back,instructions\back-0.png,conditions\0back-p.xlsx,instructions\0-BACK.png,"(15, 8)",practice,0,3,stim\gray.png,stim\gray.png,stim\yellow.png,stim\gray.png,right,1,0,1,0,0,0,0,0,0,8,8,8,,,,,,,,,,,,,,,,,,,,,,,,,,,178.70385309995618,179.70620260003489,178.70385309995618,179.70620260003489,178.70385309995618,179.70620260003489,178.70385309995618,179.70620260003489,None,0,,178.70385309995618,None,178.70385309995618,None,178.70385309995618,179.20461100002285,178.70385309995618,179.20461100002285,178.70385309995618,179.20461100002285,178.70385309995618,179.20461100002285,178.70385309995618,None,,,,,,,,,,,,,,,,,,,,,,,,,,,,,,,,,,,,,,,,,,12005,001,2024_Jun_13_1613,nback,2021.2.3,59.70498571627966,
0-back,instructions\back-0.png,conditions\0back-p.xlsx,instructions\0-BACK.png,"(15, 8)",practice,0,4,stim\gray.png,stim\gray.png,stim\gray.png,stim\yellow.png,down,1,0,1,0,0,0,0,0,0,9,9,9,,,,,,,,,,,,,,,,,,,,,,,,,,,180.20676329999696,181.20898250001483,180.20676329999696,181.20898250001483,180.20676329999696,181.20898250001483,180.20676329999696,181.20898250001483,None,0,,180.20676329999696,None,180.20676329999696,None,180.20676329999696,180.70684620004613,180.20676329999696,180.70684620004613,180.20676329999696,180.70684620004613,180.20676329999696,180.70684620004613,180.20676329999696,None,,,,,,,,,,,,,,,,,,,,,,,,,,,,,,,,,,,,,,,,,,12005,001,2024_Jun_13_1613,nback,2021.2.3,59.70498571627966,
0-back,instructions\back-0.png,conditions\0back-p.xlsx,instructions\0-BACK.png,"(15, 8)",practice,0,1,stim\yellow.png,stim\gray.png,stim\gray.png,stim\gray.png,up,1,0,1,0,0,0,0,0,0,10,10,10,,,,,,,,,,,,,,,,,,,,,,,,,,,181.70833529997617,182.71088759996928,181.70833529997617,182.71088759996928,181.70833529997617,182.71088759996928,181.70833529997617,182.71088759996928,None,0,,181.70833529997617,None,181.70833529997617,None,181.70833529997617,182.20962830004282,181.70833529997617,182.20962830004282,181.70833529997617,182.20962830004282,181.70833529997617,182.20962830004282,181.70833529997617,None,,,,,,,,,,,,,,,,,,,,,,,,,,,,,,,,,,,,,,,,,,12005,001,2024_Jun_13_1613,nback,2021.2.3,59.70498571627966,
0-back,instructions\back-0.png,conditions\0back-p.xlsx,instructions\0-BACK.png,"(15, 8)",practice,0,2,stim\gray.png,stim\yellow.png,stim\gray.png,stim\gray.png,left,1,0,1,0,0,0,0,0,0,11,11,11,,,,,,,,,,,,,,,,,,,,,,,,,,,183.21055660001002,184.21212879999075,183.21055660001002,184.21212879999075,183.21055660001002,184.21212879999075,183.21055660001002,184.21212879999075,None,0,,183.21055660001002,None,183.21055660001002,None,183.21055660001002,183.71230160002597,183.21055660001002,183.71230160002597,183.21055660001002,183.71230160002597,183.21055660001002,183.71230160002597,183.21055660001002,None,,,,,,,,,,,,,,,,,,,,,,,,,,,,,,,,,,,,,,,,,,12005,001,2024_Jun_13_1613,nback,2021.2.3,59.70498571627966,
0-back,instructions\back-0.png,conditions\0back-p.xlsx,instructions\0-BACK.png,"(15, 8)",practice,0,4,stim\gray.png,stim\gray.png,stim\gray.png,stim\yellow.png,down,1,0,1,0,0,0,0,0,0,12,12,12,,,,,,,,,,,,,,,,,,,,,,,,,,,184.7128613999812,185.71526009996887,184.7128613999812,185.71526009996887,184.7128613999812,185.71526009996887,184.7128613999812,185.71526009996887,None,0,,184.7128613999812,None,184.7128613999812,None,184.7128613999812,185.21523750002962,184.7128613999812,185.21523750002962,184.7128613999812,185.21523750002962,184.7128613999812,185.21523750002962,184.7128613999812,None,,,,,,,,,,,,,,,,,,,,,,,,,,,,,,,,,,,,,,,,,,12005,001,2024_Jun_13_1613,nback,2021.2.3,59.70498571627966,
0-back,instructions\back-0.png,conditions\0back-p.xlsx,instructions\0-BACK.png,"(15, 8)",practice,0,3,stim\gray.png,stim\gray.png,stim\yellow.png,stim\gray.png,right,1,0,1,0,0,0,0,0,0,13,13,13,,,,,,,,,,,,,,,,,,,,,,,,,,,186.21523900004104,187.2165118000703,186.21523900004104,187.2165118000703,186.21523900004104,187.2165118000703,186.21523900004104,187.2165118000703,None,0,,186.21523900004104,None,186.21523900004104,None,186.21523900004104,186.71592230000533,186.21523900004104,186.71592230000533,186.21523900004104,186.71592230000533,186.21523900004104,186.71592230000533,186.21523900004104,None,,,,,,,,,,,,,,,,,,,,,,,,,,,,,,,,,,,,,,,,,,12005,001,2024_Jun_13_1613,nback,2021.2.3,59.70498571627966,
0-back,instructions\back-0.png,conditions\0back-p.xlsx,instructions\0-BACK.png,"(15, 8)",practice,0,1,stim\yellow.png,stim\gray.png,stim\gray.png,stim\gray.png,up,1,0,1,0,0,0,0,0,0,14,14,14,,,,,,,,,,,,,,,,,,,,,,,,,,,187.70177399995737,188.70229389995802,187.70177399995737,188.70229389995802,187.70177399995737,188.70229389995802,187.70177399995737,188.70229389995802,None,0,,187.70177399995737,None,187.70177399995737,None,187.70177399995737,188.20170500001404,187.70177399995737,188.20170500001404,187.70177399995737,188.20170500001404,187.70177399995737,188.20170500001404,187.70177399995737,None,,,,,,,,,,,,,,,,,,,,,,,,,,,,,,,,,,,,,,,,,,12005,001,2024_Jun_13_1613,nback,2021.2.3,59.70498571627966,
0-back,instructions\back-0.png,conditions\0back-p.xlsx,instructions\0-BACK.png,"(15, 8)",practice,0,2,stim\gray.png,stim\yellow.png,stim\gray.png,stim\gray.png,left,1,0,1,0,0,0,0,0,0,15,15,15,,,,,,,,,,,,,,,,,,,,,,,,,,,189.20427049999125,190.204495199956,189.20427049999125,190.204495199956,189.20427049999125,190.204495199956,189.20427049999125,190.204495199956,None,0,,189.20427049999125,None,189.20427049999125,None,189.20427049999125,189.7036841000663,189.20427049999125,189.7036841000663,189.20427049999125,189.7036841000663,189.20427049999125,189.7036841000663,189.20427049999125,None,,,,,,,,,,,,,,,,,,,,,,,,,,,,,,,,,,,,,,,,,,12005,001,2024_Jun_13_1613,nback,2021.2.3,59.70498571627966,
0-back,instructions\back-0.png,conditions\0back-p.xlsx,instructions\0-BACK.png,"(15, 8)",practice,0,3,stim\gray.png,stim\gray.png,stim\yellow.png,stim\gray.png,right,1,0,1,0,0,0,0,0,0,16,16,16,,,,,,,,,,,,,,,,,,,,,,,,,,,190.7053212999599,191.7067878000671,190.7053212999599,191.7067878000671,190.7053212999599,191.7067878000671,190.7053212999599,191.7067878000671,None,0,,190.7053212999599,None,190.7053212999599,None,190.7053212999599,191.2060934000183,190.7053212999599,191.2060934000183,190.7053212999599,191.2060934000183,190.7053212999599,191.2060934000183,190.7053212999599,None,,,,,,,,,,,,,,,,,,,,,,,,,,,,,,,,,,,,,,,,,,12005,001,2024_Jun_13_1613,nback,2021.2.3,59.70498571627966,
0-back,instructions\back-0.png,conditions\0back-p.xlsx,instructions\0-BACK.png,"(15, 8)",practice,0,1,stim\yellow.png,stim\gray.png,stim\gray.png,stim\gray.png,up,1,0,1,0,0,0,0,0,0,17,17,17,,,,,,,,,,,,,,,,,,,,,,,,,,,192.20753849996254,193.21018679998815,192.20753849996254,193.21018679998815,192.20753849996254,193.21018679998815,192.20753849996254,193.21018679998815,None,0,,192.20753849996254,None,192.20753849996254,None,192.20753849996254,192.70928339997772,192.20753849996254,192.70928339997772,192.20753849996254,192.70928339997772,192.20753849996254,192.70928339997772,192.20753849996254,None,,,,,,,,,,,,,,,,,,,,,,,,,,,,,,,,,,,,,,,,,,12005,001,2024_Jun_13_1613,nback,2021.2.3,59.70498571627966,
0-back,instructions\back-0.png,conditions\0back-p.xlsx,instructions\0-BACK.png,"(15, 8)",practice,0,4,stim\gray.png,stim\gray.png,stim\gray.png,stim\yellow.png,down,1,0,1,0,0,0,0,0,0,18,18,18,,,,,,,,,,,,,,,,,,,,,,,,,,,193.70970010000747,194.7112371000694,193.70970010000747,194.7112371000694,193.70970010000747,194.7112371000694,193.70970010000747,194.7112371000694,None,0,,193.70970010000747,None,193.70970010000747,None,193.70970010000747,194.21062270004768,193.70970010000747,194.21062270004768,193.70970010000747,194.21062270004768,193.70970010000747,194.21062270004768,193.70970010000747,None,,,,,,,,,,,,,,,,,,,,,,,,,,,,,,,,,,,,,,,,,,12005,001,2024_Jun_13_1613,nback,2021.2.3,59.70498571627966,
0-back,instructions\back-0.png,conditions\0back-p.xlsx,instructions\0-BACK.png,"(15, 8)",practice,0,2,stim\gray.png,stim\yellow.png,stim\gray.png,stim\gray.png,left,1,0,1,0,0,0,0,0,0,19,19,19,,,,,,,,,,,,,,,,,,,,,,,,,,,195.21208319999278,196.21442199999,195.21208319999278,196.21442199999,195.21208319999278,196.21442199999,195.21208319999278,196.21442199999,None,0,,195.21208319999278,None,195.21208319999278,None,195.21208319999278,195.7133508999832,195.21208319999278,195.7133508999832,195.21208319999278,195.7133508999832,195.21208319999278,195.7133508999832,195.21208319999278,None,,,,,,,,,,,,,,,,,,,,,,,,,,,,,,,,,,,,,,,,,,12005,001,2024_Jun_13_1613,nback,2021.2.3,59.70498571627966,
0-back,instructions\back-0.png,conditions\0back-p.xlsx,instructions\0-BACK.png,"(15, 8)",,,,,,,,,1,0,1,0,0,0,0,0,,,,,,,,,,,,,,,,,,,,,,,,,,,,,,,,,,,,,,,,,,,,,,,,,,,,,,,,,,,,,,,,,,,,,,,,,,,,,,,,,,,,,,,,,,,,,,,,,12005,001,2024_Jun_13_1613,nback,2021.2.3,59.70498571627966,
1-back,instructions\back-1.png,conditions\1back-p.xlsx,instructions\1-BACK.png,"(25, 15)",practice,1,1,stim\yellow.png,stim\gray.png,stim\gray.png,stim\gray.png,None,1,0,1,0,0,1,1,1,0,0,0,0,,,,,,,,,,,,,,,,,196.89894820004702,None,space,3.7246063000056893,196.89894820004702,None,200.78743580006994,205.2959935000399,205.26054920000024,None,205.67894250003155,206.68038030003663,205.67894250003155,206.68038030003663,205.67894250003155,206.68038030003663,205.67894250003155,206.68038030003663,None,1,,205.67894250003155,None,205.67894250003155,None,205.67894250003155,206.1792521000607,205.67894250003155,206.1792521000607,205.67894250003155,206.1792521000607,205.67894250003155,206.1792521000607,205.67894250003155,None,,,,,,,,,,,,,,,,,,,,,,,,,,,,,,,,,,,,,,,,,,12005,001,2024_Jun_13_1613,nback,2021.2.3,59.70498571627966,
1-back,instructions\back-1.png,conditions\1back-p.xlsx,instructions\1-BACK.png,"(25, 15)",practice,1,2,stim\gray.png,stim\yellow.png,stim\gray.png,stim\gray.png,up,1,0,1,0,0,1,1,1,0,1,1,1,,,,,,,,,,,,,,,,,,,,,,,,,,,207.16351940005552,208.16498010000214,207.16351940005552,208.16498010000214,207.16351940005552,208.16498010000214,207.16351940005552,208.16498010000214,up,1,0.42007019999437034,207.16351940005552,None,207.16351940005552,None,207.16351940005552,207.66416050004773,207.16351940005552,207.66416050004773,207.16351940005552,207.66416050004773,207.16351940005552,207.66416050004773,207.16351940005552,None,,,,,,,,,,,,,,,,,,,,,,,,,,,,,,,,,,,,,,,,,,12005,001,2024_Jun_13_1613,nback,2021.2.3,59.70498571627966,
1-back,instructions\back-1.png,conditions\1back-p.xlsx,instructions\1-BACK.png,"(25, 15)",practice,1,3,stim\gray.png,stim\gray.png,stim\yellow.png,stim\gray.png,left,1,0,1,0,0,1,1,1,0,2,2,2,,,,,,,,,,,,,,,,,,,,,,,,,,,208.66554099996574,209.66698490001727,208.66554099996574,209.66698490001727,208.66554099996574,209.66698490001727,208.66554099996574,209.66698490001727,left,1,0.3585150999715552,208.66554099996574,None,208.66554099996574,None,208.66554099996574,209.167170300032,208.66554099996574,209.167170300032,208.66554099996574,209.167170300032,208.66554099996574,209.167170300032,208.66554099996574,None,,,,,,,,,,,,,,,,,,,,,,,,,,,,,,,,,,,,,,,,,,12005,001,2024_Jun_13_1613,nback,2021.2.3,59.70498571627966,
1-back,instructions\back-1.png,conditions\1back-p.xlsx,instructions\1-BACK.png,"(25, 15)",practice,1,4,stim\gray.png,stim\gray.png,stim\gray.png,stim\yellow.png,right,1,0,1,0,0,1,1,1,0,3,3,3,,,,,,,,,,,,,,,,,,,,,,,,,,,210.16790240001865,211.17006130004302,210.16790240001865,211.17006130004302,210.16790240001865,211.17006130004302,210.16790240001865,211.17006130004302,right,1,0.3439687999198213,210.16790240001865,None,210.16790240001865,None,210.16790240001865,210.6687783000525,210.16790240001865,210.6687783000525,210.16790240001865,210.6687783000525,210.16790240001865,210.6687783000525,210.16790240001865,None,,,,,,,,,,,,,,,,,,,,,,,,,,,,,,,,,,,,,,,,,,12005,001,2024_Jun_13_1613,nback,2021.2.3,59.70498571627966,
1-back,instructions\back-1.png,conditions\1back-p.xlsx,instructions\1-BACK.png,"(25, 15)",practice,1,2,stim\gray.png,stim\yellow.png,stim\gray.png,stim\gray.png,down,1,0,1,0,0,1,1,1,0,4,4,4,,,,,,,,,,,,,,,,,,,,,,,,,,,211.67138740001246,212.6723931999877,211.67138740001246,212.6723931999877,211.67138740001246,212.6723931999877,211.67138740001246,212.6723931999877,down,1,0.320244999951683,211.67138740001246,None,211.67138740001246,None,211.67138740001246,212.17206280003302,211.67138740001246,212.17206280003302,211.67138740001246,212.17206280003302,211.67138740001246,212.17206280003302,211.67138740001246,None,,,,,,,,,,,,,,,,,,,,,,,,,,,,,,,,,,,,,,,,,,12005,001,2024_Jun_13_1613,nback,2021.2.3,59.70498571627966,
1-back,instructions\back-1.png,conditions\1back-p.xlsx,instructions\1-BACK.png,"(25, 15)",practice,1,1,stim\yellow.png,stim\gray.png,stim\gray.png,stim\gray.png,left,1,0,1,0,0,1,1,1,0,5,5,5,,,,,,,,,,,,,,,,,,,,,,,,,,,213.17254259996116,214.17480110004544,213.17254259996116,214.17480110004544,213.17254259996116,214.17480110004544,213.17254259996116,214.17480110004544,left,1,0.05946160003077239,213.17254259996116,None,213.17254259996116,None,213.17254259996116,213.67315419996157,213.17254259996116,213.67315419996157,213.17254259996116,213.67315419996157,213.17254259996116,213.67315419996157,213.17254259996116,None,,,,,,,,,,,,,,,,,,,,,,,,,,,,,,,,,,,,,,,,,,12005,001,2024_Jun_13_1613,nback,2021.2.3,59.70498571627966,
1-back,instructions\back-1.png,conditions\1back-p.xlsx,instructions\1-BACK.png,"(25, 15)",practice,1,4,stim\gray.png,stim\gray.png,stim\gray.png,stim\yellow.png,up,1,0,1,0,0,1,1,1,0,6,6,6,,,,,,,,,,,,,,,,,,,,,,,,,,,214.65816570003517,215.66023759997915,214.65816570003517,215.66023759997915,214.65816570003517,215.66023759997915,214.65816570003517,215.66023759997915,up,1,0.3417826999211684,214.65816570003517,None,214.65816570003517,None,214.65816570003517,215.15884799999185,214.65816570003517,215.15884799999185,214.65816570003517,215.15884799999185,214.65816570003517,215.15884799999185,214.65816570003517,None,,,,,,,,,,,,,,,,,,,,,,,,,,,,,,,,,,,,,,,,,,12005,001,2024_Jun_13_1613,nback,2021.2.3,59.70498571627966,
1-back,instructions\back-1.png,conditions\1back-p.xlsx,instructions\1-BACK.png,"(25, 15)",practice,1,3,stim\gray.png,stim\gray.png,stim\yellow.png,stim\gray.png,down,1,0,1,0,0,1,1,1,0,7,7,7,,,,,,,,,,,,,,,,,,,,,,,,,,,216.16040870000143,217.1629800000228,216.16040870000143,217.1629800000228,216.16040870000143,217.1629800000228,216.16040870000143,217.1629800000228,down,1,0.7756505000870675,216.16040870000143,None,216.16040870000143,None,216.16040870000143,216.66095659998246,216.16040870000143,216.66095659998246,216.16040870000143,216.66095659998246,216.16040870000143,216.66095659998246,216.16040870000143,None,,,,,,,,,,,,,,,,,,,,,,,,,,,,,,,,,,,,,,,,,,12005,001,2024_Jun_13_1613,nback,2021.2.3,59.70498571627966,
1-back,instructions\back-1.png,conditions\1back-p.xlsx,instructions\1-BACK.png,"(25, 15)",practice,1,3,stim\gray.png,stim\gray.png,stim\yellow.png,stim\gray.png,right,1,0,1,0,0,1,1,1,0,8,8,8,,,,,,,,,,,,,,,,,,,,,,,,,,,217.66353280004114,218.66432910005096,217.66353280004114,218.66432910005096,217.66353280004114,218.66432910005096,217.66353280004114,218.66432910005096,right,1,0.5124495000345632,217.66353280004114,None,217.66353280004114,None,217.66353280004114,218.16444029996637,217.66353280004114,218.16444029996637,217.66353280004114,218.16444029996637,217.66353280004114,218.16444029996637,217.66353280004114,None,,,,,,,,,,,,,,,,,,,,,,,,,,,,,,,,,,,,,,,,,,12005,001,2024_Jun_13_1613,nback,2021.2.3,59.70498571627966,
1-back,instructions\back-1.png,conditions\1back-p.xlsx,instructions\1-BACK.png,"(25, 15)",practice,1,4,stim\gray.png,stim\gray.png,stim\gray.png,stim\yellow.png,right,1,0,1,0,0,1,1,1,0,9,9,9,,,,,,,,,,,,,,,,,,,,,,,,,,,219.1648801000556,220.16681670001708,219.1648801000556,220.16681670001708,219.1648801000556,220.16681670001708,219.1648801000556,220.16681670001708,right,1,0.29247400001622736,219.1648801000556,None,219.1648801000556,None,219.1648801000556,219.6655902999919,219.1648801000556,219.6655902999919,219.1648801000556,219.6655902999919,219.1648801000556,219.6655902999919,219.1648801000556,None,,,,,,,,,,,,,,,,,,,,,,,,,,,,,,,,,,,,,,,,,,12005,001,2024_Jun_13_1613,nback,2021.2.3,59.70498571627966,
1-back,instructions\back-1.png,conditions\1back-p.xlsx,instructions\1-BACK.png,"(25, 15)",practice,1,1,stim\yellow.png,stim\gray.png,stim\gray.png,stim\gray.png,down,1,0,1,0,0,1,1,1,0,10,10,10,,,,,,,,,,,,,,,,,,,,,,,,,,,220.6671527000144,221.6694513000548,220.6671527000144,221.6694513000548,220.6671527000144,221.6694513000548,220.6671527000144,221.6694513000548,down,1,0.3338266999926418,220.6671527000144,None,220.6671527000144,None,220.6671527000144,221.167961500003,220.6671527000144,221.167961500003,220.6671527000144,221.167961500003,220.6671527000144,221.167961500003,220.6671527000144,None,,,,,,,,,,,,,,,,,,,,,,,,,,,,,,,,,,,,,,,,,,12005,001,2024_Jun_13_1613,nback,2021.2.3,59.70498571627966,
1-back,instructions\back-1.png,conditions\1back-p.xlsx,instructions\1-BACK.png,"(25, 15)",practice,1,2,stim\gray.png,stim\yellow.png,stim\gray.png,stim\gray.png,up,1,0,1,0,0,1,1,1,0,11,11,11,,,,,,,,,,,,,,,,,,,,,,,,,,,222.1697871000506,223.17085220001172,222.1697871000506,223.17085220001172,222.1697871000506,223.17085220001172,222.1697871000506,223.17085220001172,up,1,0.38298009999562055,222.1697871000506,None,222.1697871000506,None,222.1697871000506,222.67024420003872,222.1697871000506,222.67024420003872,222.1697871000506,222.67024420003872,222.1697871000506,222.67024420003872,222.1697871000506,None,,,,,,,,,,,,,,,,,,,,,,,,,,,,,,,,,,,,,,,,,,12005,001,2024_Jun_13_1613,nback,2021.2.3,59.70498571627966,
1-back,instructions\back-1.png,conditions\1back-p.xlsx,instructions\1-BACK.png,"(25, 15)",practice,1,4,stim\gray.png,stim\gray.png,stim\gray.png,stim\yellow.png,left,1,0,1,0,0,1,1,1,0,12,12,12,,,,,,,,,,,,,,,,,,,,,,,,,,,223.6716481000185,224.67430980002973,223.6716481000185,224.67430980002973,223.6716481000185,224.67430980002973,223.6716481000185,224.67430980002973,left,1,0.46477810002397746,223.6716481000185,None,223.6716481000185,None,223.6716481000185,224.17244130000472,223.6716481000185,224.17244130000472,223.6716481000185,224.17244130000472,223.6716481000185,224.17244130000472,223.6716481000185,None,,,,,,,,,,,,,,,,,,,,,,,,,,,,,,,,,,,,,,,,,,12005,001,2024_Jun_13_1613,nback,2021.2.3,59.70498571627966,
1-back,instructions\back-1.png,conditions\1back-p.xlsx,instructions\1-BACK.png,"(25, 15)",practice,1,3,stim\gray.png,stim\gray.png,stim\yellow.png,stim\gray.png,down,1,0,1,0,0,1,1,1,0,13,13,13,,,,,,,,,,,,,,,,,,,,,,,,,,,225.17381479998585,226.1763758000452,225.17381479998585,226.1763758000452,225.17381479998585,226.1763758000452,225.17381479998585,226.1763758000452,down,1,0.31428500008769333,225.17381479998585,None,225.17381479998585,None,225.17381479998585,225.67475520004518,225.17381479998585,225.67475520004518,225.17381479998585,225.67475520004518,225.17381479998585,225.67475520004518,225.17381479998585,None,,,,,,,,,,,,,,,,,,,,,,,,,,,,,,,,,,,,,,,,,,12005,001,2024_Jun_13_1613,nback,2021.2.3,59.70498571627966,
1-back,instructions\back-1.png,conditions\1back-p.xlsx,instructions\1-BACK.png,"(25, 15)",practice,1,1,stim\yellow.png,stim\gray.png,stim\gray.png,stim\gray.png,right,1,0,1,0,0,1,1,1,0,14,14,14,,,,,,,,,,,,,,,,,,,,,,,,,,,226.65941850002855,227.6618328000186,226.65941850002855,227.6618328000186,226.65941850002855,227.6618328000186,226.65941850002855,227.6618328000186,right,1,0.28490760002750903,226.65941850002855,None,226.65941850002855,None,226.65941850002855,227.1608190999832,226.65941850002855,227.1608190999832,226.65941850002855,227.1608190999832,226.65941850002855,227.1608190999832,226.65941850002855,None,,,,,,,,,,,,,,,,,,,,,,,,,,,,,,,,,,,,,,,,,,12005,001,2024_Jun_13_1613,nback,2021.2.3,59.70498571627966,
1-back,instructions\back-1.png,conditions\1back-p.xlsx,instructions\1-BACK.png,"(25, 15)",practice,1,2,stim\gray.png,stim\yellow.png,stim\gray.png,stim\gray.png,up,1,0,1,0,0,1,1,1,0,15,15,15,,,,,,,,,,,,,,,,,,,,,,,,,,,228.16182280005887,229.1641256000148,228.16182280005887,229.1641256000148,228.16182280005887,229.1641256000148,228.16182280005887,229.1641256000148,up,1,0.3507601000601426,228.16182280005887,None,228.16182280005887,None,228.16182280005887,228.66251769999508,228.16182280005887,228.66251769999508,228.16182280005887,228.66251769999508,228.16182280005887,228.66251769999508,228.16182280005887,None,,,,,,,,,,,,,,,,,,,,,,,,,,,,,,,,,,,,,,,,,,12005,001,2024_Jun_13_1613,nback,2021.2.3,59.70498571627966,
1-back,instructions\back-1.png,conditions\1back-p.xlsx,instructions\1-BACK.png,"(25, 15)",practice,1,3,stim\gray.png,stim\gray.png,stim\yellow.png,stim\gray.png,left,1,0,1,0,0,1,1,1,0,16,16,16,,,,,,,,,,,,,,,,,,,,,,,,,,,229.66411799995694,230.6662768999813,229.66411799995694,230.6662768999813,229.66411799995694,230.6662768999813,229.66411799995694,230.6662768999813,left,1,0.21685349999461323,229.66411799995694,None,229.66411799995694,None,229.66411799995694,230.16481089999434,229.66411799995694,230.16481089999434,229.66411799995694,230.16481089999434,229.66411799995694,230.16481089999434,229.66411799995694,None,,,,,,,,,,,,,,,,,,,,,,,,,,,,,,,,,,,,,,,,,,12005,001,2024_Jun_13_1613,nback,2021.2.3,59.70498571627966,
1-back,instructions\back-1.png,conditions\1back-p.xlsx,instructions\1-BACK.png,"(25, 15)",practice,1,1,stim\yellow.png,stim\gray.png,stim\gray.png,stim\gray.png,right,1,0,1,0,0,1,1,1,0,17,17,17,,,,,,,,,,,,,,,,,,,,,,,,,,,231.16637820005417,232.1689531999873,231.16637820005417,232.1689531999873,231.16637820005417,232.1689531999873,231.16637820005417,232.1689531999873,right,1,0.305772399995476,231.16637820005417,None,231.16637820005417,None,231.16637820005417,231.66786130005494,231.16637820005417,231.66786130005494,231.16637820005417,231.66786130005494,231.16637820005417,231.66786130005494,231.16637820005417,None,,,,,,,,,,,,,,,,,,,,,,,,,,,,,,,,,,,,,,,,,,12005,001,2024_Jun_13_1613,nback,2021.2.3,59.70498571627966,
1-back,instructions\back-1.png,conditions\1back-p.xlsx,instructions\1-BACK.png,"(25, 15)",practice,1,4,stim\gray.png,stim\gray.png,stim\gray.png,stim\yellow.png,up,1,0,1,0,0,1,1,1,0,18,18,18,,,,,,,,,,,,,,,,,,,,,,,,,,,232.66952070000116,233.6709114999976,232.66952070000116,233.6709114999976,232.66952070000116,233.6709114999976,232.66952070000116,233.6709114999976,up,1,0.21864730003289878,232.66952070000116,None,232.66952070000116,None,232.66952070000116,233.16971759998705,232.66952070000116,233.16971759998705,232.66952070000116,233.16971759998705,232.66952070000116,233.16971759998705,232.66952070000116,None,,,,,,,,,,,,,,,,,,,,,,,,,,,,,,,,,,,,,,,,,,12005,001,2024_Jun_13_1613,nback,2021.2.3,59.70498571627966,
1-back,instructions\back-1.png,conditions\1back-p.xlsx,instructions\1-BACK.png,"(25, 15)",practice,1,2,stim\gray.png,stim\yellow.png,stim\gray.png,stim\gray.png,down,1,0,1,0,0,1,1,1,0,19,19,19,,,,,,,,,,,,,,,,,,,,,,,,,,,234.17064360005315,235.1722944000503,234.17064360005315,235.1722944000503,234.17064360005315,235.1722944000503,234.17064360005315,235.1722944000503,down,1,0.17377819993998855,234.17064360005315,None,234.17064360005315,None,234.17064360005315,234.6714617999969,234.17064360005315,234.6714617999969,234.17064360005315,234.6714617999969,234.17064360005315,234.6714617999969,234.17064360005315,None,,,,,,,,,,,,,,,,,,,,,,,,,,,,,,,,,,,,,,,,,,12005,001,2024_Jun_13_1613,nback,2021.2.3,59.70498571627966,
1-back,instructions\back-1.png,conditions\1back-p.xlsx,instructions\1-BACK.png,"(25, 15)",,,,,,,,,1,0,1,0,0,1,1,1,,,,,,,,,,,,,,,,,,,,,,,,,,,,,,,,,,,,,,,,,,,,,,,,,,,,,,,,,,,,,,,,,,,,,,,,,,,,,,,,,,,,,,,,,,,,,,,,,12005,001,2024_Jun_13_1613,nback,2021.2.3,59.70498571627966,
2-back,instructions\back-2.png,conditions\2back-p.xlsx,instructions\2-BACK.png,"(25, 15)",practice,2,1,stim\yellow.png,stim\gray.png,stim\gray.png,stim\gray.png,None,1,0,1,0,0,2,2,2,0,0,0,0,,,,,,,,,,,,,,,,,235.8407770000631,None,space,4.815853200037964,235.8407770000631,None,240.9309286000207,245.43780820001848,245.3209967999719,None,245.70632660004776,246.70677140005864,245.70632660004776,246.70677140005864,245.70632660004776,246.70677140005864,245.70632660004776,246.70677140005864,None,1,,245.70632660004776,None,245.70632660004776,None,245.70632660004776,246.206251500058,245.70632660004776,246.206251500058,245.70632660004776,246.206251500058,245.70632660004776,246.206251500058,245.70632660004776,None,,,,,,,,,,,,,,,,,,,,,,,,,,,,,,,,,,,,,,,,,,12005,001,2024_Jun_13_1613,nback,2021.2.3,59.70498571627966,
2-back,instructions\back-2.png,conditions\2back-p.xlsx,instructions\2-BACK.png,"(25, 15)",practice,2,2,stim\gray.png,stim\yellow.png,stim\gray.png,stim\gray.png,None,1,0,1,0,0,2,2,2,0,1,1,1,,,,,,,,,,,,,,,,,,,,,,,,,,,247.19027400005143,248.19189130002633,247.19027400005143,248.19189130002633,247.19027400005143,248.19189130002633,247.19027400005143,248.19189130002633,None,1,,247.19027400005143,None,247.19027400005143,None,247.19027400005143,247.69141490000766,247.19027400005143,247.69141490000766,247.19027400005143,247.69141490000766,247.19027400005143,247.69141490000766,247.19027400005143,None,,,,,,,,,,,,,,,,,,,,,,,,,,,,,,,,,,,,,,,,,,12005,001,2024_Jun_13_1613,nback,2021.2.3,59.70498571627966,
2-back,instructions\back-2.png,conditions\2back-p.xlsx,instructions\2-BACK.png,"(25, 15)",practice,2,3,stim\gray.png,stim\gray.png,stim\yellow.png,stim\gray.png,up,1,0,1,0,0,2,2,2,0,2,2,2,,,,,,,,,,,,,,,,,,,,,,,,,,,248.69294400000945,249.6942600000184,248.69294400000945,249.6942600000184,248.69294400000945,249.6942600000184,248.69294400000945,249.6942600000184,up,1,0.7317415999714285,248.69294400000945,None,248.69294400000945,None,248.69294400000945,249.1933317000512,248.69294400000945,249.1933317000512,248.69294400000945,249.1933317000512,248.69294400000945,249.1933317000512,248.69294400000945,None,,,,,,,,,,,,,,,,,,,,,,,,,,,,,,,,,,,,,,,,,,12005,001,2024_Jun_13_1613,nback,2021.2.3,59.70498571627966,
2-back,instructions\back-2.png,conditions\2back-p.xlsx,instructions\2-BACK.png,"(25, 15)",practice,2,4,stim\gray.png,stim\gray.png,stim\gray.png,stim\yellow.png,left,1,0,1,0,0,2,2,2,0,3,3,3,,,,,,,,,,,,,,,,,,,,,,,,,,,250.19497339997906,251.1966970000649,250.19497339997906,251.1966970000649,250.19497339997906,251.1966970000649,250.19497339997906,251.1966970000649,None,0,,250.19497339997906,None,250.19497339997906,None,250.19497339997906,250.69654440006707,250.19497339997906,250.69654440006707,250.19497339997906,250.69654440006707,250.19497339997906,250.69654440006707,250.19497339997906,None,,,,,,,,,,,,,,,,,,,,,,,,,,,,,,,,,,,,,,,,,,12005,001,2024_Jun_13_1613,nback,2021.2.3,59.70498571627966,
2-back,instructions\back-2.png,conditions\2back-p.xlsx,instructions\2-BACK.png,"(25, 15)",practice,2,2,stim\gray.png,stim\yellow.png,stim\gray.png,stim\gray.png,right,1,0,1,0,0,2,2,2,0,4,4,4,,,,,,,,,,,,,,,,,,,,,,,,,,,251.6972584000323,252.6998231000034,251.6972584000323,252.6998231000034,251.6972584000323,252.6998231000034,251.6972584000323,252.6998231000034,right,1,1.3438471999252215,251.6972584000323,None,251.6972584000323,None,251.6972584000323,252.1980306999758,251.6972584000323,252.1980306999758,251.6972584000323,252.1980306999758,251.6972584000323,252.1980306999758,251.6972584000323,None,,,,,,,,,,,,,,,,,,,,,,,,,,,,,,,,,,,,,,,,,,12005,001,2024_Jun_13_1613,nback,2021.2.3,59.70498571627966,
2-back,instructions\back-2.png,conditions\2back-p.xlsx,instructions\2-BACK.png,"(25, 15)",practice,2,1,stim\yellow.png,stim\gray.png,stim\gray.png,stim\gray.png,down,1,0,1,0,0,2,2,2,0,5,5,5,,,,,,,,,,,,,,,,,,,,,,,,,,,253.19949080003425,254.20105190004688,253.19949080003425,254.20105190004688,253.19949080003425,254.20105190004688,253.19949080003425,254.20105190004688,None,0,,253.19949080003425,None,253.19949080003425,None,253.19949080003425,253.70056939998176,253.19949080003425,253.70056939998176,253.19949080003425,253.70056939998176,253.19949080003425,253.70056939998176,253.19949080003425,None,,,,,,,,,,,,,,,,,,,,,,,,,,,,,,,,,,,,,,,,,,12005,001,2024_Jun_13_1613,nback,2021.2.3,59.70498571627966,
2-back,instructions\back-2.png,conditions\2back-p.xlsx,instructions\2-BACK.png,"(25, 15)",practice,2,4,stim\gray.png,stim\gray.png,stim\gray.png,stim\yellow.png,left,1,0,1,0,0,2,2,2,0,6,6,6,,,,,,,,,,,,,,,,,,,,,,,,,,,254.6850042999722,255.68652129999828,254.6850042999722,255.68652129999828,254.6850042999722,255.68652129999828,254.6850042999722,255.68652129999828,None,0,,254.6850042999722,None,254.6850042999722,None,254.6850042999722,255.18686759995762,254.6850042999722,255.18686759995762,254.6850042999722,255.18686759995762,254.6850042999722,255.18686759995762,254.6850042999722,None,,,,,,,,,,,,,,,,,,,,,,,,,,,,,,,,,,,,,,,,,,12005,001,2024_Jun_13_1613,nback,2021.2.3,59.70498571627966,
2-back,instructions\back-2.png,conditions\2back-p.xlsx,instructions\2-BACK.png,"(25, 15)",practice,2,3,stim\gray.png,stim\gray.png,stim\yellow.png,stim\gray.png,up,1,0,1,0,0,2,2,2,0,7,7,7,,,,,,,,,,,,,,,,,,,,,,,,,,,256.1874413000187,257.18881730001885,256.1874413000187,257.18881730001885,256.1874413000187,257.18881730001885,256.1874413000187,257.18881730001885,None,0,,256.1874413000187,None,256.1874413000187,None,256.1874413000187,256.68805969995447,256.1874413000187,256.68805969995447,256.1874413000187,256.68805969995447,256.1874413000187,256.68805969995447,256.1874413000187,None,,,,,,,,,,,,,,,,,,,,,,,,,,,,,,,,,,,,,,,,,,12005,001,2024_Jun_13_1613,nback,2021.2.3,59.70498571627966,
2-back,instructions\back-2.png,conditions\2back-p.xlsx,instructions\2-BACK.png,"(25, 15)",practice,2,3,stim\gray.png,stim\gray.png,stim\yellow.png,stim\gray.png,down,1,0,1,0,0,2,2,2,0,8,8,8,,,,,,,,,,,,,,,,,,,,,,,,,,,257.6912449999945,258.6910205000313,257.6912449999945,258.6910205000313,257.6912449999945,258.6910205000313,257.6912449999945,258.6910205000313,None,0,,257.6912449999945,None,257.6912449999945,None,257.6912449999945,258.1902083000168,257.6912449999945,258.1902083000168,257.6912449999945,258.1902083000168,257.6912449999945,258.1902083000168,257.6912449999945,None,,,,,,,,,,,,,,,,,,,,,,,,,,,,,,,,,,,,,,,,,,12005,001,2024_Jun_13_1613,nback,2021.2.3,59.70498571627966,
2-back,instructions\back-2.png,conditions\2back-p.xlsx,instructions\2-BACK.png,"(25, 15)",practice,2,4,stim\gray.png,stim\gray.png,stim\gray.png,stim\yellow.png,right,1,0,1,0,0,2,2,2,0,9,9,9,,,,,,,,,,,,,,,,,,,,,,,,,,,259.191675900016,260.1932133999653,259.191675900016,260.1932133999653,259.191675900016,260.1932133999653,259.191675900016,260.1932133999653,None,0,,259.191675900016,None,259.191675900016,None,259.191675900016,259.69272329995874,259.191675900016,259.69272329995874,259.191675900016,259.69272329995874,259.191675900016,259.69272329995874,259.191675900016,None,,,,,,,,,,,,,,,,,,,,,,,,,,,,,,,,,,,,,,,,,,12005,001,2024_Jun_13_1613,nback,2021.2.3,59.70498571627966,
2-back,instructions\back-2.png,conditions\2back-p.xlsx,instructions\2-BACK.png,"(25, 15)",practice,2,1,stim\yellow.png,stim\gray.png,stim\gray.png,stim\gray.png,right,1,0,1,0,0,2,2,2,0,10,10,10,,,,,,,,,,,,,,,,,,,,,,,,,,,260.69414090004284,261.6965352999978,260.69414090004284,261.6965352999978,260.69414090004284,261.6965352999978,260.69414090004284,261.6965352999978,None,0,,260.69414090004284,None,260.69414090004284,None,260.69414090004284,261.19616489997134,260.69414090004284,261.19616489997134,260.69414090004284,261.19616489997134,260.69414090004284,261.19616489997134,260.69414090004284,None,,,,,,,,,,,,,,,,,,,,,,,,,,,,,,,,,,,,,,,,,,12005,001,2024_Jun_13_1613,nback,2021.2.3,59.70498571627966,
2-back,instructions\back-2.png,conditions\2back-p.xlsx,instructions\2-BACK.png,"(25, 15)",practice,2,2,stim\gray.png,stim\yellow.png,stim\gray.png,stim\gray.png,down,1,0,1,0,0,2,2,2,0,11,11,11,,,,,,,,,,,,,,,,,,,,,,,,,,,262.19631619995926,263.1984398000641,262.19631619995926,263.1984398000641,262.19631619995926,263.1984398000641,262.19631619995926,263.1984398000641,None,0,,262.19631619995926,None,262.19631619995926,None,262.19631619995926,262.6971632000059,262.19631619995926,262.6971632000059,262.19631619995926,262.6971632000059,262.19631619995926,262.6971632000059,262.19631619995926,None,,,,,,,,,,,,,,,,,,,,,,,,,,,,,,,,,,,,,,,,,,12005,001,2024_Jun_13_1613,nback,2021.2.3,59.70498571627966,
2-back,instructions\back-2.png,conditions\2back-p.xlsx,instructions\2-BACK.png,"(25, 15)",practice,2,4,stim\gray.png,stim\gray.png,stim\gray.png,stim\yellow.png,up,1,0,1,0,0,2,2,2,0,12,12,12,,,,,,,,,,,,,,,,,,,,,,,,,,,263.69846650003456,264.70007270004135,263.69846650003456,264.70007270004135,263.69846650003456,264.70007270004135,263.69846650003456,264.70007270004135,up,1,0.24718109995592386,263.69846650003456,None,263.69846650003456,None,263.69846650003456,264.2005208999617,263.69846650003456,264.2005208999617,263.69846650003456,264.2005208999617,263.69846650003456,264.2005208999617,263.69846650003456,None,,,,,,,,,,,,,,,,,,,,,,,,,,,,,,,,,,,,,,,,,,12005,001,2024_Jun_13_1613,nback,2021.2.3,59.70498571627966,
2-back,instructions\back-2.png,conditions\2back-p.xlsx,instructions\2-BACK.png,"(25, 15)",practice,2,3,stim\gray.png,stim\gray.png,stim\yellow.png,stim\gray.png,left,1,0,1,0,0,2,2,2,0,13,13,13,,,,,,,,,,,,,,,,,,,,,,,,,,,265.2008024000097,266.20335950003937,265.2008024000097,266.20335950003937,265.2008024000097,266.20335950003937,265.2008024000097,266.20335950003937,None,0,,265.2008024000097,None,265.2008024000097,None,265.2008024000097,265.70170390000567,265.2008024000097,265.70170390000567,265.2008024000097,265.70170390000567,265.2008024000097,265.70170390000567,265.2008024000097,None,,,,,,,,,,,,,,,,,,,,,,,,,,,,,,,,,,,,,,,,,,12005,001,2024_Jun_13_1613,nback,2021.2.3,59.70498571627966,
2-back,instructions\back-2.png,conditions\2back-p.xlsx,instructions\2-BACK.png,"(25, 15)",practice,2,1,stim\yellow.png,stim\gray.png,stim\gray.png,stim\gray.png,down,1,0,1,0,0,2,2,2,0,14,14,14,,,,,,,,,,,,,,,,,,,,,,,,,,,266.68688100005966,267.68880330002867,266.68688100005966,267.68880330002867,266.68688100005966,267.68880330002867,266.68688100005966,267.68880330002867,None,0,,266.68688100005966,None,266.68688100005966,None,266.68688100005966,267.1880191999953,266.68688100005966,267.1880191999953,266.68688100005966,267.1880191999953,266.68688100005966,267.1880191999953,266.68688100005966,None,,,,,,,,,,,,,,,,,,,,,,,,,,,,,,,,,,,,,,,,,,12005,001,2024_Jun_13_1613,nback,2021.2.3,59.70498571627966,
2-back,instructions\back-2.png,conditions\2back-p.xlsx,instructions\2-BACK.png,"(25, 15)",practice,2,2,stim\gray.png,stim\yellow.png,stim\gray.png,stim\gray.png,right,1,0,1,0,0,2,2,2,0,15,15,15,,,,,,,,,,,,,,,,,,,,,,,,,,,268.18873070005793,269.1901125999866,268.18873070005793,269.1901125999866,268.18873070005793,269.1901125999866,268.18873070005793,269.1901125999866,right,1,0.0044620000990107656,268.18873070005793,None,268.18873070005793,None,268.18873070005793,268.6898399000056,268.18873070005793,268.6898399000056,268.18873070005793,268.6898399000056,268.18873070005793,268.6898399000056,268.18873070005793,None,,,,,,,,,,,,,,,,,,,,,,,,,,,,,,,,,,,,,,,,,,12005,001,2024_Jun_13_1613,nback,2021.2.3,59.70498571627966,
2-back,instructions\back-2.png,conditions\2back-p.xlsx,instructions\2-BACK.png,"(25, 15)",practice,2,3,stim\gray.png,stim\gray.png,stim\yellow.png,stim\gray.png,up,1,0,1,0,0,2,2,2,0,16,16,16,,,,,,,,,,,,,,,,,,,,,,,,,,,269.6911258000182,270.6925707999617,269.6911258000182,270.6925707999617,269.6911258000182,270.6925707999617,269.6911258000182,270.6925707999617,None,0,,269.6911258000182,None,269.6911258000182,None,269.6911258000182,270.19178720004857,269.6911258000182,270.19178720004857,269.6911258000182,270.19178720004857,269.6911258000182,270.19178720004857,269.6911258000182,None,,,,,,,,,,,,,,,,,,,,,,,,,,,,,,,,,,,,,,,,,,12005,001,2024_Jun_13_1613,nback,2021.2.3,59.70498571627966,
2-back,instructions\back-2.png,conditions\2back-p.xlsx,instructions\2-BACK.png,"(25, 15)",practice,2,1,stim\yellow.png,stim\gray.png,stim\gray.png,stim\gray.png,left,1,0,1,0,0,2,2,2,0,17,17,17,,,,,,,,,,,,,,,,,,,,,,,,,,,271.1933294000337,272.19487070001196,271.1933294000337,272.19487070001196,271.1933294000337,272.19487070001196,271.1933294000337,272.19487070001196,left,1,1.25631169998087,271.1933294000337,None,271.1933294000337,None,271.1933294000337,271.69469889998436,271.1933294000337,271.69469889998436,271.1933294000337,271.69469889998436,271.1933294000337,271.69469889998436,271.1933294000337,None,,,,,,,,,,,,,,,,,,,,,,,,,,,,,,,,,,,,,,,,,,12005,001,2024_Jun_13_1613,nback,2021.2.3,59.70498571627966,
2-back,instructions\back-2.png,conditions\2back-p.xlsx,instructions\2-BACK.png,"(25, 15)",practice,2,4,stim\gray.png,stim\gray.png,stim\gray.png,stim\yellow.png,right,1,0,1,0,0,2,2,2,0,18,18,18,,,,,,,,,,,,,,,,,,,,,,,,,,,272.6954190999968,273.69705389998853,272.6954190999968,273.69705389998853,272.6954190999968,273.69705389998853,272.6954190999968,273.69705389998853,None,0,,272.6954190999968,None,272.6954190999968,None,272.6954190999968,273.1968778000446,272.6954190999968,273.1968778000446,272.6954190999968,273.1968778000446,272.6954190999968,273.1968778000446,272.6954190999968,None,,,,,,,,,,,,,,,,,,,,,,,,,,,,,,,,,,,,,,,,,,12005,001,2024_Jun_13_1613,nback,2021.2.3,59.70498571627966,
2-back,instructions\back-2.png,conditions\2back-p.xlsx,instructions\2-BACK.png,"(25, 15)",practice,2,2,stim\gray.png,stim\yellow.png,stim\gray.png,stim\gray.png,up,1,0,1,0,0,2,2,2,0,19,19,19,,,,,,,,,,,,,,,,,,,,,,,,,,,274.19847199996,275.19938320002984,274.19847199996,275.19938320002984,274.19847199996,275.19938320002984,274.19847199996,275.19938320002984,None,0,,274.19847199996,None,274.19847199996,None,274.19847199996,274.6993864000542,274.19847199996,274.6993864000542,274.19847199996,274.6993864000542,274.19847199996,274.6993864000542,274.19847199996,None,,,,,,,,,,,,,,,,,,,,,,,,,,,,,,,,,,,,,,,,,,12005,001,2024_Jun_13_1613,nback,2021.2.3,59.70498571627966,
2-back,instructions\back-2.png,conditions\2back-p.xlsx,instructions\2-BACK.png,"(25, 15)",,,,,,,,,1,0,1,0,0,2,2,2,,,,,,,,,,,,,,,,,,,,,,,,,,,,,,,,,,,,,,,,,,,,,,,,,,,,,,,,,,,,,,,,,,,,,,,,,,,,,,,,,,,,,,,,,,,,,,,,,12005,001,2024_Jun_13_1613,nback,2021.2.3,59.70498571627966,
,,,,,,,,,,,,,1,0,1,0,,,,,,,,,,,,,,,,,,,,,,,,,,,,,,,,,,,,,,,,,,,,,,,,,,,,,,,,,,,,275.6831901000114,None,space,7.943438699934632,275.6831901000114,None,,,,,,,,,,,,,,,,,,,,,,,,,,,,,,,,,,,,12005,001,2024_Jun_13_1613,nback,2021.2.3,59.70498571627966,
,,,,,,,,,,,,,,,,,,,,,,,,,,,,,,,,,,,,,,,,,,,,,,,,,,,,,,,,,,,,,,,,,,,,,,,,,,,,,,,,,,283.64534250006545,None,space,12.956613900023513,283.64534250006545,None,,,,,,,,,,,,,,,,,,,,,,,,,,,,,,12005,001,2024_Jun_13_1613,nback,2021.2.3,59.70498571627966,
0-back,instructions\back-0.png,conditions\01back-e.xlsx,,,experiment,0,2,stim\gray.png,stim\yellow.png,stim\gray.png,stim\gray.png,left,,,,,,,,,,,,,0,0,0,4,0,0,0,0,,,,,,,,,,,,,,,296.83195869997144,301.34015299996827,301.289206400048,None,,,,,,,,,,,,,,,,,,,,,,,,,,,,,,,,,,,,,,left,1,0.38651730003766716,301.65573400002904,None,301.65573400002904,None,301.65573400002904,302.65803479996976,301.65573400002904,302.65803479996976,301.65573400002904,302.65803479996976,301.65573400002904,302.65803479996976,301.65573400002904,302.15764180000406,301.65573400002904,302.15764180000406,301.65573400002904,302.15764180000406,301.65573400002904,302.15764180000406,301.65573400002904,None,,,,,12005,001,2024_Jun_13_1613,nback,2021.2.3,59.70498571627966,
0-back,instructions\back-0.png,conditions\01back-e.xlsx,,,experiment,0,4,stim\gray.png,stim\gray.png,stim\gray.png,stim\yellow.png,down,,,,,,,,,,,,,0,0,0,4,0,1,1,1,,,,,,,,,,,,,,,,,,,,,,,,,,,,,,,,,,,,,,,,,,,,,,,,,,,,,,,,down,1,0.4210787999909371,303.1413326000329,None,303.1413326000329,None,303.1413326000329,304.1436452000635,303.1413326000329,304.1436452000635,303.1413326000329,304.1436452000635,303.1413326000329,304.1436452000635,303.1413326000329,303.64361400005873,303.1413326000329,303.64361400005873,303.1413326000329,303.64361400005873,303.1413326000329,303.64361400005873,303.1413326000329,None,,,,,12005,001,2024_Jun_13_1613,nback,2021.2.3,59.70498571627966,
0-back,instructions\back-0.png,conditions\01back-e.xlsx,,,experiment,0,1,stim\yellow.png,stim\gray.png,stim\gray.png,stim\gray.png,up,,,,,,,,,,,,,0,0,0,4,0,2,2,2,,,,,,,,,,,,,,,,,,,,,,,,,,,,,,,,,,,,,,,,,,,,,,,,,,,,,,,,up,1,0.44706789997871965,304.6436602000613,None,304.6436602000613,None,304.6436602000613,305.645298599964,304.6436602000613,305.645298599964,304.6436602000613,305.645298599964,304.6436602000613,305.645298599964,304.6436602000613,305.14433629997075,304.6436602000613,305.14433629997075,304.6436602000613,305.14433629997075,304.6436602000613,305.14433629997075,304.6436602000613,None,,,,,12005,001,2024_Jun_13_1613,nback,2021.2.3,59.70498571627966,
0-back,instructions\back-0.png,conditions\01back-e.xlsx,,,experiment,0,2,stim\gray.png,stim\yellow.png,stim\gray.png,stim\gray.png,left,,,,,,,,,,,,,0,0,0,4,0,3,3,3,,,,,,,,,,,,,,,,,,,,,,,,,,,,,,,,,,,,,,,,,,,,,,,,,,,,,,,,left,1,0.4888504999689758,306.1461147000082,None,306.1461147000082,None,306.1461147000082,307.1483453999972,306.1461147000082,307.1483453999972,306.1461147000082,307.1483453999972,306.1461147000082,307.1483453999972,306.1461147000082,306.64716469997074,306.1461147000082,306.64716469997074,306.1461147000082,306.64716469997074,306.1461147000082,306.64716469997074,306.1461147000082,None,,,,,12005,001,2024_Jun_13_1613,nback,2021.2.3,59.70498571627966,
0-back,instructions\back-0.png,conditions\01back-e.xlsx,,,experiment,0,3,stim\gray.png,stim\gray.png,stim\yellow.png,stim\gray.png,right,,,,,,,,,,,,,0,0,0,4,0,4,4,4,,,,,,,,,,,,,,,,,,,,,,,,,,,,,,,,,,,,,,,,,,,,,,,,,,,,,,,,right,1,0.45091260003391653,307.6482324000681,None,307.6482324000681,None,307.6482324000681,308.65062850003596,307.6482324000681,308.65062850003596,307.6482324000681,308.65062850003596,307.6482324000681,308.65062850003596,307.6482324000681,308.1489365999587,307.6482324000681,308.1489365999587,307.6482324000681,308.1489365999587,307.6482324000681,308.1489365999587,307.6482324000681,None,,,,,12005,001,2024_Jun_13_1613,nback,2021.2.3,59.70498571627966,
0-back,instructions\back-0.png,conditions\01back-e.xlsx,,,experiment,0,1,stim\yellow.png,stim\gray.png,stim\gray.png,stim\gray.png,up,,,,,,,,,,,,,0,0,0,4,0,5,5,5,,,,,,,,,,,,,,,,,,,,,,,,,,,,,,,,,,,,,,,,,,,,,,,,,,,,,,,,up,1,0.41970249998848885,309.1505211000331,None,309.1505211000331,None,309.1505211000331,310.1521459000651,309.1505211000331,310.1521459000651,309.1505211000331,310.1521459000651,309.1505211000331,310.1521459000651,309.1505211000331,309.65131800004747,309.1505211000331,309.65131800004747,309.1505211000331,309.65131800004747,309.1505211000331,309.65131800004747,309.1505211000331,None,,,,,12005,001,2024_Jun_13_1613,nback,2021.2.3,59.70498571627966,
0-back,instructions\back-0.png,conditions\01back-e.xlsx,,,experiment,0,4,stim\gray.png,stim\gray.png,stim\gray.png,stim\yellow.png,down,,,,,,,,,,,,,0,0,0,4,0,6,6,6,,,,,,,,,,,,,,,,,,,,,,,,,,,,,,,,,,,,,,,,,,,,,,,,,,,,,,,,down,1,0.2945995999034494,310.6360356999794,None,310.6360356999794,None,310.6360356999794,311.6381795000052,310.6360356999794,311.6381795000052,310.6360356999794,311.6381795000052,310.6360356999794,311.6381795000052,310.6360356999794,311.137531699962,310.6360356999794,311.137531699962,310.6360356999794,311.137531699962,310.6360356999794,311.137531699962,310.6360356999794,None,,,,,12005,001,2024_Jun_13_1613,nback,2021.2.3,59.70498571627966,
0-back,instructions\back-0.png,conditions\01back-e.xlsx,,,experiment,0,3,stim\gray.png,stim\gray.png,stim\yellow.png,stim\gray.png,right,,,,,,,,,,,,,0,0,0,4,0,7,7,7,,,,,,,,,,,,,,,,,,,,,,,,,,,,,,,,,,,,,,,,,,,,,,,,,,,,,,,,right,1,0.31261590006761253,312.138213200029,None,312.138213200029,None,312.138213200029,313.1408031999599,312.138213200029,313.1408031999599,312.138213200029,313.1408031999599,312.138213200029,313.1408031999599,312.138213200029,312.64013539999723,312.138213200029,312.64013539999723,312.138213200029,312.64013539999723,312.138213200029,312.64013539999723,312.138213200029,None,,,,,12005,001,2024_Jun_13_1613,nback,2021.2.3,59.70498571627966,
0-back,instructions\back-0.png,conditions\01back-e.xlsx,,,experiment,0,4,stim\gray.png,stim\gray.png,stim\gray.png,stim\yellow.png,down,,,,,,,,,,,,,0,0,0,4,0,8,8,8,,,,,,,,,,,,,,,,,,,,,,,,,,,,,,,,,,,,,,,,,,,,,,,,,,,,,,,,down,1,0.3219435000792146,313.6405503000133,None,313.6405503000133,None,313.6405503000133,314.6430207999656,313.6405503000133,314.6430207999656,313.6405503000133,314.6430207999656,313.6405503000133,314.6430207999656,313.6405503000133,314.14137670001946,313.6405503000133,314.14137670001946,313.6405503000133,314.14137670001946,313.6405503000133,314.14137670001946,313.6405503000133,None,,,,,12005,001,2024_Jun_13_1613,nback,2021.2.3,59.70498571627966,
0-back,instructions\back-0.png,conditions\01back-e.xlsx,,,experiment,0,3,stim\gray.png,stim\gray.png,stim\yellow.png,stim\gray.png,right,,,,,,,,,,,,,0,0,0,4,0,9,9,9,,,,,,,,,,,,,,,,,,,,,,,,,,,,,,,,,,,,,,,,,,,,,,,,,,,,,,,,right,1,0.3956585000269115,315.1431065000361,None,315.1431065000361,None,315.1431065000361,316.14529650006443,315.1431065000361,316.14529650006443,315.1431065000361,316.14529650006443,315.1431065000361,316.14529650006443,315.1431065000361,315.6435115999775,315.1431065000361,315.6435115999775,315.1431065000361,315.6435115999775,315.1431065000361,315.6435115999775,315.1431065000361,None,,,,,12005,001,2024_Jun_13_1613,nback,2021.2.3,59.70498571627966,
0-back,instructions\back-0.png,conditions\01back-e.xlsx,,,experiment,0,3,stim\gray.png,stim\gray.png,stim\yellow.png,stim\gray.png,right,,,,,,,,,,,,,0,0,0,4,0,10,10,10,,,,,,,,,,,,,,,,,,,,,,,,,,,,,,,,,,,,,,,,,,,,,,,,,,,,,,,,right,1,0.357567899976857,316.64518570003565,None,316.64518570003565,None,316.64518570003565,317.64659879996907,316.64518570003565,317.64659879996907,316.64518570003565,317.64659879996907,316.64518570003565,317.64659879996907,316.64518570003565,317.1460244000191,316.64518570003565,317.1460244000191,316.64518570003565,317.1460244000191,316.64518570003565,317.1460244000191,316.64518570003565,None,,,,,12005,001,2024_Jun_13_1613,nback,2021.2.3,59.70498571627966,
0-back,instructions\back-0.png,conditions\01back-e.xlsx,,,experiment,0,1,stim\yellow.png,stim\gray.png,stim\gray.png,stim\gray.png,up,,,,,,,,,,,,,0,0,0,4,0,11,11,11,,,,,,,,,,,,,,,,,,,,,,,,,,,,,,,,,,,,,,,,,,,,,,,,,,,,,,,,up,1,0.42291530000511557,318.1483465000056,None,318.1483465000056,None,318.1483465000056,319.14890619996004,318.1483465000056,319.14890619996004,318.1483465000056,319.14890619996004,318.1483465000056,319.14890619996004,318.1483465000056,318.6490030999994,318.1483465000056,318.6490030999994,318.1483465000056,318.6490030999994,318.1483465000056,318.6490030999994,318.1483465000056,None,,,,,12005,001,2024_Jun_13_1613,nback,2021.2.3,59.70498571627966,
0-back,instructions\back-0.png,conditions\01back-e.xlsx,,,experiment,0,3,stim\gray.png,stim\gray.png,stim\yellow.png,stim\gray.png,right,,,,,,,,,,,,,0,0,0,4,0,12,12,12,,,,,,,,,,,,,,,,,,,,,,,,,,,,,,,,,,,,,,,,,,,,,,,,,,,,,,,,right,1,0.3288605000125244,319.6498299000086,None,319.6498299000086,None,319.6498299000086,320.6518296999857,319.6498299000086,320.6518296999857,319.6498299000086,320.6518296999857,319.6498299000086,320.6518296999857,319.6498299000086,320.1506158000557,319.6498299000086,320.1506158000557,319.6498299000086,320.1506158000557,319.6498299000086,320.1506158000557,319.6498299000086,None,,,,,12005,001,2024_Jun_13_1613,nback,2021.2.3,59.70498571627966,
0-back,instructions\back-0.png,conditions\01back-e.xlsx,,,experiment,0,1,stim\yellow.png,stim\gray.png,stim\gray.png,stim\gray.png,up,,,,,,,,,,,,,0,0,0,4,0,13,13,13,,,,,,,,,,,,,,,,,,,,,,,,,,,,,,,,,,,,,,,,,,,,,,,,,,,,,,,,up,1,0.29950950003694743,321.13614269997925,None,321.13614269997925,None,321.13614269997925,322.1370931999991,321.13614269997925,322.1370931999991,321.13614269997925,322.1370931999991,321.13614269997925,322.1370931999991,321.13614269997925,321.6367373999674,321.13614269997925,321.6367373999674,321.13614269997925,321.6367373999674,321.13614269997925,321.6367373999674,321.13614269997925,None,,,,,12005,001,2024_Jun_13_1613,nback,2021.2.3,59.70498571627966,
0-back,instructions\back-0.png,conditions\01back-e.xlsx,,,experiment,0,4,stim\gray.png,stim\gray.png,stim\gray.png,stim\yellow.png,down,,,,,,,,,,,,,0,0,0,4,0,14,14,14,,,,,,,,,,,,,,,,,,,,,,,,,,,,,,,,,,,,,,,,,,,,,,,,,,,,,,,,down,1,0.373872600030154,322.63753129995894,None,322.63753129995894,None,322.63753129995894,323.63985150004737,322.63753129995894,323.63985150004737,322.63753129995894,323.63985150004737,322.63753129995894,323.63985150004737,322.63753129995894,323.1391311000334,322.63753129995894,323.1391311000334,322.63753129995894,323.1391311000334,322.63753129995894,323.1391311000334,322.63753129995894,None,,,,,12005,001,2024_Jun_13_1613,nback,2021.2.3,59.70498571627966,
