backseq,backinstr,backfile,instruction,size_in,Trialtype,back,number,P1,P2,P3,P4,corrAns,trials_practice.thisRepN,trials_practice.thisTrialN,trials_practice.thisN,trials_practice.thisIndex,trials.thisRepN,trials.thisTrialN,trials.thisN,trials.thisIndex,trials_3.thisRepN,trials_3.thisTrialN,trials_3.thisN,trials_3.thisIndex,trials_2.thisRepN,trials_2.thisTrialN,trials_2.thisN,trials_2.thisIndex,trials_4.thisRepN,trials_4.thisTrialN,trials_4.thisN,trials_4.thisIndex,image.started,image.stopped,image_2.started,image_2.stopped,key_resp.keys,key_resp.rt,key_resp.started,key_resp.stopped,image_3.started,image_3.stopped,key_resp_2.keys,key_resp_2.rt,key_resp_2.started,key_resp_2.stopped,image_4.started,image_4.stopped,text.started,text.stopped,H1.started,H1.stopped,H2.started,H2.stopped,H3.started,H3.stopped,H4.started,H4.stopped,key_resp_3.keys,key_resp_3.corr,key_resp_3.rt,key_resp_3.started,key_resp_3.stopped,text_4.started,text_4.stopped,F1.started,F1.stopped,F2.started,F2.stopped,F3.started,F3.stopped,F4.started,F4.stopped,image_7.started,image_7.stopped,text_5.started,text_5.stopped,key_resp_6.keys,key_resp_6.rt,key_resp_6.started,key_resp_6.stopped,image_5.started,image_5.stopped,key_resp_4.keys,key_resp_4.rt,key_resp_4.started,key_resp_4.stopped,key_resp_5.keys,key_resp_5.corr,key_resp_5.rt,key_resp_5.started,key_resp_5.stopped,text_3.started,text_3.stopped,H1_2.started,H1_2.stopped,H2_2.started,H2_2.stopped,H3_2.started,H3_2.stopped,H4_2.started,H4_2.stopped,F1_2.started,F1_2.stopped,F2_2.started,F2_2.stopped,F3_2.started,F3_2.stopped,F4_2.started,F4_2.stopped,image_8.started,image_8.stopped,text_2.started,text_2.stopped,image_6.started,image_6.stopped,participant,session,date,expName,psychopyVersion,frameRate,
,,,,,,,,,,,,,,,,,,,,,,,,,,,,,,,,,16.184313800011296,None,17.118797499977518,None,space,0.46246199996676296,17.118797499977518,None,,,,,,,,,,,,,,,,,,,,,,,,,,,,,,,,,,,,,,,,,,,,,,,,,,,,,,,,,,,,,,,,,,,,,,,,,,,,,12014,001,2024_Jun_20_1918,nback,2021.2.3,60.21890778600022,
0-back,instructions\back-0.png,conditions\0back-p.xlsx,instructions\0-BACK.png,"(15, 8)",practice,0,1,stim\yellow.png,stim\gray.png,stim\gray.png,stim\gray.png,up,0,0,0,0,0,0,0,0,0,0,0,0,,,,,,,,,,,,,,,,,17.65228630002821,None,space,20.971993100014515,17.65228630002821,None,38.85146299999906,43.358006299997214,43.290936600009445,None,43.72490159998415,44.72647270001471,43.72490159998415,44.72647270001471,43.72490159998415,44.72647270001471,43.72490159998415,44.72647270001471,up,1,0.5080796999973245,43.72490159998415,None,43.72490159998415,None,43.72490159998415,44.225764799979515,43.72490159998415,44.225764799979515,43.72490159998415,44.225764799979515,43.72490159998415,44.225764799979515,43.72490159998415,None,,,,,,,,,,,,,,,,,,,,,,,,,,,,,,,,,,,,,,,,,,12014,001,2024_Jun_20_1918,nback,2021.2.3,60.21890778600022,
0-back,instructions\back-0.png,conditions\0back-p.xlsx,instructions\0-BACK.png,"(15, 8)",practice,0,2,stim\gray.png,stim\yellow.png,stim\gray.png,stim\gray.png,left,0,0,0,0,0,0,0,0,0,1,1,1,,,,,,,,,,,,,,,,,,,,,,,,,,,45.160914100008085,46.16183539998019,45.160914100008085,46.16183539998019,45.160914100008085,46.16183539998019,45.160914100008085,46.16183539998019,left,1,0.448209099995438,45.160914100008085,None,45.160914100008085,None,45.160914100008085,45.66120770003181,45.160914100008085,45.66120770003181,45.160914100008085,45.66120770003181,45.160914100008085,45.66120770003181,45.160914100008085,None,,,,,,,,,,,,,,,,,,,,,,,,,,,,,,,,,,,,,,,,,,12014,001,2024_Jun_20_1918,nback,2021.2.3,60.21890778600022,
0-back,instructions\back-0.png,conditions\0back-p.xlsx,instructions\0-BACK.png,"(15, 8)",practice,0,3,stim\gray.png,stim\gray.png,stim\yellow.png,stim\gray.png,right,0,0,0,0,0,0,0,0,0,2,2,2,,,,,,,,,,,,,,,,,,,,,,,,,,,46.6627297999803,47.66458959999727,46.6627297999803,47.66458959999727,46.6627297999803,47.66458959999727,46.6627297999803,47.66458959999727,right,1,0.5779701999854296,46.6627297999803,None,46.6627297999803,None,46.6627297999803,47.16343160002725,46.6627297999803,47.16343160002725,46.6627297999803,47.16343160002725,46.6627297999803,47.16343160002725,46.6627297999803,None,,,,,,,,,,,,,,,,,,,,,,,,,,,,,,,,,,,,,,,,,,12014,001,2024_Jun_20_1918,nback,2021.2.3,60.21890778600022,
0-back,instructions\back-0.png,conditions\0back-p.xlsx,instructions\0-BACK.png,"(15, 8)",practice,0,4,stim\gray.png,stim\gray.png,stim\gray.png,stim\yellow.png,down,0,0,0,0,0,0,0,0,0,3,3,3,,,,,,,,,,,,,,,,,,,,,,,,,,,48.16507819999242,49.166519800026435,48.16507819999242,49.166519800026435,48.16507819999242,49.166519800026435,48.16507819999242,49.166519800026435,down,1,0.5714642000384629,48.16507819999242,None,48.16507819999242,None,48.16507819999242,48.665690699999686,48.16507819999242,48.665690699999686,48.16507819999242,48.665690699999686,48.16507819999242,48.665690699999686,48.16507819999242,None,,,,,,,,,,,,,,,,,,,,,,,,,,,,,,,,,,,,,,,,,,12014,001,2024_Jun_20_1918,nback,2021.2.3,60.21890778600022,
0-back,instructions\back-0.png,conditions\0back-p.xlsx,instructions\0-BACK.png,"(15, 8)",practice,0,2,stim\gray.png,stim\yellow.png,stim\gray.png,stim\gray.png,left,0,0,0,0,0,0,0,0,0,4,4,4,,,,,,,,,,,,,,,,,,,,,,,,,,,49.667608199990354,50.668659000017215,49.667608199990354,50.668659000017215,49.667608199990354,50.668659000017215,49.667608199990354,50.668659000017215,left,1,0.4136321999831125,49.667608199990354,None,49.667608199990354,None,49.667608199990354,50.16799119999632,49.667608199990354,50.16799119999632,49.667608199990354,50.16799119999632,49.667608199990354,50.16799119999632,49.667608199990354,None,,,,,,,,,,,,,,,,,,,,,,,,,,,,,,,,,,,,,,,,,,12014,001,2024_Jun_20_1918,nback,2021.2.3,60.21890778600022,
0-back,instructions\back-0.png,conditions\0back-p.xlsx,instructions\0-BACK.png,"(15, 8)",practice,0,1,stim\yellow.png,stim\gray.png,stim\gray.png,stim\gray.png,up,0,0,0,0,0,0,0,0,0,5,5,5,,,,,,,,,,,,,,,,,,,,,,,,,,,51.16957030002959,52.17106289998628,51.16957030002959,52.17106289998628,51.16957030002959,52.17106289998628,51.16957030002959,52.17106289998628,up,1,0.43943620001664385,51.16957030002959,None,51.16957030002959,None,51.16957030002959,51.67022889998043,51.16957030002959,51.67022889998043,51.16957030002959,51.67022889998043,51.16957030002959,51.67022889998043,51.16957030002959,None,,,,,,,,,,,,,,,,,,,,,,,,,,,,,,,,,,,,,,,,,,12014,001,2024_Jun_20_1918,nback,2021.2.3,60.21890778600022,
0-back,instructions\back-0.png,conditions\0back-p.xlsx,instructions\0-BACK.png,"(15, 8)",practice,0,4,stim\gray.png,stim\gray.png,stim\gray.png,stim\yellow.png,down,0,0,0,0,0,0,0,0,0,6,6,6,,,,,,,,,,,,,,,,,,,,,,,,,,,52.671555000008084,53.673183500010055,52.671555000008084,53.673183500010055,52.671555000008084,53.673183500010055,52.671555000008084,53.673183500010055,down,1,0.6653233999968506,52.671555000008084,None,52.671555000008084,None,52.671555000008084,53.17258710000897,52.671555000008084,53.17258710000897,52.671555000008084,53.17258710000897,52.671555000008084,53.17258710000897,52.671555000008084,None,,,,,,,,,,,,,,,,,,,,,,,,,,,,,,,,,,,,,,,,,,12014,001,2024_Jun_20_1918,nback,2021.2.3,60.21890778600022,
0-back,instructions\back-0.png,conditions\0back-p.xlsx,instructions\0-BACK.png,"(15, 8)",practice,0,3,stim\gray.png,stim\gray.png,stim\yellow.png,stim\gray.png,right,0,0,0,0,0,0,0,0,0,7,7,7,,,,,,,,,,,,,,,,,,,,,,,,,,,54.15778990002582,55.15874199999962,54.15778990002582,55.15874199999962,54.15778990002582,55.15874199999962,54.15778990002582,55.15874199999962,right,1,0.49933150003198534,54.15778990002582,None,54.15778990002582,None,54.15778990002582,54.65832799999043,54.15778990002582,54.65832799999043,54.15778990002582,54.65832799999043,54.15778990002582,54.65832799999043,54.15778990002582,None,,,,,,,,,,,,,,,,,,,,,,,,,,,,,,,,,,,,,,,,,,12014,001,2024_Jun_20_1918,nback,2021.2.3,60.21890778600022,
0-back,instructions\back-0.png,conditions\0back-p.xlsx,instructions\0-BACK.png,"(15, 8)",practice,0,3,stim\gray.png,stim\gray.png,stim\yellow.png,stim\gray.png,right,0,0,0,0,0,0,0,0,0,8,8,8,,,,,,,,,,,,,,,,,,,,,,,,,,,55.65948209998896,56.66108270001132,55.65948209998896,56.66108270001132,55.65948209998896,56.66108270001132,55.65948209998896,56.66108270001132,right,1,0.4058356000459753,55.65948209998896,None,55.65948209998896,None,55.65948209998896,56.16093479999108,55.65948209998896,56.16093479999108,55.65948209998896,56.16093479999108,55.65948209998896,56.16093479999108,55.65948209998896,None,,,,,,,,,,,,,,,,,,,,,,,,,,,,,,,,,,,,,,,,,,12014,001,2024_Jun_20_1918,nback,2021.2.3,60.21890778600022,
0-back,instructions\back-0.png,conditions\0back-p.xlsx,instructions\0-BACK.png,"(15, 8)",practice,0,4,stim\gray.png,stim\gray.png,stim\gray.png,stim\yellow.png,down,0,0,0,0,0,0,0,0,0,9,9,9,,,,,,,,,,,,,,,,,,,,,,,,,,,57.16191650001565,58.16339439997682,57.16191650001565,58.16339439997682,57.16191650001565,58.16339439997682,57.16191650001565,58.16339439997682,down,1,0.6633684000116773,57.16191650001565,None,57.16191650001565,None,57.16191650001565,57.66249960003188,57.16191650001565,57.66249960003188,57.16191650001565,57.66249960003188,57.16191650001565,57.66249960003188,57.16191650001565,None,,,,,,,,,,,,,,,,,,,,,,,,,,,,,,,,,,,,,,,,,,12014,001,2024_Jun_20_1918,nback,2021.2.3,60.21890778600022,
0-back,instructions\back-0.png,conditions\0back-p.xlsx,instructions\0-BACK.png,"(15, 8)",practice,0,1,stim\yellow.png,stim\gray.png,stim\gray.png,stim\gray.png,up,0,0,0,0,0,0,0,0,0,10,10,10,,,,,,,,,,,,,,,,,,,,,,,,,,,58.66422209999291,59.665618300030474,58.66422209999291,59.665618300030474,58.66422209999291,59.665618300030474,58.66422209999291,59.665618300030474,up,1,0.5450387999881059,58.66422209999291,None,58.66422209999291,None,58.66422209999291,59.16495800000848,58.66422209999291,59.16495800000848,58.66422209999291,59.16495800000848,58.66422209999291,59.16495800000848,58.66422209999291,None,,,,,,,,,,,,,,,,,,,,,,,,,,,,,,,,,,,,,,,,,,12014,001,2024_Jun_20_1918,nback,2021.2.3,60.21890778600022,
0-back,instructions\back-0.png,conditions\0back-p.xlsx,instructions\0-BACK.png,"(15, 8)",practice,0,2,stim\gray.png,stim\yellow.png,stim\gray.png,stim\gray.png,left,0,0,0,0,0,0,0,0,0,11,11,11,,,,,,,,,,,,,,,,,,,,,,,,,,,60.16636460000882,61.16812300001038,60.16636460000882,61.16812300001038,60.16636460000882,61.16812300001038,60.16636460000882,61.16812300001038,left,1,0.32286940002813935,60.16636460000882,None,60.16636460000882,None,60.16636460000882,60.66702019999502,60.16636460000882,60.66702019999502,60.16636460000882,60.66702019999502,60.16636460000882,60.66702019999502,60.16636460000882,None,,,,,,,,,,,,,,,,,,,,,,,,,,,,,,,,,,,,,,,,,,12014,001,2024_Jun_20_1918,nback,2021.2.3,60.21890778600022,
0-back,instructions\back-0.png,conditions\0back-p.xlsx,instructions\0-BACK.png,"(15, 8)",practice,0,4,stim\gray.png,stim\gray.png,stim\gray.png,stim\yellow.png,down,0,0,0,0,0,0,0,0,0,12,12,12,,,,,,,,,,,,,,,,,,,,,,,,,,,61.668470999982674,62.670484700007364,61.668470999982674,62.670484700007364,61.668470999982674,62.670484700007364,61.668470999982674,62.670484700007364,down,1,0.3328869999968447,61.668470999982674,None,61.668470999982674,None,61.668470999982674,62.16950259997975,61.668470999982674,62.16950259997975,61.668470999982674,62.16950259997975,61.668470999982674,62.16950259997975,61.668470999982674,None,,,,,,,,,,,,,,,,,,,,,,,,,,,,,,,,,,,,,,,,,,12014,001,2024_Jun_20_1918,nback,2021.2.3,60.21890778600022,
0-back,instructions\back-0.png,conditions\0back-p.xlsx,instructions\0-BACK.png,"(15, 8)",practice,0,3,stim\gray.png,stim\gray.png,stim\yellow.png,stim\gray.png,right,0,0,0,0,0,0,0,0,0,13,13,13,,,,,,,,,,,,,,,,,,,,,,,,,,,63.17092250002315,64.17235419998178,63.17092250002315,64.17235419998178,63.17092250002315,64.17235419998178,63.17092250002315,64.17235419998178,right,1,0.27842069999314845,63.17092250002315,None,63.17092250002315,None,63.17092250002315,63.671553699998185,63.17092250002315,63.671553699998185,63.17092250002315,63.671553699998185,63.17092250002315,63.671553699998185,63.17092250002315,None,,,,,,,,,,,,,,,,,,,,,,,,,,,,,,,,,,,,,,,,,,12014,001,2024_Jun_20_1918,nback,2021.2.3,60.21890778600022,
0-back,instructions\back-0.png,conditions\0back-p.xlsx,instructions\0-BACK.png,"(15, 8)",practice,0,1,stim\yellow.png,stim\gray.png,stim\gray.png,stim\gray.png,up,0,0,0,0,0,0,0,0,0,14,14,14,,,,,,,,,,,,,,,,,,,,,,,,,,,64.65639820002252,65.65794110001298,64.65639820002252,65.65794110001298,64.65639820002252,65.65794110001298,64.65639820002252,65.65794110001298,up,1,0.368885500007309,64.65639820002252,None,64.65639820002252,None,64.65639820002252,65.15832570003113,64.65639820002252,65.15832570003113,64.65639820002252,65.15832570003113,64.65639820002252,65.15832570003113,64.65639820002252,None,,,,,,,,,,,,,,,,,,,,,,,,,,,,,,,,,,,,,,,,,,12014,001,2024_Jun_20_1918,nback,2021.2.3,60.21890778600022,
0-back,instructions\back-0.png,conditions\0back-p.xlsx,instructions\0-BACK.png,"(15, 8)",practice,0,2,stim\gray.png,stim\yellow.png,stim\gray.png,stim\gray.png,left,0,0,0,0,0,0,0,0,0,15,15,15,,,,,,,,,,,,,,,,,,,,,,,,,,,66.15864959999453,67.15999810001813,66.15864959999453,67.15999810001813,66.15864959999453,67.15999810001813,66.15864959999453,67.15999810001813,left,1,0.32259389996761456,66.15864959999453,None,66.15864959999453,None,66.15864959999453,66.65954339999007,66.15864959999453,66.65954339999007,66.15864959999453,66.65954339999007,66.15864959999453,66.65954339999007,66.15864959999453,None,,,,,,,,,,,,,,,,,,,,,,,,,,,,,,,,,,,,,,,,,,12014,001,2024_Jun_20_1918,nback,2021.2.3,60.21890778600022,
0-back,instructions\back-0.png,conditions\0back-p.xlsx,instructions\0-BACK.png,"(15, 8)",practice,0,3,stim\gray.png,stim\gray.png,stim\yellow.png,stim\gray.png,right,0,0,0,0,0,0,0,0,0,16,16,16,,,,,,,,,,,,,,,,,,,,,,,,,,,67.66098719998263,68.6624959000037,67.66098719998263,68.6624959000037,67.66098719998263,68.6624959000037,67.66098719998263,68.6624959000037,right,1,0.37234279996482655,67.66098719998263,None,67.66098719998263,None,67.66098719998263,68.16188079997664,67.66098719998263,68.16188079997664,67.66098719998263,68.16188079997664,67.66098719998263,68.16188079997664,67.66098719998263,None,,,,,,,,,,,,,,,,,,,,,,,,,,,,,,,,,,,,,,,,,,12014,001,2024_Jun_20_1918,nback,2021.2.3,60.21890778600022,
0-back,instructions\back-0.png,conditions\0back-p.xlsx,instructions\0-BACK.png,"(15, 8)",practice,0,1,stim\yellow.png,stim\gray.png,stim\gray.png,stim\gray.png,up,0,0,0,0,0,0,0,0,0,17,17,17,,,,,,,,,,,,,,,,,,,,,,,,,,,69.16332619998138,70.16473730001599,69.16332619998138,70.16473730001599,69.16332619998138,70.16473730001599,69.16332619998138,70.16473730001599,up,1,0.3989375999663025,69.16332619998138,None,69.16332619998138,None,69.16332619998138,69.66404860001057,69.16332619998138,69.66404860001057,69.16332619998138,69.66404860001057,69.16332619998138,69.66404860001057,69.16332619998138,None,,,,,,,,,,,,,,,,,,,,,,,,,,,,,,,,,,,,,,,,,,12014,001,2024_Jun_20_1918,nback,2021.2.3,60.21890778600022,
0-back,instructions\back-0.png,conditions\0back-p.xlsx,instructions\0-BACK.png,"(15, 8)",practice,0,4,stim\gray.png,stim\gray.png,stim\gray.png,stim\yellow.png,down,0,0,0,0,0,0,0,0,0,18,18,18,,,,,,,,,,,,,,,,,,,,,,,,,,,70.66542740003206,71.66694710002048,70.66542740003206,71.66694710002048,70.66542740003206,71.66694710002048,70.66542740003206,71.66694710002048,down,1,0.5120349999633618,70.66542740003206,None,70.66542740003206,None,70.66542740003206,71.16641090001212,70.66542740003206,71.16641090001212,70.66542740003206,71.16641090001212,70.66542740003206,71.16641090001212,70.66542740003206,None,,,,,,,,,,,,,,,,,,,,,,,,,,,,,,,,,,,,,,,,,,12014,001,2024_Jun_20_1918,nback,2021.2.3,60.21890778600022,
0-back,instructions\back-0.png,conditions\0back-p.xlsx,instructions\0-BACK.png,"(15, 8)",practice,0,2,stim\gray.png,stim\yellow.png,stim\gray.png,stim\gray.png,left,0,0,0,0,0,0,0,0,0,19,19,19,,,,,,,,,,,,,,,,,,,,,,,,,,,72.1680116999778,73.16937489999691,72.1680116999778,73.16937489999691,72.1680116999778,73.16937489999691,72.1680116999778,73.16937489999691,left,1,0.40945360000478104,72.1680116999778,None,72.1680116999778,None,72.1680116999778,72.66841209999984,72.1680116999778,72.66841209999984,72.1680116999778,72.66841209999984,72.1680116999778,72.66841209999984,72.1680116999778,None,,,,,,,,,,,,,,,,,,,,,,,,,,,,,,,,,,,,,,,,,,12014,001,2024_Jun_20_1918,nback,2021.2.3,60.21890778600022,
0-back,instructions\back-0.png,conditions\0back-p.xlsx,instructions\0-BACK.png,"(15, 8)",,,,,,,,,0,0,0,0,0,0,0,0,,,,,,,,,,,,,,,,,,,,,,,,,,,,,,,,,,,,,,,,,,,,,,,,,,,,,,,,,,,,,,,,,,,,,,,,,,,,,,,,,,,,,,,,,,,,,,,,,12014,001,2024_Jun_20_1918,nback,2021.2.3,60.21890778600022,
1-back,instructions\back-1.png,conditions\1back-p.xlsx,instructions\1-BACK.png,"(25, 15)",practice,1,1,stim\yellow.png,stim\gray.png,stim\gray.png,stim\gray.png,None,0,0,0,0,0,1,1,1,0,0,0,0,,,,,,,,,,,,,,,,,73.85356379998848,None,space,7.3033828000188805,73.85356379998848,None,81.36462880001636,85.8717918000184,85.83849350002129,None,86.20668340002885,87.20705379999708,86.20668340002885,87.20705379999708,86.20668340002885,87.20705379999708,86.20668340002885,87.20705379999708,None,1,,86.20668340002885,None,86.20668340002885,None,86.20668340002885,86.70641079999041,86.20668340002885,86.70641079999041,86.20668340002885,86.70641079999041,86.20668340002885,86.70641079999041,86.20668340002885,None,,,,,,,,,,,,,,,,,,,,,,,,,,,,,,,,,,,,,,,,,,12014,001,2024_Jun_20_1918,nback,2021.2.3,60.21890778600022,
1-back,instructions\back-1.png,conditions\1back-p.xlsx,instructions\1-BACK.png,"(25, 15)",practice,1,2,stim\gray.png,stim\yellow.png,stim\gray.png,stim\gray.png,up,0,0,0,0,0,1,1,1,0,1,1,1,,,,,,,,,,,,,,,,,,,,,,,,,,,87.69129019998945,88.69295830000192,87.69129019998945,88.69295830000192,87.69129019998945,88.69295830000192,87.69129019998945,88.69295830000192,up,1,0.6146269000018947,87.69129019998945,None,87.69129019998945,None,87.69129019998945,88.19191920000594,87.69129019998945,88.19191920000594,87.69129019998945,88.19191920000594,87.69129019998945,88.19191920000594,87.69129019998945,None,,,,,,,,,,,,,,,,,,,,,,,,,,,,,,,,,,,,,,,,,,12014,001,2024_Jun_20_1918,nback,2021.2.3,60.21890778600022,
1-back,instructions\back-1.png,conditions\1back-p.xlsx,instructions\1-BACK.png,"(25, 15)",practice,1,3,stim\gray.png,stim\gray.png,stim\yellow.png,stim\gray.png,left,0,0,0,0,0,1,1,1,0,2,2,2,,,,,,,,,,,,,,,,,,,,,,,,,,,89.19342139997752,90.19595949997893,89.19342139997752,90.19595949997893,89.19342139997752,90.19595949997893,89.19342139997752,90.19595949997893,left,1,0.697111000015866,89.19342139997752,None,89.19342139997752,None,89.19342139997752,89.69430490001105,89.19342139997752,89.69430490001105,89.19342139997752,89.69430490001105,89.19342139997752,89.69430490001105,89.19342139997752,None,,,,,,,,,,,,,,,,,,,,,,,,,,,,,,,,,,,,,,,,,,12014,001,2024_Jun_20_1918,nback,2021.2.3,60.21890778600022,
1-back,instructions\back-1.png,conditions\1back-p.xlsx,instructions\1-BACK.png,"(25, 15)",practice,1,4,stim\gray.png,stim\gray.png,stim\gray.png,stim\yellow.png,right,0,0,0,0,0,1,1,1,0,3,3,3,,,,,,,,,,,,,,,,,,,,,,,,,,,90.69562200002838,91.69730930001242,90.69562200002838,91.69730930001242,90.69562200002838,91.69730930001242,90.69562200002838,91.69730930001242,right,1,0.4183136999490671,90.69562200002838,None,90.69562200002838,None,90.69562200002838,91.1964332999778,90.69562200002838,91.1964332999778,90.69562200002838,91.1964332999778,90.69562200002838,91.1964332999778,90.69562200002838,None,,,,,,,,,,,,,,,,,,,,,,,,,,,,,,,,,,,,,,,,,,12014,001,2024_Jun_20_1918,nback,2021.2.3,60.21890778600022,
1-back,instructions\back-1.png,conditions\1back-p.xlsx,instructions\1-BACK.png,"(25, 15)",practice,1,2,stim\gray.png,stim\yellow.png,stim\gray.png,stim\gray.png,down,0,0,0,0,0,1,1,1,0,4,4,4,,,,,,,,,,,,,,,,,,,,,,,,,,,92.19809359998908,93.19951220002258,92.19809359998908,93.19951220002258,92.19809359998908,93.19951220002258,92.19809359998908,93.19951220002258,down,1,0.980350699974224,92.19809359998908,None,92.19809359998908,None,92.19809359998908,92.69915429997491,92.19809359998908,92.69915429997491,92.19809359998908,92.69915429997491,92.19809359998908,92.69915429997491,92.19809359998908,None,,,,,,,,,,,,,,,,,,,,,,,,,,,,,,,,,,,,,,,,,,12014,001,2024_Jun_20_1918,nback,2021.2.3,60.21890778600022,
1-back,instructions\back-1.png,conditions\1back-p.xlsx,instructions\1-BACK.png,"(25, 15)",practice,1,1,stim\yellow.png,stim\gray.png,stim\gray.png,stim\gray.png,left,0,0,0,0,0,1,1,1,0,5,5,5,,,,,,,,,,,,,,,,,,,,,,,,,,,93.70024470001226,94.70271139999386,93.70024470001226,94.70271139999386,93.70024470001226,94.70271139999386,93.70024470001226,94.70271139999386,left,1,0.798230699962005,93.70024470001226,None,93.70024470001226,None,93.70024470001226,94.20124879997456,93.70024470001226,94.20124879997456,93.70024470001226,94.20124879997456,93.70024470001226,94.20124879997456,93.70024470001226,None,,,,,,,,,,,,,,,,,,,,,,,,,,,,,,,,,,,,,,,,,,12014,001,2024_Jun_20_1918,nback,2021.2.3,60.21890778600022,
1-back,instructions\back-1.png,conditions\1back-p.xlsx,instructions\1-BACK.png,"(25, 15)",practice,1,4,stim\gray.png,stim\gray.png,stim\gray.png,stim\yellow.png,up,0,0,0,0,0,1,1,1,0,6,6,6,,,,,,,,,,,,,,,,,,,,,,,,,,,95.1858734000125,96.18742209998891,95.1858734000125,96.18742209998891,95.1858734000125,96.18742209998891,95.1858734000125,96.18742209998891,up,1,0.8724601999856532,95.1858734000125,None,95.1858734000125,None,95.1858734000125,95.68660110002384,95.1858734000125,95.68660110002384,95.1858734000125,95.68660110002384,95.1858734000125,95.68660110002384,95.1858734000125,None,,,,,,,,,,,,,,,,,,,,,,,,,,,,,,,,,,,,,,,,,,12014,001,2024_Jun_20_1918,nback,2021.2.3,60.21890778600022,
1-back,instructions\back-1.png,conditions\1back-p.xlsx,instructions\1-BACK.png,"(25, 15)",practice,1,3,stim\gray.png,stim\gray.png,stim\yellow.png,stim\gray.png,down,0,0,0,0,0,1,1,1,0,7,7,7,,,,,,,,,,,,,,,,,,,,,,,,,,,96.68803860002663,97.69002290000208,96.68803860002663,97.69002290000208,96.68803860002663,97.69002290000208,96.68803860002663,97.69002290000208,up,0,1.4660898000001907,96.68803860002663,None,96.68803860002663,None,96.68803860002663,97.18929760000901,96.68803860002663,97.18929760000901,96.68803860002663,97.18929760000901,96.68803860002663,97.18929760000901,96.68803860002663,None,,,,,,,,,,,,,,,,,,,,,,,,,,,,,,,,,,,,,,,,,,12014,001,2024_Jun_20_1918,nback,2021.2.3,60.21890778600022,
1-back,instructions\back-1.png,conditions\1back-p.xlsx,instructions\1-BACK.png,"(25, 15)",practice,1,3,stim\gray.png,stim\gray.png,stim\yellow.png,stim\gray.png,right,0,0,0,0,0,1,1,1,0,8,8,8,,,,,,,,,,,,,,,,,,,,,,,,,,,98.19024660001742,99.19188140000915,98.19024660001742,99.19188140000915,98.19024660001742,99.19188140000915,98.19024660001742,99.19188140000915,left,0,0.8997853999608196,98.19024660001742,None,98.19024660001742,None,98.19024660001742,98.69118780002464,98.19024660001742,98.69118780002464,98.19024660001742,98.69118780002464,98.19024660001742,98.69118780002464,98.19024660001742,None,,,,,,,,,,,,,,,,,,,,,,,,,,,,,,,,,,,,,,,,,,12014,001,2024_Jun_20_1918,nback,2021.2.3,60.21890778600022,
1-back,instructions\back-1.png,conditions\1back-p.xlsx,instructions\1-BACK.png,"(25, 15)",practice,1,4,stim\gray.png,stim\gray.png,stim\gray.png,stim\yellow.png,right,0,0,0,0,0,1,1,1,0,9,9,9,,,,,,,,,,,,,,,,,,,,,,,,,,,99.69290179997915,100.69424470001832,99.69290179997915,100.69424470001832,99.69290179997915,100.69424470001832,99.69290179997915,100.69424470001832,right,1,1.245091000047978,99.69290179997915,None,99.69290179997915,None,99.69290179997915,100.19325319997733,99.69290179997915,100.19325319997733,99.69290179997915,100.19325319997733,99.69290179997915,100.19325319997733,99.69290179997915,None,,,,,,,,,,,,,,,,,,,,,,,,,,,,,,,,,,,,,,,,,,12014,001,2024_Jun_20_1918,nback,2021.2.3,60.21890778600022,
1-back,instructions\back-1.png,conditions\1back-p.xlsx,instructions\1-BACK.png,"(25, 15)",practice,1,1,stim\yellow.png,stim\gray.png,stim\gray.png,stim\gray.png,down,0,0,0,0,0,1,1,1,0,10,10,10,,,,,,,,,,,,,,,,,,,,,,,,,,,101.19472089997726,102.19674450001912,101.19472089997726,102.19674450001912,101.19472089997726,102.19674450001912,101.19472089997726,102.19674450001912,down,1,0.9913135000388138,101.19472089997726,None,101.19472089997726,None,101.19472089997726,101.69608000002336,101.19472089997726,101.69608000002336,101.19472089997726,101.69608000002336,101.19472089997726,101.69608000002336,101.19472089997726,None,,,,,,,,,,,,,,,,,,,,,,,,,,,,,,,,,,,,,,,,,,12014,001,2024_Jun_20_1918,nback,2021.2.3,60.21890778600022,
1-back,instructions\back-1.png,conditions\1back-p.xlsx,instructions\1-BACK.png,"(25, 15)",practice,1,2,stim\gray.png,stim\yellow.png,stim\gray.png,stim\gray.png,up,0,0,0,0,0,1,1,1,0,11,11,11,,,,,,,,,,,,,,,,,,,,,,,,,,,102.69718170003034,103.69863559998339,102.69718170003034,103.69863559998339,102.69718170003034,103.69863559998339,102.69718170003034,103.69863559998339,up,1,0.8979449999751523,102.69718170003034,None,102.69718170003034,None,102.69718170003034,103.19919539999682,102.69718170003034,103.19919539999682,102.69718170003034,103.19919539999682,102.69718170003034,103.19919539999682,102.69718170003034,None,,,,,,,,,,,,,,,,,,,,,,,,,,,,,,,,,,,,,,,,,,12014,001,2024_Jun_20_1918,nback,2021.2.3,60.21890778600022,
1-back,instructions\back-1.png,conditions\1back-p.xlsx,instructions\1-BACK.png,"(25, 15)",practice,1,4,stim\gray.png,stim\gray.png,stim\gray.png,stim\yellow.png,left,0,0,0,0,0,1,1,1,0,12,12,12,,,,,,,,,,,,,,,,,,,,,,,,,,,104.19952319998993,105.20134760002838,104.19952319998993,105.20134760002838,104.19952319998993,105.20134760002838,104.19952319998993,105.20134760002838,left,1,0.5712252999655902,104.19952319998993,None,104.19952319998993,None,104.19952319998993,104.70018699998036,104.19952319998993,104.70018699998036,104.19952319998993,104.70018699998036,104.19952319998993,104.70018699998036,104.19952319998993,None,,,,,,,,,,,,,,,,,,,,,,,,,,,,,,,,,,,,,,,,,,12014,001,2024_Jun_20_1918,nback,2021.2.3,60.21890778600022,
1-back,instructions\back-1.png,conditions\1back-p.xlsx,instructions\1-BACK.png,"(25, 15)",practice,1,3,stim\gray.png,stim\gray.png,stim\yellow.png,stim\gray.png,down,0,0,0,0,0,1,1,1,0,13,13,13,,,,,,,,,,,,,,,,,,,,,,,,,,,105.7016178999911,106.70368299999973,105.7016178999911,106.70368299999973,105.7016178999911,106.70368299999973,105.7016178999911,106.70368299999973,down,1,0.7727575999451801,105.7016178999911,None,105.7016178999911,None,105.7016178999911,106.20264670002507,105.7016178999911,106.20264670002507,105.7016178999911,106.20264670002507,105.7016178999911,106.20264670002507,105.7016178999911,None,,,,,,,,,,,,,,,,,,,,,,,,,,,,,,,,,,,,,,,,,,12014,001,2024_Jun_20_1918,nback,2021.2.3,60.21890778600022,
1-back,instructions\back-1.png,conditions\1back-p.xlsx,instructions\1-BACK.png,"(25, 15)",practice,1,1,stim\yellow.png,stim\gray.png,stim\gray.png,stim\gray.png,right,0,0,0,0,0,1,1,1,0,14,14,14,,,,,,,,,,,,,,,,,,,,,,,,,,,107.1872065999778,108.18898540001828,107.1872065999778,108.18898540001828,107.1872065999778,108.18898540001828,107.1872065999778,108.18898540001828,right,1,0.8074616999947466,107.1872065999778,None,107.1872065999778,None,107.1872065999778,107.68842040002346,107.1872065999778,107.68842040002346,107.1872065999778,107.68842040002346,107.1872065999778,107.68842040002346,107.1872065999778,None,,,,,,,,,,,,,,,,,,,,,,,,,,,,,,,,,,,,,,,,,,12014,001,2024_Jun_20_1918,nback,2021.2.3,60.21890778600022,
1-back,instructions\back-1.png,conditions\1back-p.xlsx,instructions\1-BACK.png,"(25, 15)",practice,1,2,stim\gray.png,stim\yellow.png,stim\gray.png,stim\gray.png,up,0,0,0,0,0,1,1,1,0,15,15,15,,,,,,,,,,,,,,,,,,,,,,,,,,,108.6893697999767,109.6910460999934,108.6893697999767,109.6910460999934,108.6893697999767,109.6910460999934,108.6893697999767,109.6910460999934,up,1,0.9368317000335082,108.6893697999767,None,108.6893697999767,None,108.6893697999767,109.19015370000852,108.6893697999767,109.19015370000852,108.6893697999767,109.19015370000852,108.6893697999767,109.19015370000852,108.6893697999767,None,,,,,,,,,,,,,,,,,,,,,,,,,,,,,,,,,,,,,,,,,,12014,001,2024_Jun_20_1918,nback,2021.2.3,60.21890778600022,
1-back,instructions\back-1.png,conditions\1back-p.xlsx,instructions\1-BACK.png,"(25, 15)",practice,1,3,stim\gray.png,stim\gray.png,stim\yellow.png,stim\gray.png,left,0,0,0,0,0,1,1,1,0,16,16,16,,,,,,,,,,,,,,,,,,,,,,,,,,,110.19187390001025,111.19352149998304,110.19187390001025,111.19352149998304,110.19187390001025,111.19352149998304,110.19187390001025,111.19352149998304,left,1,0.9545101000112481,110.19187390001025,None,110.19187390001025,None,110.19187390001025,110.69245560001582,110.19187390001025,110.69245560001582,110.19187390001025,110.69245560001582,110.19187390001025,110.69245560001582,110.19187390001025,None,,,,,,,,,,,,,,,,,,,,,,,,,,,,,,,,,,,,,,,,,,12014,001,2024_Jun_20_1918,nback,2021.2.3,60.21890778600022,
1-back,instructions\back-1.png,conditions\1back-p.xlsx,instructions\1-BACK.png,"(25, 15)",practice,1,1,stim\yellow.png,stim\gray.png,stim\gray.png,stim\gray.png,right,0,0,0,0,0,1,1,1,0,17,17,17,,,,,,,,,,,,,,,,,,,,,,,,,,,111.69412900001043,112.69566249998752,111.69412900001043,112.69566249998752,111.69412900001043,112.69566249998752,111.69412900001043,112.69566249998752,right,1,0.9007172000128776,111.69412900001043,None,111.69412900001043,None,111.69412900001043,112.19481220003217,111.69412900001043,112.19481220003217,111.69412900001043,112.19481220003217,111.69412900001043,112.19481220003217,111.69412900001043,None,,,,,,,,,,,,,,,,,,,,,,,,,,,,,,,,,,,,,,,,,,12014,001,2024_Jun_20_1918,nback,2021.2.3,60.21890778600022,
1-back,instructions\back-1.png,conditions\1back-p.xlsx,instructions\1-BACK.png,"(25, 15)",practice,1,4,stim\gray.png,stim\gray.png,stim\gray.png,stim\yellow.png,up,0,0,0,0,0,1,1,1,0,18,18,18,,,,,,,,,,,,,,,,,,,,,,,,,,,113.1961037000292,114.19785370002501,113.1961037000292,114.19785370002501,113.1961037000292,114.19785370002501,113.1961037000292,114.19785370002501,up,1,0.9983343000058085,113.1961037000292,None,113.1961037000292,None,113.1961037000292,113.69756529998267,113.1961037000292,113.69756529998267,113.1961037000292,113.69756529998267,113.1961037000292,113.69756529998267,113.1961037000292,None,,,,,,,,,,,,,,,,,,,,,,,,,,,,,,,,,,,,,,,,,,12014,001,2024_Jun_20_1918,nback,2021.2.3,60.21890778600022,
1-back,instructions\back-1.png,conditions\1back-p.xlsx,instructions\1-BACK.png,"(25, 15)",practice,1,2,stim\gray.png,stim\yellow.png,stim\gray.png,stim\gray.png,down,0,0,0,0,0,1,1,1,0,19,19,19,,,,,,,,,,,,,,,,,,,,,,,,,,,114.6983590000309,115.7007164999959,114.6983590000309,115.7007164999959,114.6983590000309,115.7007164999959,114.6983590000309,115.7007164999959,down,1,1.056111800018698,114.6983590000309,None,114.6983590000309,None,114.6983590000309,115.19941400003154,114.6983590000309,115.19941400003154,114.6983590000309,115.19941400003154,114.6983590000309,115.19941400003154,114.6983590000309,None,,,,,,,,,,,,,,,,,,,,,,,,,,,,,,,,,,,,,,,,,,12014,001,2024_Jun_20_1918,nback,2021.2.3,60.21890778600022,
1-back,instructions\back-1.png,conditions\1back-p.xlsx,instructions\1-BACK.png,"(25, 15)",,,,,,,,,0,0,0,0,0,1,1,1,,,,,,,,,,,,,,,,,,,,,,,,,,,,,,,,,,,,,,,,,,,,,,,,,,,,,,,,,,,,,,,,,,,,,,,,,,,,,,,,,,,,,,,,,,,,,,,,,12014,001,2024_Jun_20_1918,nback,2021.2.3,60.21890778600022,
2-back,instructions\back-2.png,conditions\2back-p.xlsx,instructions\2-BACK.png,"(25, 15)",practice,2,1,stim\yellow.png,stim\gray.png,stim\gray.png,stim\gray.png,None,0,0,0,0,0,2,2,2,0,0,0,0,,,,,,,,,,,,,,,,,116.38425270002335,None,space,27.274981199996546,116.38425270002335,None,143.89341289998265,148.40041549998568,148.31626350001898,None,148.70015530003002,149.70149780000793,148.70015530003002,149.70149780000793,148.70015530003002,149.70149780000793,148.70015530003002,149.70149780000793,None,1,,148.70015530003002,None,148.70015530003002,None,148.70015530003002,149.2005654000095,148.70015530003002,149.2005654000095,148.70015530003002,149.2005654000095,148.70015530003002,149.2005654000095,148.70015530003002,None,,,,,,,,,,,,,,,,,,,,,,,,,,,,,,,,,,,,,,,,,,12014,001,2024_Jun_20_1918,nback,2021.2.3,60.21890778600022,
2-back,instructions\back-2.png,conditions\2back-p.xlsx,instructions\2-BACK.png,"(25, 15)",practice,2,2,stim\gray.png,stim\yellow.png,stim\gray.png,stim\gray.png,None,0,0,0,0,0,2,2,2,0,1,1,1,,,,,,,,,,,,,,,,,,,,,,,,,,,150.18541759997606,151.1872704999987,150.18541759997606,151.1872704999987,150.18541759997606,151.1872704999987,150.18541759997606,151.1872704999987,down,0,0.778273900039494,150.18541759997606,None,150.18541759997606,None,150.18541759997606,150.686339900014,150.18541759997606,150.686339900014,150.18541759997606,150.686339900014,150.18541759997606,150.686339900014,150.18541759997606,None,,,,,,,,,,,,,,,,,,,,,,,,,,,,,,,,,,,,,,,,,,12014,001,2024_Jun_20_1918,nback,2021.2.3,60.21890778600022,
2-back,instructions\back-2.png,conditions\2back-p.xlsx,instructions\2-BACK.png,"(25, 15)",practice,2,3,stim\gray.png,stim\gray.png,stim\yellow.png,stim\gray.png,up,0,0,0,0,0,2,2,2,0,2,2,2,,,,,,,,,,,,,,,,,,,,,,,,,,,151.68771030002972,152.6893817000091,151.68771030002972,152.6893817000091,151.68771030002972,152.6893817000091,151.68771030002972,152.6893817000091,left,0,0.43595600000116974,151.68771030002972,None,151.68771030002972,None,151.68771030002972,152.18980799999554,151.68771030002972,152.18980799999554,151.68771030002972,152.18980799999554,151.68771030002972,152.18980799999554,151.68771030002972,None,,,,,,,,,,,,,,,,,,,,,,,,,,,,,,,,,,,,,,,,,,12014,001,2024_Jun_20_1918,nback,2021.2.3,60.21890778600022,
2-back,instructions\back-2.png,conditions\2back-p.xlsx,instructions\2-BACK.png,"(25, 15)",practice,2,4,stim\gray.png,stim\gray.png,stim\gray.png,stim\yellow.png,left,0,0,0,0,0,2,2,2,0,3,3,3,,,,,,,,,,,,,,,,,,,,,,,,,,,153.1900394000113,154.19131550000748,153.1900394000113,154.19131550000748,153.1900394000113,154.19131550000748,153.1900394000113,154.19131550000748,None,0,,153.1900394000113,None,153.1900394000113,None,153.1900394000113,153.69069150002906,153.1900394000113,153.69069150002906,153.1900394000113,153.69069150002906,153.1900394000113,153.69069150002906,153.1900394000113,None,,,,,,,,,,,,,,,,,,,,,,,,,,,,,,,,,,,,,,,,,,12014,001,2024_Jun_20_1918,nback,2021.2.3,60.21890778600022,
2-back,instructions\back-2.png,conditions\2back-p.xlsx,instructions\2-BACK.png,"(25, 15)",practice,2,2,stim\gray.png,stim\yellow.png,stim\gray.png,stim\gray.png,right,0,0,0,0,0,2,2,2,0,4,4,4,,,,,,,,,,,,,,,,,,,,,,,,,,,154.6918944999925,155.69456329999957,154.6918944999925,155.69456329999957,154.6918944999925,155.69456329999957,154.6918944999925,155.69456329999957,right,1,0.32001369999488816,154.6918944999925,None,154.6918944999925,None,154.6918944999925,155.19332459999714,154.6918944999925,155.19332459999714,154.6918944999925,155.19332459999714,154.6918944999925,155.19332459999714,154.6918944999925,None,,,,,,,,,,,,,,,,,,,,,,,,,,,,,,,,,,,,,,,,,,12014,001,2024_Jun_20_1918,nback,2021.2.3,60.21890778600022,
2-back,instructions\back-2.png,conditions\2back-p.xlsx,instructions\2-BACK.png,"(25, 15)",practice,2,1,stim\yellow.png,stim\gray.png,stim\gray.png,stim\gray.png,down,0,0,0,0,0,2,2,2,0,5,5,5,,,,,,,,,,,,,,,,,,,,,,,,,,,156.19468810001854,157.19724150002003,156.19468810001854,157.19724150002003,156.19468810001854,157.19724150002003,156.19468810001854,157.19724150002003,down,1,1.1453905000234954,156.19468810001854,None,156.19468810001854,None,156.19468810001854,156.6951839000103,156.19468810001854,156.6951839000103,156.19468810001854,156.6951839000103,156.19468810001854,156.6951839000103,156.19468810001854,None,,,,,,,,,,,,,,,,,,,,,,,,,,,,,,,,,,,,,,,,,,12014,001,2024_Jun_20_1918,nback,2021.2.3,60.21890778600022,
2-back,instructions\back-2.png,conditions\2back-p.xlsx,instructions\2-BACK.png,"(25, 15)",practice,2,4,stim\gray.png,stim\gray.png,stim\gray.png,stim\yellow.png,left,0,0,0,0,0,2,2,2,0,6,6,6,,,,,,,,,,,,,,,,,,,,,,,,,,,157.68002730002627,158.68197159998817,157.68002730002627,158.68197159998817,157.68002730002627,158.68197159998817,157.68002730002627,158.68197159998817,left,1,0.8117657999973744,157.68002730002627,None,157.68002730002627,None,157.68002730002627,158.18075920001138,157.68002730002627,158.18075920001138,157.68002730002627,158.18075920001138,157.68002730002627,158.18075920001138,157.68002730002627,None,,,,,,,,,,,,,,,,,,,,,,,,,,,,,,,,,,,,,,,,,,12014,001,2024_Jun_20_1918,nback,2021.2.3,60.21890778600022,
2-back,instructions\back-2.png,conditions\2back-p.xlsx,instructions\2-BACK.png,"(25, 15)",practice,2,3,stim\gray.png,stim\gray.png,stim\yellow.png,stim\gray.png,up,0,0,0,0,0,2,2,2,0,7,7,7,,,,,,,,,,,,,,,,,,,,,,,,,,,159.18234270001994,160.18373430002248,159.18234270001994,160.18373430002248,159.18234270001994,160.18373430002248,159.18234270001994,160.18373430002248,up,1,0.8062577999662608,159.18234270001994,None,159.18234270001994,None,159.18234270001994,159.68328400002792,159.18234270001994,159.68328400002792,159.18234270001994,159.68328400002792,159.18234270001994,159.68328400002792,159.18234270001994,None,,,,,,,,,,,,,,,,,,,,,,,,,,,,,,,,,,,,,,,,,,12014,001,2024_Jun_20_1918,nback,2021.2.3,60.21890778600022,
2-back,instructions\back-2.png,conditions\2back-p.xlsx,instructions\2-BACK.png,"(25, 15)",practice,2,3,stim\gray.png,stim\gray.png,stim\yellow.png,stim\gray.png,down,0,0,0,0,0,2,2,2,0,8,8,8,,,,,,,,,,,,,,,,,,,,,,,,,,,160.68588280002587,161.68628899997566,160.68588280002587,161.68628899997566,160.68588280002587,161.68628899997566,160.68588280002587,161.68628899997566,up,0,0.6857645999989472,160.68588280002587,None,160.68588280002587,None,160.68588280002587,161.1853900999995,160.68588280002587,161.1853900999995,160.68588280002587,161.1853900999995,160.68588280002587,161.1853900999995,160.68588280002587,None,,,,,,,,,,,,,,,,,,,,,,,,,,,,,,,,,,,,,,,,,,12014,001,2024_Jun_20_1918,nback,2021.2.3,60.21890778600022,
2-back,instructions\back-2.png,conditions\2back-p.xlsx,instructions\2-BACK.png,"(25, 15)",practice,2,4,stim\gray.png,stim\gray.png,stim\gray.png,stim\yellow.png,right,0,0,0,0,0,2,2,2,0,9,9,9,,,,,,,,,,,,,,,,,,,,,,,,,,,162.18675529997563,163.18845429999055,162.18675529997563,163.18845429999055,162.18675529997563,163.18845429999055,162.18675529997563,163.18845429999055,right,1,0.6972068999893963,162.18675529997563,None,162.18675529997563,None,162.18675529997563,162.6876718000276,162.18675529997563,162.6876718000276,162.18675529997563,162.6876718000276,162.18675529997563,162.6876718000276,162.18675529997563,None,,,,,,,,,,,,,,,,,,,,,,,,,,,,,,,,,,,,,,,,,,12014,001,2024_Jun_20_1918,nback,2021.2.3,60.21890778600022,
2-back,instructions\back-2.png,conditions\2back-p.xlsx,instructions\2-BACK.png,"(25, 15)",practice,2,1,stim\yellow.png,stim\gray.png,stim\gray.png,stim\gray.png,right,0,0,0,0,0,2,2,2,0,10,10,10,,,,,,,,,,,,,,,,,,,,,,,,,,,163.6893235000316,164.69171109999297,163.6893235000316,164.69171109999297,163.6893235000316,164.69171109999297,163.6893235000316,164.69171109999297,down,0,0.642676199960988,163.6893235000316,None,163.6893235000316,None,163.6893235000316,164.18967420002446,163.6893235000316,164.18967420002446,163.6893235000316,164.18967420002446,163.6893235000316,164.18967420002446,163.6893235000316,None,,,,,,,,,,,,,,,,,,,,,,,,,,,,,,,,,,,,,,,,,,12014,001,2024_Jun_20_1918,nback,2021.2.3,60.21890778600022,
2-back,instructions\back-2.png,conditions\2back-p.xlsx,instructions\2-BACK.png,"(25, 15)",practice,2,2,stim\gray.png,stim\yellow.png,stim\gray.png,stim\gray.png,down,0,0,0,0,0,2,2,2,0,11,11,11,,,,,,,,,,,,,,,,,,,,,,,,,,,165.19144680001773,166.19324789999519,165.19144680001773,166.19324789999519,165.19144680001773,166.19324789999519,165.19144680001773,166.19324789999519,None,0,,165.19144680001773,None,165.19144680001773,None,165.19144680001773,165.6921606999822,165.19144680001773,165.6921606999822,165.19144680001773,165.6921606999822,165.19144680001773,165.6921606999822,165.19144680001773,None,,,,,,,,,,,,,,,,,,,,,,,,,,,,,,,,,,,,,,,,,,12014,001,2024_Jun_20_1918,nback,2021.2.3,60.21890778600022,
2-back,instructions\back-2.png,conditions\2back-p.xlsx,instructions\2-BACK.png,"(25, 15)",practice,2,4,stim\gray.png,stim\gray.png,stim\gray.png,stim\yellow.png,up,0,0,0,0,0,2,2,2,0,12,12,12,,,,,,,,,,,,,,,,,,,,,,,,,,,166.6935893999762,167.69512280001072,166.6935893999762,167.69512280001072,166.6935893999762,167.69512280001072,166.6935893999762,167.69512280001072,up,1,0.37524230004055426,166.6935893999762,None,166.6935893999762,None,166.6935893999762,167.1943688999745,166.6935893999762,167.1943688999745,166.6935893999762,167.1943688999745,166.6935893999762,167.1943688999745,166.6935893999762,None,,,,,,,,,,,,,,,,,,,,,,,,,,,,,,,,,,,,,,,,,,12014,001,2024_Jun_20_1918,nback,2021.2.3,60.21890778600022,
2-back,instructions\back-2.png,conditions\2back-p.xlsx,instructions\2-BACK.png,"(25, 15)",practice,2,3,stim\gray.png,stim\gray.png,stim\yellow.png,stim\gray.png,left,0,0,0,0,0,2,2,2,0,13,13,13,,,,,,,,,,,,,,,,,,,,,,,,,,,168.19592420000117,169.1974658999825,168.19592420000117,169.1974658999825,168.19592420000117,169.1974658999825,168.19592420000117,169.1974658999825,left,1,0.3761868999572471,168.19592420000117,None,168.19592420000117,None,168.19592420000117,168.69696889998158,168.19592420000117,168.69696889998158,168.19592420000117,168.69696889998158,168.19592420000117,168.69696889998158,168.19592420000117,None,,,,,,,,,,,,,,,,,,,,,,,,,,,,,,,,,,,,,,,,,,12014,001,2024_Jun_20_1918,nback,2021.2.3,60.21890778600022,
2-back,instructions\back-2.png,conditions\2back-p.xlsx,instructions\2-BACK.png,"(25, 15)",practice,2,1,stim\yellow.png,stim\gray.png,stim\gray.png,stim\gray.png,down,0,0,0,0,0,2,2,2,0,14,14,14,,,,,,,,,,,,,,,,,,,,,,,,,,,169.68149350001477,170.68294289999176,169.68149350001477,170.68294289999176,169.68149350001477,170.68294289999176,169.68149350001477,170.68294289999176,down,1,0.5707076000398956,169.68149350001477,None,169.68149350001477,None,169.68149350001477,170.18239620001987,169.68149350001477,170.18239620001987,169.68149350001477,170.18239620001987,169.68149350001477,170.18239620001987,169.68149350001477,None,,,,,,,,,,,,,,,,,,,,,,,,,,,,,,,,,,,,,,,,,,12014,001,2024_Jun_20_1918,nback,2021.2.3,60.21890778600022,
2-back,instructions\back-2.png,conditions\2back-p.xlsx,instructions\2-BACK.png,"(25, 15)",practice,2,2,stim\gray.png,stim\yellow.png,stim\gray.png,stim\gray.png,right,0,0,0,0,0,2,2,2,0,15,15,15,,,,,,,,,,,,,,,,,,,,,,,,,,,171.1850962000317,172.18588489998365,171.1850962000317,172.18588489998365,171.1850962000317,172.18588489998365,171.1850962000317,172.18588489998365,left,0,0.5155935999937356,171.1850962000317,None,171.1850962000317,None,171.1850962000317,171.6852540000109,171.1850962000317,171.6852540000109,171.1850962000317,171.6852540000109,171.1850962000317,171.6852540000109,171.1850962000317,None,,,,,,,,,,,,,,,,,,,,,,,,,,,,,,,,,,,,,,,,,,12014,001,2024_Jun_20_1918,nback,2021.2.3,60.21890778600022,
2-back,instructions\back-2.png,conditions\2back-p.xlsx,instructions\2-BACK.png,"(25, 15)",practice,2,3,stim\gray.png,stim\gray.png,stim\yellow.png,stim\gray.png,up,0,0,0,0,0,2,2,2,0,16,16,16,,,,,,,,,,,,,,,,,,,,,,,,,,,172.6860421000165,173.68810500000836,172.6860421000165,173.68810500000836,172.6860421000165,173.68810500000836,172.6860421000165,173.68810500000836,up,1,0.998581700026989,172.6860421000165,None,172.6860421000165,None,172.6860421000165,173.1866650999873,172.6860421000165,173.1866650999873,172.6860421000165,173.1866650999873,172.6860421000165,173.1866650999873,172.6860421000165,None,,,,,,,,,,,,,,,,,,,,,,,,,,,,,,,,,,,,,,,,,,12014,001,2024_Jun_20_1918,nback,2021.2.3,60.21890778600022,
2-back,instructions\back-2.png,conditions\2back-p.xlsx,instructions\2-BACK.png,"(25, 15)",practice,2,1,stim\yellow.png,stim\gray.png,stim\gray.png,stim\gray.png,left,0,0,0,0,0,2,2,2,0,17,17,17,,,,,,,,,,,,,,,,,,,,,,,,,,,174.1885590000311,175.18990810000105,174.1885590000311,175.18990810000105,174.1885590000311,175.18990810000105,174.1885590000311,175.18990810000105,left,1,0.7598321000114083,174.1885590000311,None,174.1885590000311,None,174.1885590000311,174.69000790000428,174.1885590000311,174.69000790000428,174.1885590000311,174.69000790000428,174.1885590000311,174.69000790000428,174.1885590000311,None,,,,,,,,,,,,,,,,,,,,,,,,,,,,,,,,,,,,,,,,,,12014,001,2024_Jun_20_1918,nback,2021.2.3,60.21890778600022,
2-back,instructions\back-2.png,conditions\2back-p.xlsx,instructions\2-BACK.png,"(25, 15)",practice,2,4,stim\gray.png,stim\gray.png,stim\gray.png,stim\yellow.png,right,0,0,0,0,0,2,2,2,0,18,18,18,,,,,,,,,,,,,,,,,,,,,,,,,,,175.69063299999107,176.69295360002434,175.69063299999107,176.69295360002434,175.69063299999107,176.69295360002434,175.69063299999107,176.69295360002434,right,1,0.77017989999149,175.69063299999107,None,175.69063299999107,None,175.69063299999107,176.1914456000086,175.69063299999107,176.1914456000086,175.69063299999107,176.1914456000086,175.69063299999107,176.1914456000086,175.69063299999107,None,,,,,,,,,,,,,,,,,,,,,,,,,,,,,,,,,,,,,,,,,,12014,001,2024_Jun_20_1918,nback,2021.2.3,60.21890778600022,
2-back,instructions\back-2.png,conditions\2back-p.xlsx,instructions\2-BACK.png,"(25, 15)",practice,2,2,stim\gray.png,stim\yellow.png,stim\gray.png,stim\gray.png,up,0,0,0,0,0,2,2,2,0,19,19,19,,,,,,,,,,,,,,,,,,,,,,,,,,,177.19303810002748,178.19443939998746,177.19303810002748,178.19443939998746,177.19303810002748,178.19443939998746,177.19303810002748,178.19443939998746,up,1,0.6752842999994755,177.19303810002748,None,177.19303810002748,None,177.19303810002748,177.6935132999788,177.19303810002748,177.6935132999788,177.19303810002748,177.6935132999788,177.19303810002748,177.6935132999788,177.19303810002748,None,,,,,,,,,,,,,,,,,,,,,,,,,,,,,,,,,,,,,,,,,,12014,001,2024_Jun_20_1918,nback,2021.2.3,60.21890778600022,
2-back,instructions\back-2.png,conditions\2back-p.xlsx,instructions\2-BACK.png,"(25, 15)",,,,,,,,,0,0,0,0,0,2,2,2,,,,,,,,,,,,,,,,,,,,,,,,,,,,,,,,,,,,,,,,,,,,,,,,,,,,,,,,,,,,,,,,,,,,,,,,,,,,,,,,,,,,,,,,,,,,,,,,,12014,001,2024_Jun_20_1918,nback,2021.2.3,60.21890778600022,
,,,,,,,,,,,,,0,0,0,0,,,,,,,,,,,,,,,,,,,,,,,,,,,,,,,,,,,,,,,,,,,,,,,,,,,,,,,,,,,,178.69497730000876,None,space,32.30434689996764,178.69497730000876,None,,,,,,,,,,,,,,,,,,,,,,,,,,,,,,,,,,,,12014,001,2024_Jun_20_1918,nback,2021.2.3,60.21890778600022,
,,,,,,,,,,,,,,,,,,,,,,,,,,,,,,,,,,,,,,,,,,,,,,,,,,,,,,,,,,,,,,,,,,,,,,,,,,,,,,,,,,211.02727660001256,None,space,9.089036200020928,211.02727660001256,None,,,,,,,,,,,,,,,,,,,,,,,,,,,,,,12014,001,2024_Jun_20_1918,nback,2021.2.3,60.21890778600022,
0-back,instructions\back-0.png,conditions\00back-e.xlsx,,,experiment,0,3,stim\gray.png,stim\gray.png,stim\yellow.png,stim\gray.png,right,,,,,,,,,,,,,0,0,0,0,0,0,0,0,,,,,,,,,,,,,,,220.42459090001648,224.93224420002662,224.84793530002935,None,,,,,,,,,,,,,,,,,,,,,,,,,,,,,,,,,,,,,,right,1,0.4884652000037022,225.16526320000412,None,225.16526320000412,None,225.16526320000412,226.16669159999583,225.16526320000412,226.16669159999583,225.16526320000412,226.16669159999583,225.16526320000412,226.16669159999583,225.16526320000412,225.6659503999981,225.16526320000412,225.6659503999981,225.16526320000412,225.6659503999981,225.16526320000412,225.6659503999981,225.16526320000412,None,,,,,12014,001,2024_Jun_20_1918,nback,2021.2.3,60.21890778600022,
0-back,instructions\back-0.png,conditions\00back-e.xlsx,,,experiment,0,4,stim\gray.png,stim\gray.png,stim\gray.png,stim\yellow.png,down,,,,,,,,,,,,,0,0,0,0,0,1,1,1,,,,,,,,,,,,,,,,,,,,,,,,,,,,,,,,,,,,,,,,,,,,,,,,,,,,,,,,down,1,0.3313886999967508,226.650693100004,None,226.650693100004,None,226.650693100004,227.6523121999926,226.650693100004,227.6523121999926,226.650693100004,227.6523121999926,226.650693100004,227.6523121999926,226.650693100004,227.15253750002012,226.650693100004,227.15253750002012,226.650693100004,227.15253750002012,226.650693100004,227.15253750002012,226.650693100004,None,,,,,12014,001,2024_Jun_20_1918,nback,2021.2.3,60.21890778600022,
0-back,instructions\back-0.png,conditions\00back-e.xlsx,,,experiment,0,1,stim\yellow.png,stim\gray.png,stim\gray.png,stim\gray.png,up,,,,,,,,,,,,,0,0,0,0,0,2,2,2,,,,,,,,,,,,,,,,,,,,,,,,,,,,,,,,,,,,,,,,,,,,,,,,,,,,,,,,up,1,0.3888211000012234,228.15300150000257,None,228.15300150000257,None,228.15300150000257,229.15440719999606,228.15300150000257,229.15440719999606,228.15300150000257,229.15440719999606,228.15300150000257,229.15440719999606,228.15300150000257,228.65386650001165,228.15300150000257,228.65386650001165,228.15300150000257,228.65386650001165,228.15300150000257,228.65386650001165,228.15300150000257,None,,,,,12014,001,2024_Jun_20_1918,nback,2021.2.3,60.21890778600022,
0-back,instructions\back-0.png,conditions\00back-e.xlsx,,,experiment,0,2,stim\gray.png,stim\yellow.png,stim\gray.png,stim\gray.png,left,,,,,,,,,,,,,0,0,0,0,0,3,3,3,,,,,,,,,,,,,,,,,,,,,,,,,,,,,,,,,,,,,,,,,,,,,,,,,,,,,,,,left,1,0.2794685999979265,229.65506720001576,None,229.65506720001576,None,229.65506720001576,230.65696130000288,229.65506720001576,230.65696130000288,229.65506720001576,230.65696130000288,229.65506720001576,230.65696130000288,229.65506720001576,230.15599380002823,229.65506720001576,230.15599380002823,229.65506720001576,230.15599380002823,229.65506720001576,230.15599380002823,229.65506720001576,None,,,,,12014,001,2024_Jun_20_1918,nback,2021.2.3,60.21890778600022,
0-back,instructions\back-0.png,conditions\00back-e.xlsx,,,experiment,0,2,stim\gray.png,stim\yellow.png,stim\gray.png,stim\gray.png,left,,,,,,,,,,,,,0,0,0,0,0,4,4,4,,,,,,,,,,,,,,,,,,,,,,,,,,,,,,,,,,,,,,,,,,,,,,,,,,,,,,,,left,1,0.43261050002183765,231.15749790001428,None,231.15749790001428,None,231.15749790001428,232.15917679999257,231.15749790001428,232.15917679999257,231.15749790001428,232.15917679999257,231.15749790001428,232.15917679999257,231.15749790001428,231.65837479999755,231.15749790001428,231.65837479999755,231.15749790001428,231.65837479999755,231.15749790001428,231.65837479999755,231.15749790001428,None,,,,,12014,001,2024_Jun_20_1918,nback,2021.2.3,60.21890778600022,
0-back,instructions\back-0.png,conditions\00back-e.xlsx,,,experiment,0,1,stim\yellow.png,stim\gray.png,stim\gray.png,stim\gray.png,up,,,,,,,,,,,,,0,0,0,0,0,5,5,5,,,,,,,,,,,,,,,,,,,,,,,,,,,,,,,,,,,,,,,,,,,,,,,,,,,,,,,,up,1,0.44954879995202646,232.6605089000077,None,232.6605089000077,None,232.6605089000077,233.66140610002913,232.6605089000077,233.66140610002913,232.6605089000077,233.66140610002913,232.6605089000077,233.66140610002913,232.6605089000077,233.1604737000307,232.6605089000077,233.1604737000307,232.6605089000077,233.1604737000307,232.6605089000077,233.1604737000307,232.6605089000077,None,,,,,12014,001,2024_Jun_20_1918,nback,2021.2.3,60.21890778600022,
0-back,instructions\back-0.png,conditions\00back-e.xlsx,,,experiment,0,4,stim\gray.png,stim\gray.png,stim\gray.png,stim\yellow.png,down,,,,,,,,,,,,,0,0,0,0,0,6,6,6,,,,,,,,,,,,,,,,,,,,,,,,,,,,,,,,,,,,,,,,,,,,,,,,,,,,,,,,down,1,0.3648852999904193,234.1453812000109,None,234.1453812000109,None,234.1453812000109,235.14810589997796,234.1453812000109,235.14810589997796,234.1453812000109,235.14810589997796,234.1453812000109,235.14810589997796,234.1453812000109,234.64604050002526,234.1453812000109,234.64604050002526,234.1453812000109,234.64604050002526,234.1453812000109,234.64604050002526,234.1453812000109,None,,,,,12014,001,2024_Jun_20_1918,nback,2021.2.3,60.21890778600022,
0-back,instructions\back-0.png,conditions\00back-e.xlsx,,,experiment,0,3,stim\gray.png,stim\gray.png,stim\yellow.png,stim\gray.png,right,,,,,,,,,,,,,0,0,0,0,0,7,7,7,,,,,,,,,,,,,,,,,,,,,,,,,,,,,,,,,,,,,,,,,,,,,,,,,,,,,,,,right,1,0.37421299994457513,235.64770149998367,None,235.64770149998367,None,235.64770149998367,236.64925259997835,235.64770149998367,236.64925259997835,235.64770149998367,236.64925259997835,235.64770149998367,236.64925259997835,235.64770149998367,236.14841949997935,235.64770149998367,236.14841949997935,235.64770149998367,236.14841949997935,235.64770149998367,236.14841949997935,235.64770149998367,None,,,,,12014,001,2024_Jun_20_1918,nback,2021.2.3,60.21890778600022,
0-back,instructions\back-0.png,conditions\00back-e.xlsx,,,experiment,0,4,stim\gray.png,stim\gray.png,stim\gray.png,stim\yellow.png,down,,,,,,,,,,,,,0,0,0,0,0,8,8,8,,,,,,,,,,,,,,,,,,,,,,,,,,,,,,,,,,,,,,,,,,,,,,,,,,,,,,,,down,1,0.38411480002105236,237.15028669999447,None,237.15028669999447,None,237.15028669999447,238.15138499997556,237.15028669999447,238.15138499997556,237.15028669999447,238.15138499997556,237.15028669999447,238.15138499997556,237.15028669999447,237.65094339998905,237.15028669999447,237.65094339998905,237.15028669999447,237.65094339998905,237.15028669999447,237.65094339998905,237.15028669999447,None,,,,,12014,001,2024_Jun_20_1918,nback,2021.2.3,60.21890778600022,
0-back,instructions\back-0.png,conditions\00back-e.xlsx,,,experiment,0,3,stim\gray.png,stim\gray.png,stim\yellow.png,stim\gray.png,right,,,,,,,,,,,,,0,0,0,0,0,9,9,9,,,,,,,,,,,,,,,,,,,,,,,,,,,,,,,,,,,,,,,,,,,,,,,,,,,,,,,,right,1,0.4017617999925278,238.65224109997507,None,238.65224109997507,None,238.65224109997507,239.65379950002534,238.65224109997507,239.65379950002534,238.65224109997507,239.65379950002534,238.65224109997507,239.65379950002534,238.65224109997507,239.15323270001682,238.65224109997507,239.15323270001682,238.65224109997507,239.15323270001682,238.65224109997507,239.15323270001682,238.65224109997507,None,,,,,12014,001,2024_Jun_20_1918,nback,2021.2.3,60.21890778600022,
0-back,instructions\back-0.png,conditions\00back-e.xlsx,,,experiment,0,1,stim\yellow.png,stim\gray.png,stim\gray.png,stim\gray.png,up,,,,,,,,,,,,,0,0,0,0,0,10,10,10,,,,,,,,,,,,,,,,,,,,,,,,,,,,,,,,,,,,,,,,,,,,,,,,,,,,,,,,up,1,0.36397910001687706,240.15439320000587,None,240.15439320000587,None,240.15439320000587,241.15589519997593,240.15439320000587,241.15589519997593,240.15439320000587,241.15589519997593,240.15439320000587,241.15589519997593,240.15439320000587,240.6554358000285,240.15439320000587,240.6554358000285,240.15439320000587,240.6554358000285,240.15439320000587,240.6554358000285,240.15439320000587,None,,,,,12014,001,2024_Jun_20_1918,nback,2021.2.3,60.21890778600022,
0-back,instructions\back-0.png,conditions\00back-e.xlsx,,,experiment,0,2,stim\gray.png,stim\yellow.png,stim\gray.png,stim\gray.png,left,,,,,,,,,,,,,0,0,0,0,0,11,11,11,,,,,,,,,,,,,,,,,,,,,,,,,,,,,,,,,,,,,,,,,,,,,,,,,,,,,,,,left,1,0.2692121000145562,241.6567276000278,None,241.6567276000278,None,241.6567276000278,242.65830670000287,241.6567276000278,242.65830670000287,241.6567276000278,242.65830670000287,241.6567276000278,242.65830670000287,241.6567276000278,242.1577868000022,241.6567276000278,242.1577868000022,241.6567276000278,242.1577868000022,241.6567276000278,242.1577868000022,241.6567276000278,None,,,,,12014,001,2024_Jun_20_1918,nback,2021.2.3,60.21890778600022,
0-back,instructions\back-0.png,conditions\00back-e.xlsx,,,experiment,0,3,stim\gray.png,stim\gray.png,stim\yellow.png,stim\gray.png,right,,,,,,,,,,,,,0,0,0,0,0,12,12,12,,,,,,,,,,,,,,,,,,,,,,,,,,,,,,,,,,,,,,,,,,,,,,,,,,,,,,,,right,1,0.4080973999807611,243.15894629998365,None,243.15894629998365,None,243.15894629998365,244.16150300001027,243.15894629998365,244.16150300001027,243.15894629998365,244.16150300001027,243.15894629998365,244.16150300001027,243.15894629998365,243.65956599998754,243.15894629998365,243.65956599998754,243.15894629998365,243.65956599998754,243.15894629998365,243.65956599998754,243.15894629998365,None,,,,,12014,001,2024_Jun_20_1918,nback,2021.2.3,60.21890778600022,
0-back,instructions\back-0.png,conditions\00back-e.xlsx,,,experiment,0,1,stim\yellow.png,stim\gray.png,stim\gray.png,stim\gray.png,up,,,,,,,,,,,,,0,0,0,0,0,13,13,13,,,,,,,,,,,,,,,,,,,,,,,,,,,,,,,,,,,,,,,,,,,,,,,,,,,,,,,,up,1,0.345487900020089,244.66126999998232,None,244.66126999998232,None,244.66126999998232,245.662639999995,244.66126999998232,245.662639999995,244.66126999998232,245.662639999995,244.66126999998232,245.662639999995,244.66126999998232,245.16189119999763,244.66126999998232,245.16189119999763,244.66126999998232,245.16189119999763,244.66126999998232,245.16189119999763,244.66126999998232,None,,,,,12014,001,2024_Jun_20_1918,nback,2021.2.3,60.21890778600022,
0-back,instructions\back-0.png,conditions\00back-e.xlsx,,,experiment,0,4,stim\gray.png,stim\gray.png,stim\gray.png,stim\yellow.png,down,,,,,,,,,,,,,0,0,0,0,0,14,14,14,,,,,,,,,,,,,,,,,,,,,,,,,,,,,,,,,,,,,,,,,,,,,,,,,,,,,,,,down,1,0.40355270000873134,246.14672930003144,None,246.14672930003144,None,246.14672930003144,247.14881260000402,246.14672930003144,247.14881260000402,246.14672930003144,247.14881260000402,246.14672930003144,247.14881260000402,246.14672930003144,246.64813689998118,246.14672930003144,246.64813689998118,246.14672930003144,246.64813689998118,246.14672930003144,246.64813689998118,246.14672930003144,None,,,,,12014,001,2024_Jun_20_1918,nback,2021.2.3,60.21890778600022,
0-back,instructions\back-0.png,conditions\00back-e.xlsx,,,experiment,0,2,stim\gray.png,stim\yellow.png,stim\gray.png,stim\gray.png,left,,,,,,,,,,,,,0,0,0,0,0,15,15,15,,,,,,,,,,,,,,,,,,,,,,,,,,,,,,,,,,,,,,,,,,,,,,,,,,,,,,,,left,1,0.3972644999739714,247.6490092999884,None,247.6490092999884,None,247.6490092999884,248.65066240000306,247.6490092999884,248.65066240000306,247.6490092999884,248.65066240000306,247.6490092999884,248.65066240000306,247.6490092999884,248.1497737999889,247.6490092999884,248.1497737999889,247.6490092999884,248.1497737999889,247.6490092999884,248.1497737999889,247.6490092999884,None,,,,,12014,001,2024_Jun_20_1918,nback,2021.2.3,60.21890778600022,
0-back,instructions\back-0.png,conditions\00back-e.xlsx,,,experiment,0,1,stim\yellow.png,stim\gray.png,stim\gray.png,stim\gray.png,up,,,,,,,,,,,,,0,0,0,0,0,16,16,16,,,,,,,,,,,,,,,,,,,,,,,,,,,,,,,,,,,,,,,,,,,,,,,,,,,,,,,,up,1,0.39081310003530234,249.1512237000279,None,249.1512237000279,None,249.1512237000279,250.1528013999923,249.1512237000279,250.1528013999923,249.1512237000279,250.1528013999923,249.1512237000279,250.1528013999923,249.1512237000279,249.65237409999827,249.1512237000279,249.65237409999827,249.1512237000279,249.65237409999827,249.1512237000279,249.65237409999827,249.1512237000279,None,,,,,12014,001,2024_Jun_20_1918,nback,2021.2.3,60.21890778600022,
0-back,instructions\back-0.png,conditions\00back-e.xlsx,,,experiment,0,2,stim\gray.png,stim\yellow.png,stim\gray.png,stim\gray.png,left,,,,,,,,,,,,,0,0,0,0,0,17,17,17,,,,,,,,,,,,,,,,,,,,,,,,,,,,,,,,,,,,,,,,,,,,,,,,,,,,,,,,left,1,0.4417857000371441,250.65372310002567,None,250.65372310002567,None,250.65372310002567,251.6556410000194,250.65372310002567,251.6556410000194,250.65372310002567,251.6556410000194,250.65372310002567,251.6556410000194,250.65372310002567,251.15421960002277,250.65372310002567,251.15421960002277,250.65372310002567,251.15421960002277,250.65372310002567,251.15421960002277,250.65372310002567,None,,,,,12014,001,2024_Jun_20_1918,nback,2021.2.3,60.21890778600022,
0-back,instructions\back-0.png,conditions\00back-e.xlsx,,,experiment,0,3,stim\gray.png,stim\gray.png,stim\yellow.png,stim\gray.png,right,,,,,,,,,,,,,0,0,0,0,0,18,18,18,,,,,,,,,,,,,,,,,,,,,,,,,,,,,,,,,,,,,,,,,,,,,,,,,,,,,,,,right,1,0.3536727000027895,252.15678590000607,None,252.15678590000607,None,252.15678590000607,253.15735420002602,252.15678590000607,253.15735420002602,252.15678590000607,253.15735420002602,252.15678590000607,253.15735420002602,252.15678590000607,252.65683280001394,252.15678590000607,252.65683280001394,252.15678590000607,252.65683280001394,252.15678590000607,252.65683280001394,252.15678590000607,None,,,,,12014,001,2024_Jun_20_1918,nback,2021.2.3,60.21890778600022,
0-back,instructions\back-0.png,conditions\00back-e.xlsx,,,experiment,0,4,stim\gray.png,stim\gray.png,stim\gray.png,stim\yellow.png,down,,,,,,,,,,,,,0,0,0,0,0,19,19,19,,,,,,,,,,,,,,,,,,,,,,,,,,,,,,,,,,,,,,,,,,,,,,,,,,,,,,,,down,1,0.35625020001316443,253.65889900003094,None,253.65889900003094,None,253.65889900003094,254.659576200007,253.65889900003094,254.659576200007,253.65889900003094,254.659576200007,253.65889900003094,254.659576200007,253.65889900003094,254.15924100001575,253.65889900003094,254.15924100001575,253.65889900003094,254.15924100001575,253.65889900003094,254.15924100001575,253.65889900003094,None,,,,,12014,001,2024_Jun_20_1918,nback,2021.2.3,60.21890778600022,
0-back,instructions\back-0.png,conditions\00back-e.xlsx,,,,,,,,,,,,,,,,,,,,,,,0,0,0,0,,,,,,,,,,,,,,,,,,,,,,,,,,,,,,,,,,,,,,,,,,,,,,,,,,,,,,,,,,,,,,,,,,,,,,,,,,,,,,,,,,,,,255.14392310002586,None,,,12014,001,2024_Jun_20_1918,nback,2021.2.3,60.21890778600022,
2-back,instructions\back-2.png,conditions\22back-e.xlsx,,,experiment,2,2,stim\gray.png,stim\yellow.png,stim\gray.png,stim\gray.png,None,,,,,,,,,,,,,0,1,1,8,0,0,0,0,,,,,,,,,,,,,,,256.44565339997644,260.95426460000454,260.78558329999214,None,,,,,,,,,,,,,,,,,,,,,,,,,,,,,,,,,,,,,,None,1,,261.1703274999745,None,261.1703274999745,None,261.1703274999745,262.171177399985,261.1703274999745,262.171177399985,261.1703274999745,262.171177399985,261.1703274999745,262.171177399985,261.1703274999745,261.67016749997856,261.1703274999745,261.67016749997856,261.1703274999745,261.67016749997856,261.1703274999745,261.67016749997856,261.1703274999745,None,,,,,12014,001,2024_Jun_20_1918,nback,2021.2.3,60.21890778600022,
2-back,instructions\back-2.png,conditions\22back-e.xlsx,,,experiment,2,3,stim\gray.png,stim\gray.png,stim\yellow.png,stim\gray.png,None,,,,,,,,,,,,,0,1,1,8,0,1,1,1,,,,,,,,,,,,,,,,,,,,,,,,,,,,,,,,,,,,,,,,,,,,,,,,,,,,,,,,None,1,,262.6551549999858,None,262.6551549999858,None,262.6551549999858,263.65658260002965,262.6551549999858,263.65658260002965,262.6551549999858,263.65658260002965,262.6551549999858,263.65658260002965,262.6551549999858,263.1557816999848,262.6551549999858,263.1557816999848,262.6551549999858,263.1557816999848,262.6551549999858,263.1557816999848,262.6551549999858,None,,,,,12014,001,2024_Jun_20_1918,nback,2021.2.3,60.21890778600022,
2-back,instructions\back-2.png,conditions\22back-e.xlsx,,,experiment,2,1,stim\yellow.png,stim\gray.png,stim\gray.png,stim\gray.png,left,,,,,,,,,,,,,0,1,1,8,0,2,2,2,,,,,,,,,,,,,,,,,,,,,,,,,,,,,,,,,,,,,,,,,,,,,,,,,,,,,,,,left,1,0.36067179997917265,264.1581157000037,None,264.1581157000037,None,264.1581157000037,265.1587846999755,264.1581157000037,265.1587846999755,264.1581157000037,265.1587846999755,264.1581157000037,265.1587846999755,264.1581157000037,264.65819779998856,264.1581157000037,264.65819779998856,264.1581157000037,264.65819779998856,264.1581157000037,264.65819779998856,264.1581157000037,None,,,,,12014,001,2024_Jun_20_1918,nback,2021.2.3,60.21890778600022,
2-back,instructions\back-2.png,conditions\22back-e.xlsx,,,experiment,2,2,stim\gray.png,stim\yellow.png,stim\gray.png,stim\gray.png,right,,,,,,,,,,,,,0,1,1,8,0,3,3,3,,,,,,,,,,,,,,,,,,,,,,,,,,,,,,,,,,,,,,,,,,,,,,,,,,,,,,,,right,1,0.17978199996287003,265.6596110999817,None,265.6596110999817,None,265.6596110999817,266.6622642999864,265.6596110999817,266.6622642999864,265.6596110999817,266.6622642999864,265.6596110999817,266.6622642999864,265.6596110999817,266.16035969997756,265.6596110999817,266.16035969997756,265.6596110999817,266.16035969997756,265.6596110999817,266.16035969997756,265.6596110999817,None,,,,,12014,001,2024_Jun_20_1918,nback,2021.2.3,60.21890778600022,
2-back,instructions\back-2.png,conditions\22back-e.xlsx,,,experiment,2,1,stim\yellow.png,stim\gray.png,stim\gray.png,stim\gray.png,up,,,,,,,,,,,,,0,1,1,8,0,4,4,4,,,,,,,,,,,,,,,,,,,,,,,,,,,,,,,,,,,,,,,,,,,,,,,,,,,,,,,,left,0,1.421643000037875,267.14504809997743,None,267.14504809997743,None,267.14504809997743,268.14714479999384,267.14504809997743,268.14714479999384,267.14504809997743,268.14714479999384,267.14504809997743,268.14714479999384,267.14504809997743,267.64837740000803,267.14504809997743,267.64837740000803,267.14504809997743,267.64837740000803,267.14504809997743,267.64837740000803,267.14504809997743,None,,,,,12014,001,2024_Jun_20_1918,nback,2021.2.3,60.21890778600022,
2-back,instructions\back-2.png,conditions\22back-e.xlsx,,,experiment,2,4,stim\gray.png,stim\gray.png,stim\gray.png,stim\yellow.png,left,,,,,,,,,,,,,0,1,1,8,0,5,5,5,,,,,,,,,,,,,,,,,,,,,,,,,,,,,,,,,,,,,,,,,,,,,,,,,,,,,,,,up,0,1.3197782000061125,268.64730800001416,None,268.64730800001416,None,268.64730800001416,269.6503065000288,268.64730800001416,269.6503065000288,268.64730800001416,269.6503065000288,268.64730800001416,269.6503065000288,268.64730800001416,269.1482936000102,268.64730800001416,269.1482936000102,268.64730800001416,269.1482936000102,268.64730800001416,269.1482936000102,268.64730800001416,None,,,,,12014,001,2024_Jun_20_1918,nback,2021.2.3,60.21890778600022,
2-back,instructions\back-2.png,conditions\22back-e.xlsx,,,experiment,2,3,stim\gray.png,stim\gray.png,stim\yellow.png,stim\gray.png,up,,,,,,,,,,,,,0,1,1,8,0,6,6,6,,,,,,,,,,,,,,,,,,,,,,,,,,,,,,,,,,,,,,,,,,,,,,,,,,,,,,,,down,0,1.1690379999927245,270.1497282999917,None,270.1497282999917,None,270.1497282999917,271.1511719999835,270.1497282999917,271.1511719999835,270.1497282999917,271.1511719999835,270.1497282999917,271.1511719999835,270.1497282999917,270.65046350000193,270.1497282999917,270.65046350000193,270.1497282999917,270.65046350000193,270.1497282999917,270.65046350000193,270.1497282999917,None,,,,,12014,001,2024_Jun_20_1918,nback,2021.2.3,60.21890778600022,
2-back,instructions\back-2.png,conditions\22back-e.xlsx,,,experiment,2,1,stim\yellow.png,stim\gray.png,stim\gray.png,stim\gray.png,down,,,,,,,,,,,,,0,1,1,8,0,7,7,7,,,,,,,,,,,,,,,,,,,,,,,,,,,,,,,,,,,,,,,,,,,,,,,,,,,,,,,,right,0,1.2109969000448473,271.6519807000295,None,271.6519807000295,None,271.6519807000295,272.6540231999825,271.6519807000295,272.6540231999825,271.6519807000295,272.6540231999825,271.6519807000295,272.6540231999825,271.6519807000295,272.15279610001016,271.6519807000295,272.15279610001016,271.6519807000295,272.15279610001016,271.6519807000295,272.15279610001016,271.6519807000295,None,,,,,12014,001,2024_Jun_20_1918,nback,2021.2.3,60.21890778600022,
2-back,instructions\back-2.png,conditions\22back-e.xlsx,,,experiment,2,2,stim\gray.png,stim\yellow.png,stim\gray.png,stim\gray.png,right,,,,,,,,,,,,,0,1,1,8,0,8,8,8,,,,,,,,,,,,,,,,,,,,,,,,,,,,,,,,,,,,,,,,,,,,,,,,,,,,,,,,up,0,0.9973399000009522,273.15397129999474,None,273.15397129999474,None,273.15397129999474,274.15565329999663,273.15397129999474,274.15565329999663,273.15397129999474,274.15565329999663,273.15397129999474,274.15565329999663,273.15397129999474,273.6548729999922,273.15397129999474,273.6548729999922,273.15397129999474,273.6548729999922,273.15397129999474,273.6548729999922,273.15397129999474,None,,,,,12014,001,2024_Jun_20_1918,nback,2021.2.3,60.21890778600022,
2-back,instructions\back-2.png,conditions\22back-e.xlsx,,,experiment,2,1,stim\yellow.png,stim\gray.png,stim\gray.png,stim\gray.png,up,,,,,,,,,,,,,0,1,1,8,0,9,9,9,,,,,,,,,,,,,,,,,,,,,,,,,,,,,,,,,,,,,,,,,,,,,,,,,,,,,,,,left,0,0.9823810000088997,274.6565206000232,None,274.6565206000232,None,274.6565206000232,275.65808790002484,274.6565206000232,275.65808790002484,274.6565206000232,275.65808790002484,274.6565206000232,275.65808790002484,274.6565206000232,275.15708560001804,274.6565206000232,275.15708560001804,274.6565206000232,275.15708560001804,274.6565206000232,275.15708560001804,274.6565206000232,None,,,,,12014,001,2024_Jun_20_1918,nback,2021.2.3,60.21890778600022,
2-back,instructions\back-2.png,conditions\22back-e.xlsx,,,experiment,2,4,stim\gray.png,stim\gray.png,stim\gray.png,stim\yellow.png,left,,,,,,,,,,,,,0,1,1,8,0,10,10,10,,,,,,,,,,,,,,,,,,,,,,,,,,,,,,,,,,,,,,,,,,,,,,,,,,,,,,,,None,0,,276.15871160000097,None,276.15871160000097,None,276.15871160000097,277.1603455999866,276.15871160000097,277.1603455999866,276.15871160000097,277.1603455999866,276.15871160000097,277.1603455999866,276.15871160000097,276.65940300002694,276.15871160000097,276.65940300002694,276.15871160000097,276.65940300002694,276.15871160000097,276.65940300002694,276.15871160000097,None,,,,,12014,001,2024_Jun_20_1918,nback,2021.2.3,60.21890778600022,
2-back,instructions\back-2.png,conditions\22back-e.xlsx,,,experiment,2,2,stim\gray.png,stim\yellow.png,stim\gray.png,stim\gray.png,up,,,,,,,,,,,,,0,1,1,8,0,11,11,11,,,,,,,,,,,,,,,,,,,,,,,,,,,,,,,,,,,,,,,,,,,,,,,,,,,,,,,,down,0,0.049881900020409375,277.6610970000038,None,277.6610970000038,None,277.6610970000038,278.6627027000068,277.6610970000038,278.6627027000068,277.6610970000038,278.6627027000068,277.6610970000038,278.6627027000068,277.6610970000038,278.1617940000142,277.6610970000038,278.1617940000142,277.6610970000038,278.1617940000142,277.6610970000038,278.1617940000142,277.6610970000038,None,,,,,12014,001,2024_Jun_20_1918,nback,2021.2.3,60.21890778600022,
2-back,instructions\back-2.png,conditions\22back-e.xlsx,,,experiment,2,4,stim\gray.png,stim\gray.png,stim\gray.png,stim\yellow.png,down,,,,,,,,,,,,,0,1,1,8,0,12,12,12,,,,,,,,,,,,,,,,,,,,,,,,,,,,,,,,,,,,,,,,,,,,,,,,,,,,,,,,left,0,0.5962902999599464,279.1465466999798,None,279.1465466999798,None,279.1465466999798,280.14803889999166,279.1465466999798,280.14803889999166,279.1465466999798,280.14803889999166,279.1465466999798,280.14803889999166,279.1465466999798,279.64722679997794,279.1465466999798,279.64722679997794,279.1465466999798,279.64722679997794,279.1465466999798,279.64722679997794,279.1465466999798,None,,,,,12014,001,2024_Jun_20_1918,nback,2021.2.3,60.21890778600022,
2-back,instructions\back-2.png,conditions\22back-e.xlsx,,,experiment,2,3,stim\gray.png,stim\gray.png,stim\yellow.png,stim\gray.png,left,,,,,,,,,,,,,0,1,1,8,0,13,13,13,,,,,,,,,,,,,,,,,,,,,,,,,,,,,,,,,,,,,,,,,,,,,,,,,,,,,,,,down,0,0.8463592000189237,280.6488777999766,None,280.6488777999766,None,280.6488777999766,281.65056149999145,280.6488777999766,281.65056149999145,280.6488777999766,281.65056149999145,280.6488777999766,281.65056149999145,280.6488777999766,281.1496055999887,280.6488777999766,281.1496055999887,280.6488777999766,281.1496055999887,280.6488777999766,281.1496055999887,280.6488777999766,None,,,,,12014,001,2024_Jun_20_1918,nback,2021.2.3,60.21890778600022,
2-back,instructions\back-2.png,conditions\22back-e.xlsx,,,experiment,2,3,stim\gray.png,stim\gray.png,stim\yellow.png,stim\gray.png,down,,,,,,,,,,,,,0,1,1,8,0,14,14,14,,,,,,,,,,,,,,,,,,,,,,,,,,,,,,,,,,,,,,,,,,,,,,,,,,,,,,,,right,0,0.9520297000417486,282.1512147000176,None,282.1512147000176,None,282.1512147000176,283.1526624999824,282.1512147000176,283.1526624999824,282.1512147000176,283.1526624999824,282.1512147000176,283.1526624999824,282.1512147000176,282.65203340002336,282.1512147000176,282.65203340002336,282.1512147000176,282.65203340002336,282.1512147000176,282.65203340002336,282.1512147000176,None,,,,,12014,001,2024_Jun_20_1918,nback,2021.2.3,60.21890778600022,
2-back,instructions\back-2.png,conditions\22back-e.xlsx,,,experiment,2,4,stim\gray.png,stim\gray.png,stim\gray.png,stim\yellow.png,right,,,,,,,,,,,,,0,1,1,8,0,15,15,15,,,,,,,,,,,,,,,,,,,,,,,,,,,,,,,,,,,,,,,,,,,,,,,,,,,,,,,,right,1,1.4503194999997504,283.6533894999884,None,283.6533894999884,None,283.6533894999884,284.6551665000152,283.6533894999884,284.6551665000152,283.6533894999884,284.6551665000152,283.6533894999884,284.6551665000152,283.6533894999884,284.15408349997597,283.6533894999884,284.15408349997597,283.6533894999884,284.15408349997597,283.6533894999884,284.15408349997597,283.6533894999884,None,,,,,12014,001,2024_Jun_20_1918,nback,2021.2.3,60.21890778600022,
2-back,instructions\back-2.png,conditions\22back-e.xlsx,,,experiment,2,2,stim\gray.png,stim\yellow.png,stim\gray.png,stim\gray.png,right,,,,,,,,,,,,,0,1,1,8,0,16,16,16,,,,,,,,,,,,,,,,,,,,,,,,,,,,,,,,,,,,,,,,,,,,,,,,,,,,,,,,None,0,,285.15583230002085,None,285.15583230002085,None,285.15583230002085,286.15715049998835,285.15583230002085,286.15715049998835,285.15583230002085,286.15715049998835,285.15583230002085,286.15715049998835,285.15583230002085,285.65670910000335,285.15583230002085,285.65670910000335,285.15583230002085,285.65670910000335,285.15583230002085,285.65670910000335,285.15583230002085,None,,,,,12014,001,2024_Jun_20_1918,nback,2021.2.3,60.21890778600022,
2-back,instructions\back-2.png,conditions\22back-e.xlsx,,,experiment,2,1,stim\yellow.png,stim\gray.png,stim\gray.png,stim\gray.png,down,,,,,,,,,,,,,0,1,1,8,0,17,17,17,,,,,,,,,,,,,,,,,,,,,,,,,,,,,,,,,,,,,,,,,,,,,,,,,,,,,,,,down,1,0.08530700003029779,286.65792050003074,None,286.65792050003074,None,286.65792050003074,287.65940340003,286.65792050003074,287.65940340003,286.65792050003074,287.65940340003,286.65792050003074,287.65940340003,286.65792050003074,287.1593413000228,286.65792050003074,287.1593413000228,286.65792050003074,287.1593413000228,286.65792050003074,287.1593413000228,286.65792050003074,None,,,,,12014,001,2024_Jun_20_1918,nback,2021.2.3,60.21890778600022,
2-back,instructions\back-2.png,conditions\22back-e.xlsx,,,experiment,2,4,stim\gray.png,stim\gray.png,stim\gray.png,stim\yellow.png,left,,,,,,,,,,,,,0,1,1,8,0,18,18,18,,,,,,,,,,,,,,,,,,,,,,,,,,,,,,,,,,,,,,,,,,,,,,,,,,,,,,,,up,0,1.367167399963364,288.1603088999982,None,288.1603088999982,None,288.1603088999982,289.16165279998677,288.1603088999982,289.16165279998677,288.1603088999982,289.16165279998677,288.1603088999982,289.16165279998677,288.1603088999982,288.66091700003017,288.1603088999982,288.66091700003017,288.1603088999982,288.66091700003017,288.1603088999982,288.66091700003017,288.1603088999982,None,,,,,12014,001,2024_Jun_20_1918,nback,2021.2.3,60.21890778600022,
2-back,instructions\back-2.png,conditions\22back-e.xlsx,,,experiment,2,3,stim\gray.png,stim\gray.png,stim\yellow.png,stim\gray.png,up,,,,,,,,,,,,,0,1,1,8,0,19,19,19,,,,,,,,,,,,,,,,,,,,,,,,,,,,,,,,,,,,,,,,,,,,,,,,,,,,,,,,down,0,1.0018206000095233,289.646109000023,None,289.646109000023,None,289.646109000023,290.6474155000178,289.646109000023,290.6474155000178,289.646109000023,290.6474155000178,289.646109000023,290.6474155000178,289.646109000023,290.14641960000154,289.646109000023,290.14641960000154,289.646109000023,290.14641960000154,289.646109000023,290.14641960000154,289.646109000023,None,,,,,12014,001,2024_Jun_20_1918,nback,2021.2.3,60.21890778600022,
2-back,instructions\back-2.png,conditions\22back-e.xlsx,,,,,,,,,,,,,,,,,,,,,,,0,1,1,8,,,,,,,,,,,,,,,,,,,,,,,,,,,,,,,,,,,,,,,,,,,,,,,,,,,,,,,,,,,,,,,,,,,,,,,,,,,,,,,,,,,,,291.14800580003066,None,,,12014,001,2024_Jun_20_1918,nback,2021.2.3,60.21890778600022,
2-back,instructions\back-2.png,conditions\21back-e.xlsx,,,experiment,2,3,stim\gray.png,stim\gray.png,stim\yellow.png,stim\gray.png,None,,,,,,,,,,,,,0,2,2,3,0,0,0,0,,,,,,,,,,,,,,,292.31671939999796,296.8240495999926,296.7909395000315,None,,,,,,,,,,,,,,,,,,,,,,,,,,,,,,,,,,,,,,None,1,,297.1737524999771,None,297.1737524999771,None,297.1737524999771,298.17590119998204,297.1737524999771,298.17590119998204,297.1737524999771,298.17590119998204,297.1737524999771,298.17590119998204,297.1737524999771,297.6748902000254,297.1737524999771,297.6748902000254,297.1737524999771,297.6748902000254,297.1737524999771,297.6748902000254,297.1737524999771,None,,,,,12014,001,2024_Jun_20_1918,nback,2021.2.3,60.21890778600022,
2-back,instructions\back-2.png,conditions\21back-e.xlsx,,,experiment,2,4,stim\gray.png,stim\gray.png,stim\gray.png,stim\yellow.png,None,,,,,,,,,,,,,0,2,2,3,0,1,1,1,,,,,,,,,,,,,,,,,,,,,,,,,,,,,,,,,,,,,,,,,,,,,,,,,,,,,,,,None,1,,298.65919779997785,None,298.65919779997785,None,298.65919779997785,299.66088729997864,298.65919779997785,299.66088729997864,298.65919779997785,299.66088729997864,298.65919779997785,299.66088729997864,298.65919779997785,299.16061429999536,298.65919779997785,299.16061429999536,298.65919779997785,299.16061429999536,298.65919779997785,299.16061429999536,298.65919779997785,None,,,,,12014,001,2024_Jun_20_1918,nback,2021.2.3,60.21890778600022,
2-back,instructions\back-2.png,conditions\21back-e.xlsx,,,experiment,2,1,stim\yellow.png,stim\gray.png,stim\gray.png,stim\gray.png,right,,,,,,,,,,,,,0,2,2,3,0,2,2,2,,,,,,,,,,,,,,,,,,,,,,,,,,,,,,,,,,,,,,,,,,,,,,,,,,,,,,,,right,1,0.07910760003142059,300.14473810000345,None,300.14473810000345,None,300.14473810000345,301.1465071000275,300.14473810000345,301.1465071000275,300.14473810000345,301.1465071000275,300.14473810000345,301.1465071000275,300.14473810000345,300.6457095000078,300.14473810000345,300.6457095000078,300.14473810000345,300.6457095000078,300.14473810000345,300.6457095000078,300.14473810000345,None,,,,,12014,001,2024_Jun_20_1918,nback,2021.2.3,60.21890778600022,
2-back,instructions\back-2.png,conditions\21back-e.xlsx,,,experiment,2,2,stim\gray.png,stim\yellow.png,stim\gray.png,stim\gray.png,down,,,,,,,,,,,,,0,2,2,3,0,3,3,3,,,,,,,,,,,,,,,,,,,,,,,,,,,,,,,,,,,,,,,,,,,,,,,,,,,,,,,,down,1,0.12038749997736886,301.64729430002626,None,301.64729430002626,None,301.64729430002626,302.6488791999873,301.64729430002626,302.6488791999873,301.64729430002626,302.6488791999873,301.64729430002626,302.6488791999873,301.64729430002626,302.14767749997554,301.64729430002626,302.14767749997554,301.64729430002626,302.14767749997554,301.64729430002626,302.14767749997554,301.64729430002626,None,,,,,12014,001,2024_Jun_20_1918,nback,2021.2.3,60.21890778600022,
2-back,instructions\back-2.png,conditions\21back-e.xlsx,,,experiment,2,1,stim\yellow.png,stim\gray.png,stim\gray.png,stim\gray.png,up,,,,,,,,,,,,,0,2,2,3,0,4,4,4,,,,,,,,,,,,,,,,,,,,,,,,,,,,,,,,,,,,,,,,,,,,,,,,,,,,,,,,left,0,1.4189852999988943,303.14949919999344,None,303.14949919999344,None,303.14949919999344,304.1508152000024,303.14949919999344,304.1508152000024,303.14949919999344,304.1508152000024,303.14949919999344,304.1508152000024,303.14949919999344,303.65044479997596,303.14949919999344,303.65044479997596,303.14949919999344,303.65044479997596,303.14949919999344,303.65044479997596,303.14949919999344,None,,,,,12014,001,2024_Jun_20_1918,nback,2021.2.3,60.21890778600022,
2-back,instructions\back-2.png,conditions\21back-e.xlsx,,,experiment,2,2,stim\gray.png,stim\yellow.png,stim\gray.png,stim\gray.png,left,,,,,,,,,,,,,0,2,2,3,0,5,5,5,,,,,,,,,,,,,,,,,,,,,,,,,,,,,,,,,,,,,,,,,,,,,,,,,,,,,,,,None,0,,304.651857400022,None,304.651857400022,None,304.651857400022,305.6533723999746,304.651857400022,305.6533723999746,304.651857400022,305.6533723999746,304.651857400022,305.6533723999746,304.651857400022,305.1527913999744,304.651857400022,305.1527913999744,304.651857400022,305.1527913999744,304.651857400022,305.1527913999744,304.651857400022,None,,,,,12014,001,2024_Jun_20_1918,nback,2021.2.3,60.21890778600022,
2-back,instructions\back-2.png,conditions\21back-e.xlsx,,,experiment,2,3,stim\gray.png,stim\gray.png,stim\yellow.png,stim\gray.png,up,,,,,,,,,,,,,0,2,2,3,0,6,6,6,,,,,,,,,,,,,,,,,,,,,,,,,,,,,,,,,,,,,,,,,,,,,,,,,,,,,,,,up,1,0.0464466999983415,306.1540018999949,None,306.1540018999949,None,306.1540018999949,307.1555323000066,306.1540018999949,307.1555323000066,306.1540018999949,307.1555323000066,306.1540018999949,307.1555323000066,306.1540018999949,306.65512100001797,306.1540018999949,306.65512100001797,306.1540018999949,306.65512100001797,306.1540018999949,306.65512100001797,306.1540018999949,None,,,,,12014,001,2024_Jun_20_1918,nback,2021.2.3,60.21890778600022,
2-back,instructions\back-2.png,conditions\21back-e.xlsx,,,experiment,2,4,stim\gray.png,stim\gray.png,stim\gray.png,stim\yellow.png,left,,,,,,,,,,,,,0,2,2,3,0,7,7,7,,,,,,,,,,,,,,,,,,,,,,,,,,,,,,,,,,,,,,,,,,,,,,,,,,,,,,,,left,1,0.19213620002847165,307.6560992000159,None,307.6560992000159,None,307.6560992000159,308.6580294999876,307.6560992000159,308.6580294999876,307.6560992000159,308.6580294999876,307.6560992000159,308.6580294999876,307.6560992000159,308.15758830000414,307.6560992000159,308.15758830000414,307.6560992000159,308.15758830000414,307.6560992000159,308.15758830000414,307.6560992000159,None,,,,,12014,001,2024_Jun_20_1918,nback,2021.2.3,60.21890778600022,
2-back,instructions\back-2.png,conditions\21back-e.xlsx,,,experiment,2,3,stim\gray.png,stim\gray.png,stim\yellow.png,stim\gray.png,right,,,,,,,,,,,,,0,2,2,3,0,8,8,8,,,,,,,,,,,,,,,,,,,,,,,,,,,,,,,,,,,,,,,,,,,,,,,,,,,,,,,,right,1,0.27345739997690544,309.15851219999604,None,309.15851219999604,None,309.15851219999604,310.1601018999936,309.15851219999604,310.1601018999936,309.15851219999604,310.1601018999936,309.15851219999604,310.1601018999936,309.15851219999604,309.6595785000245,309.15851219999604,309.6595785000245,309.15851219999604,309.6595785000245,309.15851219999604,309.6595785000245,309.15851219999604,None,,,,,12014,001,2024_Jun_20_1918,nback,2021.2.3,60.21890778600022,
2-back,instructions\back-2.png,conditions\21back-e.xlsx,,,experiment,2,1,stim\yellow.png,stim\gray.png,stim\gray.png,stim\gray.png,down,,,,,,,,,,,,,0,2,2,3,0,9,9,9,,,,,,,,,,,,,,,,,,,,,,,,,,,,,,,,,,,,,,,,,,,,,,,,,,,,,,,,down,1,0.267955899995286,310.6441017999896,None,310.6441017999896,None,310.6441017999896,311.6458624000079,310.6441017999896,311.6458624000079,310.6441017999896,311.6458624000079,310.6441017999896,311.6458624000079,310.6441017999896,311.14480800001184,310.6441017999896,311.14480800001184,310.6441017999896,311.14480800001184,310.6441017999896,311.14480800001184,310.6441017999896,None,,,,,12014,001,2024_Jun_20_1918,nback,2021.2.3,60.21890778600022,
2-back,instructions\back-2.png,conditions\21back-e.xlsx,,,experiment,2,4,stim\gray.png,stim\gray.png,stim\gray.png,stim\yellow.png,right,,,,,,,,,,,,,0,2,2,3,0,10,10,10,,,,,,,,,,,,,,,,,,,,,,,,,,,,,,,,,,,,,,,,,,,,,,,,,,,,,,,,right,1,0.26985889999195933,312.1462676000083,None,312.1462676000083,None,312.1462676000083,313.1477527000243,312.1462676000083,313.1477527000243,312.1462676000083,313.1477527000243,312.1462676000083,313.1477527000243,312.1462676000083,312.64712899998995,312.1462676000083,312.64712899998995,312.1462676000083,312.64712899998995,312.1462676000083,312.64712899998995,312.1462676000083,None,,,,,12014,001,2024_Jun_20_1918,nback,2021.2.3,60.21890778600022,
2-back,instructions\back-2.png,conditions\21back-e.xlsx,,,experiment,2,2,stim\gray.png,stim\yellow.png,stim\gray.png,stim\gray.png,up,,,,,,,,,,,,,0,2,2,3,0,11,11,11,,,,,,,,,,,,,,,,,,,,,,,,,,,,,,,,,,,,,,,,,,,,,,,,,,,,,,,,up,1,0.3353861999930814,313.64873459999217,None,313.64873459999217,None,313.64873459999217,314.650320500019,313.64873459999217,314.650320500019,313.64873459999217,314.650320500019,313.64873459999217,314.650320500019,313.64873459999217,314.149327000021,313.64873459999217,314.149327000021,313.64873459999217,314.149327000021,313.64873459999217,314.149327000021,313.64873459999217,None,,,,,12014,001,2024_Jun_20_1918,nback,2021.2.3,60.21890778600022,
2-back,instructions\back-2.png,conditions\21back-e.xlsx,,,experiment,2,4,stim\gray.png,stim\gray.png,stim\gray.png,stim\yellow.png,down,,,,,,,,,,,,,0,2,2,3,0,12,12,12,,,,,,,,,,,,,,,,,,,,,,,,,,,,,,,,,,,,,,,,,,,,,,,,,,,,,,,,down,1,0.0813841000199318,315.1509287999943,None,315.1509287999943,None,315.1509287999943,316.1547243000241,315.1509287999943,316.1547243000241,315.1509287999943,316.1547243000241,315.1509287999943,316.1547243000241,315.1509287999943,315.652307500015,315.1509287999943,315.652307500015,315.1509287999943,315.652307500015,315.1509287999943,315.652307500015,315.1509287999943,None,,,,,12014,001,2024_Jun_20_1918,nback,2021.2.3,60.21890778600022,
2-back,instructions\back-2.png,conditions\21back-e.xlsx,,,experiment,2,3,stim\gray.png,stim\gray.png,stim\yellow.png,stim\gray.png,left,,,,,,,,,,,,,0,2,2,3,0,13,13,13,,,,,,,,,,,,,,,,,,,,,,,,,,,,,,,,,,,,,,,,,,,,,,,,,,,,,,,,left,1,0.27353469998342916,316.65460100001656,None,316.65460100001656,None,316.65460100001656,317.65476529998705,316.65460100001656,317.65476529998705,316.65460100001656,317.65476529998705,316.65460100001656,317.65476529998705,316.65460100001656,317.1540796000045,316.65460100001656,317.1540796000045,316.65460100001656,317.1540796000045,316.65460100001656,317.1540796000045,316.65460100001656,None,,,,,12014,001,2024_Jun_20_1918,nback,2021.2.3,60.21890778600022,
2-back,instructions\back-2.png,conditions\21back-e.xlsx,,,experiment,2,1,stim\yellow.png,stim\gray.png,stim\gray.png,stim\gray.png,down,,,,,,,,,,,,,0,2,2,3,0,14,14,14,,,,,,,,,,,,,,,,,,,,,,,,,,,,,,,,,,,,,,,,,,,,,,,,,,,,,,,,right,0,0.14108799997484311,318.1552326999954,None,318.1552326999954,None,318.1552326999954,319.15698670002166,318.1552326999954,319.15698670002166,318.1552326999954,319.15698670002166,318.1552326999954,319.15698670002166,318.1552326999954,318.65632880001795,318.1552326999954,318.65632880001795,318.1552326999954,318.65632880001795,318.1552326999954,318.65632880001795,318.1552326999954,None,,,,,12014,001,2024_Jun_20_1918,nback,2021.2.3,60.21890778600022,
2-back,instructions\back-2.png,conditions\21back-e.xlsx,,,experiment,2,2,stim\gray.png,stim\yellow.png,stim\gray.png,stim\gray.png,right,,,,,,,,,,,,,0,2,2,3,0,15,15,15,,,,,,,,,,,,,,,,,,,,,,,,,,,,,,,,,,,,,,,,,,,,,,,,,,,,,,,,up,0,0.094810199982021,319.6576633999939,None,319.6576633999939,None,319.6576633999939,320.6591871000128,319.6576633999939,320.6591871000128,319.6576633999939,320.6591871000128,319.6576633999939,320.6591871000128,319.6576633999939,320.1585709999781,319.6576633999939,320.1585709999781,319.6576633999939,320.1585709999781,319.6576633999939,320.1585709999781,319.6576633999939,None,,,,,12014,001,2024_Jun_20_1918,nback,2021.2.3,60.21890778600022,
2-back,instructions\back-2.png,conditions\21back-e.xlsx,,,experiment,2,2,stim\gray.png,stim\yellow.png,stim\gray.png,stim\gray.png,up,,,,,,,,,,,,,0,2,2,3,0,16,16,16,,,,,,,,,,,,,,,,,,,,,,,,,,,,,,,,,,,,,,,,,,,,,,,,,,,,,,,,left,0,0.2727643999969587,321.15991530002793,None,321.15991530002793,None,321.15991530002793,322.16174680000404,321.15991530002793,322.16174680000404,321.15991530002793,322.16174680000404,321.15991530002793,322.16174680000404,321.15991530002793,321.6608318000217,321.15991530002793,321.6608318000217,321.15991530002793,321.6608318000217,321.15991530002793,321.6608318000217,321.15991530002793,None,,,,,12014,001,2024_Jun_20_1918,nback,2021.2.3,60.21890778600022,
2-back,instructions\back-2.png,conditions\21back-e.xlsx,,,experiment,2,1,stim\yellow.png,stim\gray.png,stim\gray.png,stim\gray.png,left,,,,,,,,,,,,,0,2,2,3,0,17,17,17,,,,,,,,,,,,,,,,,,,,,,,,,,,,,,,,,,,,,,,,,,,,,,,,,,,,,,,,up,0,0.5068799000000581,322.6454904000275,None,322.6454904000275,None,322.6454904000275,323.6469438999775,322.6454904000275,323.6469438999775,322.6454904000275,323.6469438999775,322.6454904000275,323.6469438999775,322.6454904000275,323.1463845000253,322.6454904000275,323.1463845000253,322.6454904000275,323.1463845000253,322.6454904000275,323.1463845000253,322.6454904000275,None,,,,,12014,001,2024_Jun_20_1918,nback,2021.2.3,60.21890778600022,
2-back,instructions\back-2.png,conditions\21back-e.xlsx,,,experiment,2,4,stim\gray.png,stim\gray.png,stim\gray.png,stim\yellow.png,left,,,,,,,,,,,,,0,2,2,3,0,18,18,18,,,,,,,,,,,,,,,,,,,,,,,,,,,,,,,,,,,,,,,,,,,,,,,,,,,,,,,,down,0,0.7251750000286847,324.14766020001844,None,324.14766020001844,None,324.14766020001844,325.1497942000278,324.14766020001844,325.1497942000278,324.14766020001844,325.1497942000278,324.14766020001844,325.1497942000278,324.14766020001844,324.6490456999745,324.14766020001844,324.6490456999745,324.14766020001844,324.6490456999745,324.14766020001844,324.6490456999745,324.14766020001844,None,,,,,12014,001,2024_Jun_20_1918,nback,2021.2.3,60.21890778600022,
2-back,instructions\back-2.png,conditions\21back-e.xlsx,,,experiment,2,3,stim\gray.png,stim\gray.png,stim\yellow.png,stim\gray.png,up,,,,,,,,,,,,,0,2,2,3,0,19,19,19,,,,,,,,,,,,,,,,,,,,,,,,,,,,,,,,,,,,,,,,,,,,,,,,,,,,,,,,None,0,,325.6500319999759,None,325.6500319999759,None,325.6500319999759,326.6523249000311,325.6500319999759,326.6523249000311,325.6500319999759,326.6523249000311,325.6500319999759,326.6523249000311,325.6500319999759,326.15095380001003,325.6500319999759,326.15095380001003,325.6500319999759,326.15095380001003,325.6500319999759,326.15095380001003,325.6500319999759,None,,,,,12014,001,2024_Jun_20_1918,nback,2021.2.3,60.21890778600022,
2-back,instructions\back-2.png,conditions\21back-e.xlsx,,,,,,,,,,,,,,,,,,,,,,,0,2,2,3,,,,,,,,,,,,,,,,,,,,,,,,,,,,,,,,,,,,,,,,,,,,,,,,,,,,,,,,,,,,,,,,,,,,,,,,,,,,,,,,,,,,,327.15232649998507,None,,,12014,001,2024_Jun_20_1918,nback,2021.2.3,60.21890778600022,
1-back,instructions\back-1.png,conditions\12back-e.xlsx,,,experiment,1,2,stim\gray.png,stim\yellow.png,stim\gray.png,stim\gray.png,None,,,,,,,,,,,,,0,3,3,6,0,0,0,0,,,,,,,,,,,,,,,328.3540638000122,332.86154120002175,332.79426039999817,None,,,,,,,,,,,,,,,,,,,,,,,,,,,,,,,,,,,,,,None,1,,333.16126010002336,None,333.16126010002336,None,333.16126010002336,334.1628146999865,333.16126010002336,334.1628146999865,333.16126010002336,334.1628146999865,333.16126010002336,334.1628146999865,333.16126010002336,333.66410250001354,333.16126010002336,333.66410250001354,333.16126010002336,333.66410250001354,333.16126010002336,333.66410250001354,333.16126010002336,None,,,,,12014,001,2024_Jun_20_1918,nback,2021.2.3,60.21890778600022,
1-back,instructions\back-1.png,conditions\12back-e.xlsx,,,experiment,1,3,stim\gray.png,stim\gray.png,stim\yellow.png,stim\gray.png,left,,,,,,,,,,,,,0,3,3,6,0,1,1,1,,,,,,,,,,,,,,,,,,,,,,,,,,,,,,,,,,,,,,,,,,,,,,,,,,,,,,,,left,1,0.6183711999910884,334.64697110001,None,334.64697110001,None,334.64697110001,335.64888679998694,334.64697110001,335.64888679998694,334.64697110001,335.64888679998694,334.64697110001,335.64888679998694,334.64697110001,335.14773000002606,334.64697110001,335.14773000002606,334.64697110001,335.14773000002606,334.64697110001,335.14773000002606,334.64697110001,None,,,,,12014,001,2024_Jun_20_1918,nback,2021.2.3,60.21890778600022,
1-back,instructions\back-1.png,conditions\12back-e.xlsx,,,experiment,1,4,stim\gray.png,stim\gray.png,stim\gray.png,stim\yellow.png,right,,,,,,,,,,,,,0,3,3,6,0,2,2,2,,,,,,,,,,,,,,,,,,,,,,,,,,,,,,,,,,,,,,,,,,,,,,,,,,,,,,,,right,1,0.4354431999963708,336.1490764999762,None,336.1490764999762,None,336.1490764999762,337.15068159997463,336.1490764999762,337.15068159997463,336.1490764999762,337.15068159997463,336.1490764999762,337.15068159997463,336.1490764999762,336.64997730002506,336.1490764999762,336.64997730002506,336.1490764999762,336.64997730002506,336.1490764999762,336.64997730002506,336.1490764999762,None,,,,,12014,001,2024_Jun_20_1918,nback,2021.2.3,60.21890778600022,
1-back,instructions\back-1.png,conditions\12back-e.xlsx,,,experiment,1,3,stim\gray.png,stim\gray.png,stim\yellow.png,stim\gray.png,down,,,,,,,,,,,,,0,3,3,6,0,3,3,3,,,,,,,,,,,,,,,,,,,,,,,,,,,,,,,,,,,,,,,,,,,,,,,,,,,,,,,,down,1,0.3742255000397563,337.6514391999808,None,337.6514391999808,None,337.6514391999808,338.6529282000265,337.6514391999808,338.6529282000265,337.6514391999808,338.6529282000265,337.6514391999808,338.6529282000265,337.6514391999808,338.1528570000082,337.6514391999808,338.1528570000082,337.6514391999808,338.1528570000082,337.6514391999808,338.1528570000082,337.6514391999808,None,,,,,12014,001,2024_Jun_20_1918,nback,2021.2.3,60.21890778600022,
1-back,instructions\back-1.png,conditions\12back-e.xlsx,,,experiment,1,1,stim\yellow.png,stim\gray.png,stim\gray.png,stim\gray.png,right,,,,,,,,,,,,,0,3,3,6,0,4,4,4,,,,,,,,,,,,,,,,,,,,,,,,,,,,,,,,,,,,,,,,,,,,,,,,,,,,,,,,right,1,0.21530519996304065,339.1537148000207,None,339.1537148000207,None,339.1537148000207,340.1553599999752,339.1537148000207,340.1553599999752,339.1537148000207,340.1553599999752,339.1537148000207,340.1553599999752,339.1537148000207,339.65445560001535,339.1537148000207,339.65445560001535,339.1537148000207,339.65445560001535,339.1537148000207,339.65445560001535,339.1537148000207,None,,,,,12014,001,2024_Jun_20_1918,nback,2021.2.3,60.21890778600022,
1-back,instructions\back-1.png,conditions\12back-e.xlsx,,,experiment,1,2,stim\gray.png,stim\yellow.png,stim\gray.png,stim\gray.png,up,,,,,,,,,,,,,0,3,3,6,0,5,5,5,,,,,,,,,,,,,,,,,,,,,,,,,,,,,,,,,,,,,,,,,,,,,,,,,,,,,,,,up,1,0.24930629995651543,340.6558788000257,None,340.6558788000257,None,340.6558788000257,341.6574658000027,340.6558788000257,341.6574658000027,340.6558788000257,341.6574658000027,340.6558788000257,341.6574658000027,340.6558788000257,341.1568967999774,340.6558788000257,341.1568967999774,340.6558788000257,341.1568967999774,340.6558788000257,341.1568967999774,340.6558788000257,None,,,,,12014,001,2024_Jun_20_1918,nback,2021.2.3,60.21890778600022,
1-back,instructions\back-1.png,conditions\12back-e.xlsx,,,experiment,1,2,stim\gray.png,stim\yellow.png,stim\gray.png,stim\gray.png,left,,,,,,,,,,,,,0,3,3,6,0,6,6,6,,,,,,,,,,,,,,,,,,,,,,,,,,,,,,,,,,,,,,,,,,,,,,,,,,,,,,,,left,1,1.2987979000317864,342.1581954000285,None,342.1581954000285,None,342.1581954000285,343.15974139998434,342.1581954000285,343.15974139998434,342.1581954000285,343.15974139998434,342.1581954000285,343.15974139998434,342.1581954000285,342.66056639997987,342.1581954000285,342.66056639997987,342.1581954000285,342.66056639997987,342.1581954000285,342.66056639997987,342.1581954000285,None,,,,,12014,001,2024_Jun_20_1918,nback,2021.2.3,60.21890778600022,
1-back,instructions\back-1.png,conditions\12back-e.xlsx,,,experiment,1,4,stim\gray.png,stim\gray.png,stim\gray.png,stim\yellow.png,left,,,,,,,,,,,,,0,3,3,6,0,7,7,7,,,,,,,,,,,,,,,,,,,,,,,,,,,,,,,,,,,,,,,,,,,,,,,,,,,,,,,,None,0,,343.6605420000269,None,343.6605420000269,None,343.6605420000269,344.66210590000264,343.6605420000269,344.66210590000264,343.6605420000269,344.66210590000264,343.6605420000269,344.66210590000264,343.6605420000269,344.16127979999874,343.6605420000269,344.16127979999874,343.6605420000269,344.16127979999874,343.6605420000269,344.16127979999874,343.6605420000269,None,,,,,12014,001,2024_Jun_20_1918,nback,2021.2.3,60.21890778600022,
1-back,instructions\back-1.png,conditions\12back-e.xlsx,,,experiment,1,1,stim\yellow.png,stim\gray.png,stim\gray.png,stim\gray.png,down,,,,,,,,,,,,,0,3,3,6,0,8,8,8,,,,,,,,,,,,,,,,,,,,,,,,,,,,,,,,,,,,,,,,,,,,,,,,,,,,,,,,down,1,0.25557139999000356,345.1460292999982,None,345.1460292999982,None,345.1460292999982,346.1476785999839,345.1460292999982,346.1476785999839,345.1460292999982,346.1476785999839,345.1460292999982,346.1476785999839,345.1460292999982,345.6469287999789,345.1460292999982,345.6469287999789,345.1460292999982,345.6469287999789,345.1460292999982,345.6469287999789,345.1460292999982,None,,,,,12014,001,2024_Jun_20_1918,nback,2021.2.3,60.21890778600022,
1-back,instructions\back-1.png,conditions\12back-e.xlsx,,,experiment,1,3,stim\gray.png,stim\gray.png,stim\yellow.png,stim\gray.png,up,,,,,,,,,,,,,0,3,3,6,0,9,9,9,,,,,,,,,,,,,,,,,,,,,,,,,,,,,,,,,,,,,,,,,,,,,,,,,,,,,,,,up,1,0.21625629998743534,346.6490595000214,None,346.6490595000214,None,346.6490595000214,347.64995759999147,346.6490595000214,347.64995759999147,346.6490595000214,347.64995759999147,346.6490595000214,347.64995759999147,346.6490595000214,347.1493518999778,346.6490595000214,347.1493518999778,346.6490595000214,347.1493518999778,346.6490595000214,347.1493518999778,346.6490595000214,None,,,,,12014,001,2024_Jun_20_1918,nback,2021.2.3,60.21890778600022,
1-back,instructions\back-1.png,conditions\12back-e.xlsx,,,experiment,1,4,stim\gray.png,stim\gray.png,stim\gray.png,stim\yellow.png,right,,,,,,,,,,,,,0,3,3,6,0,10,10,10,,,,,,,,,,,,,,,,,,,,,,,,,,,,,,,,,,,,,,,,,,,,,,,,,,,,,,,,right,1,0.4184318000334315,348.1506968999747,None,348.1506968999747,None,348.1506968999747,349.1520936000161,348.1506968999747,349.1520936000161,348.1506968999747,349.1520936000161,348.1506968999747,349.1520936000161,348.1506968999747,348.651484699978,348.1506968999747,348.651484699978,348.1506968999747,348.651484699978,348.1506968999747,348.651484699978,348.1506968999747,None,,,,,12014,001,2024_Jun_20_1918,nback,2021.2.3,60.21890778600022,
1-back,instructions\back-1.png,conditions\12back-e.xlsx,,,experiment,1,3,stim\gray.png,stim\gray.png,stim\yellow.png,stim\gray.png,down,,,,,,,,,,,,,0,3,3,6,0,11,11,11,,,,,,,,,,,,,,,,,,,,,,,,,,,,,,,,,,,,,,,,,,,,,,,,,,,,,,,,down,1,0.2288784999982454,349.6526921999757,None,349.6526921999757,None,349.6526921999757,350.65480130002834,349.6526921999757,350.65480130002834,349.6526921999757,350.65480130002834,349.6526921999757,350.65480130002834,349.6526921999757,350.1536639999831,349.6526921999757,350.1536639999831,349.6526921999757,350.1536639999831,349.6526921999757,350.1536639999831,349.6526921999757,None,,,,,12014,001,2024_Jun_20_1918,nback,2021.2.3,60.21890778600022,
1-back,instructions\back-1.png,conditions\12back-e.xlsx,,,experiment,1,1,stim\yellow.png,stim\gray.png,stim\gray.png,stim\gray.png,left,,,,,,,,,,,,,0,3,3,6,0,12,12,12,,,,,,,,,,,,,,,,,,,,,,,,,,,,,,,,,,,,,,,,,,,,,,,,,,,,,,,,None,0,,351.1551011999836,None,351.1551011999836,None,351.1551011999836,352.15667749999557,351.1551011999836,352.15667749999557,351.1551011999836,352.15667749999557,351.1551011999836,352.15667749999557,351.1551011999836,351.65588889998617,351.1551011999836,351.65588889998617,351.1551011999836,351.65588889998617,351.1551011999836,351.65588889998617,351.1551011999836,None,,,,,12014,001,2024_Jun_20_1918,nback,2021.2.3,60.21890778600022,
1-back,instructions\back-1.png,conditions\12back-e.xlsx,,,experiment,1,4,stim\gray.png,stim\gray.png,stim\gray.png,stim\yellow.png,up,,,,,,,,,,,,,0,3,3,6,0,13,13,13,,,,,,,,,,,,,,,,,,,,,,,,,,,,,,,,,,,,,,,,,,,,,,,,,,,,,,,,down,0,1.3756615999736823,352.65752559999237,None,352.65752559999237,None,352.65752559999237,353.65892800001893,352.65752559999237,353.65892800001893,352.65752559999237,353.65892800001893,352.65752559999237,353.65892800001893,352.65752559999237,353.15820609999355,352.65752559999237,353.15820609999355,352.65752559999237,353.15820609999355,352.65752559999237,353.15820609999355,352.65752559999237,None,,,,,12014,001,2024_Jun_20_1918,nback,2021.2.3,60.21890778600022,
1-back,instructions\back-1.png,conditions\12back-e.xlsx,,,experiment,1,1,stim\yellow.png,stim\gray.png,stim\gray.png,stim\gray.png,down,,,,,,,,,,,,,0,3,3,6,0,14,14,14,,,,,,,,,,,,,,,,,,,,,,,,,,,,,,,,,,,,,,,,,,,,,,,,,,,,,,,,None,0,,354.1596951999818,None,354.1596951999818,None,354.1596951999818,355.16107490001014,354.1596951999818,355.16107490001014,354.1596951999818,355.16107490001014,354.1596951999818,355.16107490001014,354.1596951999818,354.6603860000032,354.1596951999818,354.6603860000032,354.1596951999818,354.6603860000032,354.1596951999818,354.6603860000032,354.1596951999818,None,,,,,12014,001,2024_Jun_20_1918,nback,2021.2.3,60.21890778600022,
1-back,instructions\back-1.png,conditions\12back-e.xlsx,,,experiment,1,2,stim\gray.png,stim\yellow.png,stim\gray.png,stim\gray.png,up,,,,,,,,,,,,,0,3,3,6,0,15,15,15,,,,,,,,,,,,,,,,,,,,,,,,,,,,,,,,,,,,,,,,,,,,,,,,,,,,,,,,up,1,0.16444200003752485,355.6453092999873,None,355.6453092999873,None,355.6453092999873,356.64679079997586,355.6453092999873,356.64679079997586,355.6453092999873,356.64679079997586,355.6453092999873,356.64679079997586,355.6453092999873,356.1460151000065,355.6453092999873,356.1460151000065,355.6453092999873,356.1460151000065,355.6453092999873,356.1460151000065,355.6453092999873,None,,,,,12014,001,2024_Jun_20_1918,nback,2021.2.3,60.21890778600022,
1-back,instructions\back-1.png,conditions\12back-e.xlsx,,,experiment,1,1,stim\yellow.png,stim\gray.png,stim\gray.png,stim\gray.png,left,,,,,,,,,,,,,0,3,3,6,0,16,16,16,,,,,,,,,,,,,,,,,,,,,,,,,,,,,,,,,,,,,,,,,,,,,,,,,,,,,,,,up,0,1.3339849000331014,357.14754859998357,None,357.14754859998357,None,357.14754859998357,358.149087400001,357.14754859998357,358.149087400001,357.14754859998357,358.149087400001,357.14754859998357,358.149087400001,357.14754859998357,357.64831660001073,357.14754859998357,357.64831660001073,357.14754859998357,357.64831660001073,357.14754859998357,357.64831660001073,357.14754859998357,None,,,,,12014,001,2024_Jun_20_1918,nback,2021.2.3,60.21890778600022,
1-back,instructions\back-1.png,conditions\12back-e.xlsx,,,experiment,1,3,stim\gray.png,stim\gray.png,stim\yellow.png,stim\gray.png,up,,,,,,,,,,,,,0,3,3,6,0,17,17,17,,,,,,,,,,,,,,,,,,,,,,,,,,,,,,,,,,,,,,,,,,,,,,,,,,,,,,,,right,0,1.2875679999706335,358.64972970000235,None,358.64972970000235,None,358.64972970000235,359.6512883999967,358.64972970000235,359.6512883999967,358.64972970000235,359.6512883999967,358.64972970000235,359.6512883999967,358.64972970000235,359.15063160000136,358.64972970000235,359.15063160000136,358.64972970000235,359.15063160000136,358.64972970000235,359.15063160000136,358.64972970000235,None,,,,,12014,001,2024_Jun_20_1918,nback,2021.2.3,60.21890778600022,
