backseq,backinstr,backfile,instruction,size_in,Trialtype,back,number,P1,P2,P3,P4,corrAns,trials_practice.thisRepN,trials_practice.thisTrialN,trials_practice.thisN,trials_practice.thisIndex,trials.thisRepN,trials.thisTrialN,trials.thisN,trials.thisIndex,trials_3.thisRepN,trials_3.thisTrialN,trials_3.thisN,trials_3.thisIndex,trials_2.thisRepN,trials_2.thisTrialN,trials_2.thisN,trials_2.thisIndex,trials_4.thisRepN,trials_4.thisTrialN,trials_4.thisN,trials_4.thisIndex,image.started,image.stopped,image_2.started,image_2.stopped,key_resp.keys,key_resp.rt,key_resp.started,key_resp.stopped,image_3.started,image_3.stopped,key_resp_2.keys,key_resp_2.rt,key_resp_2.started,key_resp_2.stopped,image_4.started,image_4.stopped,text.started,text.stopped,H1.started,H1.stopped,H2.started,H2.stopped,H3.started,H3.stopped,H4.started,H4.stopped,key_resp_3.keys,key_resp_3.corr,key_resp_3.rt,key_resp_3.started,key_resp_3.stopped,text_4.started,text_4.stopped,F1.started,F1.stopped,F2.started,F2.stopped,F3.started,F3.stopped,F4.started,F4.stopped,image_7.started,image_7.stopped,text_5.started,text_5.stopped,key_resp_6.keys,key_resp_6.rt,key_resp_6.started,key_resp_6.stopped,image_5.started,image_5.stopped,key_resp_4.keys,key_resp_4.rt,key_resp_4.started,key_resp_4.stopped,key_resp_5.keys,key_resp_5.corr,key_resp_5.rt,key_resp_5.started,key_resp_5.stopped,text_3.started,text_3.stopped,H1_2.started,H1_2.stopped,H2_2.started,H2_2.stopped,H3_2.started,H3_2.stopped,H4_2.started,H4_2.stopped,F1_2.started,F1_2.stopped,F2_2.started,F2_2.stopped,F3_2.started,F3_2.stopped,F4_2.started,F4_2.stopped,image_8.started,image_8.stopped,text_2.started,text_2.stopped,image_6.started,image_6.stopped,participant,session,date,expName,psychopyVersion,frameRate,
,,,,,,,,,,,,,,,,,,,,,,,,,,,,,,,,,9.858019299979787,None,10.810314499976812,None,space,1.3296510000072885,10.810314499976812,None,,,,,,,,,,,,,,,,,,,,,,,,,,,,,,,,,,,,,,,,,,,,,,,,,,,,,,,,,,,,,,,,,,,,,,,,,,,,,12012,001,2024_Jun_18_1749,nback,2021.2.3,59.93536570834642,
0-back,instructions\back-0.png,conditions\0back-p.xlsx,instructions\0-BACK.png,"(15, 8)",practice,0,1,stim\yellow.png,stim\gray.png,stim\gray.png,stim\gray.png,up,0,0,0,0,0,0,0,0,0,0,0,0,,,,,,,,,,,,,,,,,12.193506099982187,None,space,2.6465548999840394,12.193506099982187,None,14.98114709998481,19.48857539999881,19.438901299989084,None,19.93916199999512,20.940755299990997,19.93916199999512,20.940755299990997,19.93916199999512,20.940755299990997,19.93916199999512,20.940755299990997,up,1,0.5334325000003446,19.93916199999512,None,19.93916199999512,None,19.93916199999512,20.439924199978122,19.93916199999512,20.439924199978122,19.93916199999512,20.439924199978122,19.93916199999512,20.439924199978122,19.93916199999512,None,,,,,,,,,,,,,,,,,,,,,,,,,,,,,,,,,,,,,,,,,,12012,001,2024_Jun_18_1749,nback,2021.2.3,59.93536570834642,
0-back,instructions\back-0.png,conditions\0back-p.xlsx,instructions\0-BACK.png,"(15, 8)",practice,0,2,stim\gray.png,stim\yellow.png,stim\gray.png,stim\gray.png,left,0,0,0,0,0,0,0,0,0,1,1,1,,,,,,,,,,,,,,,,,,,,,,,,,,,21.37489349997486,22.376179599988973,21.37489349997486,22.376179599988973,21.37489349997486,22.376179599988973,21.37489349997486,22.376179599988973,left,1,0.5695828000025358,21.37489349997486,None,21.37489349997486,None,21.37489349997486,21.875431699998444,21.37489349997486,21.875431699998444,21.37489349997486,21.875431699998444,21.37489349997486,21.875431699998444,21.37489349997486,None,,,,,,,,,,,,,,,,,,,,,,,,,,,,,,,,,,,,,,,,,,12012,001,2024_Jun_18_1749,nback,2021.2.3,59.93536570834642,
0-back,instructions\back-0.png,conditions\0back-p.xlsx,instructions\0-BACK.png,"(15, 8)",practice,0,3,stim\gray.png,stim\gray.png,stim\yellow.png,stim\gray.png,right,0,0,0,0,0,0,0,0,0,2,2,2,,,,,,,,,,,,,,,,,,,,,,,,,,,22.876949600002263,23.878373599989573,22.876949600002263,23.878373599989573,22.876949600002263,23.878373599989573,22.876949600002263,23.878373599989573,right,1,0.3157366999948863,22.876949600002263,None,22.876949600002263,None,22.876949600002263,23.378075599990552,22.876949600002263,23.378075599990552,22.876949600002263,23.378075599990552,22.876949600002263,23.378075599990552,22.876949600002263,None,,,,,,,,,,,,,,,,,,,,,,,,,,,,,,,,,,,,,,,,,,12012,001,2024_Jun_18_1749,nback,2021.2.3,59.93536570834642,
0-back,instructions\back-0.png,conditions\0back-p.xlsx,instructions\0-BACK.png,"(15, 8)",practice,0,4,stim\gray.png,stim\gray.png,stim\gray.png,stim\yellow.png,down,0,0,0,0,0,0,0,0,0,3,3,3,,,,,,,,,,,,,,,,,,,,,,,,,,,24.379141499986872,25.382233599986648,24.379141499986872,25.382233599986648,24.379141499986872,25.382233599986648,24.379141499986872,25.382233599986648,left,0,0.29377060002298094,24.379141499986872,None,24.379141499986872,None,24.379141499986872,24.880044999998063,24.379141499986872,24.880044999998063,24.379141499986872,24.880044999998063,24.379141499986872,24.880044999998063,24.379141499986872,None,,,,,,,,,,,,,,,,,,,,,,,,,,,,,,,,,,,,,,,,,,12012,001,2024_Jun_18_1749,nback,2021.2.3,59.93536570834642,
0-back,instructions\back-0.png,conditions\0back-p.xlsx,instructions\0-BACK.png,"(15, 8)",practice,0,2,stim\gray.png,stim\yellow.png,stim\gray.png,stim\gray.png,left,0,0,0,0,0,0,0,0,0,4,4,4,,,,,,,,,,,,,,,,,,,,,,,,,,,25.881377299985616,26.883094799995888,25.881377299985616,26.883094799995888,25.881377299985616,26.883094799995888,25.881377299985616,26.883094799995888,left,1,0.43128129999968223,25.881377299985616,None,25.881377299985616,None,25.881377299985616,26.38209800000186,25.881377299985616,26.38209800000186,25.881377299985616,26.38209800000186,25.881377299985616,26.38209800000186,25.881377299985616,None,,,,,,,,,,,,,,,,,,,,,,,,,,,,,,,,,,,,,,,,,,12012,001,2024_Jun_18_1749,nback,2021.2.3,59.93536570834642,
0-back,instructions\back-0.png,conditions\0back-p.xlsx,instructions\0-BACK.png,"(15, 8)",practice,0,1,stim\yellow.png,stim\gray.png,stim\gray.png,stim\gray.png,up,0,0,0,0,0,0,0,0,0,5,5,5,,,,,,,,,,,,,,,,,,,,,,,,,,,27.383756399998674,28.385206999984803,27.383756399998674,28.385206999984803,27.383756399998674,28.385206999984803,27.383756399998674,28.385206999984803,up,1,0.4175114000099711,27.383756399998674,None,27.383756399998674,None,27.383756399998674,27.884804599976633,27.383756399998674,27.884804599976633,27.383756399998674,27.884804599976633,27.383756399998674,27.884804599976633,27.383756399998674,None,,,,,,,,,,,,,,,,,,,,,,,,,,,,,,,,,,,,,,,,,,12012,001,2024_Jun_18_1749,nback,2021.2.3,59.93536570834642,
0-back,instructions\back-0.png,conditions\0back-p.xlsx,instructions\0-BACK.png,"(15, 8)",practice,0,4,stim\gray.png,stim\gray.png,stim\gray.png,stim\yellow.png,down,0,0,0,0,0,0,0,0,0,6,6,6,,,,,,,,,,,,,,,,,,,,,,,,,,,28.869262599997455,29.8708714999957,28.869262599997455,29.8708714999957,28.869262599997455,29.8708714999957,28.869262599997455,29.8708714999957,down,1,0.339677500014659,28.869262599997455,None,28.869262599997455,None,28.869262599997455,29.370239599986235,28.869262599997455,29.370239599986235,28.869262599997455,29.370239599986235,28.869262599997455,29.370239599986235,28.869262599997455,None,,,,,,,,,,,,,,,,,,,,,,,,,,,,,,,,,,,,,,,,,,12012,001,2024_Jun_18_1749,nback,2021.2.3,59.93536570834642,
0-back,instructions\back-0.png,conditions\0back-p.xlsx,instructions\0-BACK.png,"(15, 8)",practice,0,3,stim\gray.png,stim\gray.png,stim\yellow.png,stim\gray.png,right,0,0,0,0,0,0,0,0,0,7,7,7,,,,,,,,,,,,,,,,,,,,,,,,,,,30.37214839999797,31.373318899975857,30.37214839999797,31.373318899975857,30.37214839999797,31.373318899975857,30.37214839999797,31.373318899975857,right,1,0.34918290001223795,30.37214839999797,None,30.37214839999797,None,30.37214839999797,30.872275199973956,30.37214839999797,30.872275199973956,30.37214839999797,30.872275199973956,30.37214839999797,30.872275199973956,30.37214839999797,None,,,,,,,,,,,,,,,,,,,,,,,,,,,,,,,,,,,,,,,,,,12012,001,2024_Jun_18_1749,nback,2021.2.3,59.93536570834642,
0-back,instructions\back-0.png,conditions\0back-p.xlsx,instructions\0-BACK.png,"(15, 8)",practice,0,3,stim\gray.png,stim\gray.png,stim\yellow.png,stim\gray.png,right,0,0,0,0,0,0,0,0,0,8,8,8,,,,,,,,,,,,,,,,,,,,,,,,,,,31.875034799973946,32.87535509999725,31.875034799973946,32.87535509999725,31.875034799973946,32.87535509999725,31.875034799973946,32.87535509999725,right,1,0.4779172000125982,31.875034799973946,None,31.875034799973946,None,31.875034799973946,32.374646999989636,31.875034799973946,32.374646999989636,31.875034799973946,32.374646999989636,31.875034799973946,32.374646999989636,31.875034799973946,None,,,,,,,,,,,,,,,,,,,,,,,,,,,,,,,,,,,,,,,,,,12012,001,2024_Jun_18_1749,nback,2021.2.3,59.93536570834642,
0-back,instructions\back-0.png,conditions\0back-p.xlsx,instructions\0-BACK.png,"(15, 8)",practice,0,4,stim\gray.png,stim\gray.png,stim\gray.png,stim\yellow.png,down,0,0,0,0,0,0,0,0,0,9,9,9,,,,,,,,,,,,,,,,,,,,,,,,,,,33.376114499988034,34.37760049998178,33.376114499988034,34.37760049998178,33.376114499988034,34.37760049998178,33.376114499988034,34.37760049998178,down,1,0.40110710001317784,33.376114499988034,None,33.376114499988034,None,33.376114499988034,33.876883799995994,33.376114499988034,33.876883799995994,33.376114499988034,33.876883799995994,33.376114499988034,33.876883799995994,33.376114499988034,None,,,,,,,,,,,,,,,,,,,,,,,,,,,,,,,,,,,,,,,,,,12012,001,2024_Jun_18_1749,nback,2021.2.3,59.93536570834642,
0-back,instructions\back-0.png,conditions\0back-p.xlsx,instructions\0-BACK.png,"(15, 8)",practice,0,1,stim\yellow.png,stim\gray.png,stim\gray.png,stim\gray.png,up,0,0,0,0,0,0,0,0,0,10,10,10,,,,,,,,,,,,,,,,,,,,,,,,,,,34.87836829997832,35.87987589999102,34.87836829997832,35.87987589999102,34.87836829997832,35.87987589999102,34.87836829997832,35.87987589999102,up,1,0.370428099995479,34.87836829997832,None,34.87836829997832,None,34.87836829997832,35.37920589998248,34.87836829997832,35.37920589998248,34.87836829997832,35.37920589998248,34.87836829997832,35.37920589998248,34.87836829997832,None,,,,,,,,,,,,,,,,,,,,,,,,,,,,,,,,,,,,,,,,,,12012,001,2024_Jun_18_1749,nback,2021.2.3,59.93536570834642,
0-back,instructions\back-0.png,conditions\0back-p.xlsx,instructions\0-BACK.png,"(15, 8)",practice,0,2,stim\gray.png,stim\yellow.png,stim\gray.png,stim\gray.png,left,0,0,0,0,0,0,0,0,0,11,11,11,,,,,,,,,,,,,,,,,,,,,,,,,,,36.380710999976145,37.38201089997892,36.380710999976145,37.38201089997892,36.380710999976145,37.38201089997892,36.380710999976145,37.38201089997892,left,1,0.32453059998806566,36.380710999976145,None,36.380710999976145,None,36.380710999976145,36.88142939997488,36.380710999976145,36.88142939997488,36.380710999976145,36.88142939997488,36.380710999976145,36.88142939997488,36.380710999976145,None,,,,,,,,,,,,,,,,,,,,,,,,,,,,,,,,,,,,,,,,,,12012,001,2024_Jun_18_1749,nback,2021.2.3,59.93536570834642,
0-back,instructions\back-0.png,conditions\0back-p.xlsx,instructions\0-BACK.png,"(15, 8)",practice,0,4,stim\gray.png,stim\gray.png,stim\gray.png,stim\yellow.png,down,0,0,0,0,0,0,0,0,0,12,12,12,,,,,,,,,,,,,,,,,,,,,,,,,,,37.88302069998463,38.884997299988754,37.88302069998463,38.884997299988754,37.88302069998463,38.884997299988754,37.88302069998463,38.884997299988754,down,1,0.47059720000834204,37.88302069998463,None,37.88302069998463,None,37.88302069998463,38.38366419999511,37.88302069998463,38.38366419999511,37.88302069998463,38.38366419999511,37.88302069998463,38.38366419999511,37.88302069998463,None,,,,,,,,,,,,,,,,,,,,,,,,,,,,,,,,,,,,,,,,,,12012,001,2024_Jun_18_1749,nback,2021.2.3,59.93536570834642,
0-back,instructions\back-0.png,conditions\0back-p.xlsx,instructions\0-BACK.png,"(15, 8)",practice,0,3,stim\gray.png,stim\gray.png,stim\yellow.png,stim\gray.png,right,0,0,0,0,0,0,0,0,0,13,13,13,,,,,,,,,,,,,,,,,,,,,,,,,,,39.38535359999514,40.38669949999894,39.38535359999514,40.38669949999894,39.38535359999514,40.38669949999894,39.38535359999514,40.38669949999894,right,1,0.3118522000149824,39.38535359999514,None,39.38535359999514,None,39.38535359999514,39.88602599999285,39.38535359999514,39.88602599999285,39.38535359999514,39.88602599999285,39.38535359999514,39.88602599999285,39.38535359999514,None,,,,,,,,,,,,,,,,,,,,,,,,,,,,,,,,,,,,,,,,,,12012,001,2024_Jun_18_1749,nback,2021.2.3,59.93536570834642,
0-back,instructions\back-0.png,conditions\0back-p.xlsx,instructions\0-BACK.png,"(15, 8)",practice,0,1,stim\yellow.png,stim\gray.png,stim\gray.png,stim\gray.png,up,0,0,0,0,0,0,0,0,0,14,14,14,,,,,,,,,,,,,,,,,,,,,,,,,,,40.870630099991104,41.873579599981895,40.870630099991104,41.873579599981895,40.870630099991104,41.873579599981895,40.870630099991104,41.873579599981895,up,1,0.3383910999982618,40.870630099991104,None,40.870630099991104,None,40.870630099991104,41.37154389999341,40.870630099991104,41.37154389999341,40.870630099991104,41.37154389999341,40.870630099991104,41.37154389999341,40.870630099991104,None,,,,,,,,,,,,,,,,,,,,,,,,,,,,,,,,,,,,,,,,,,12012,001,2024_Jun_18_1749,nback,2021.2.3,59.93536570834642,
0-back,instructions\back-0.png,conditions\0back-p.xlsx,instructions\0-BACK.png,"(15, 8)",practice,0,2,stim\gray.png,stim\yellow.png,stim\gray.png,stim\gray.png,left,0,0,0,0,0,0,0,0,0,15,15,15,,,,,,,,,,,,,,,,,,,,,,,,,,,42.37286979999044,43.37461679999251,42.37286979999044,43.37461679999251,42.37286979999044,43.37461679999251,42.37286979999044,43.37461679999251,left,1,0.372545500023989,42.37286979999044,None,42.37286979999044,None,42.37286979999044,42.87368299998343,42.37286979999044,42.87368299998343,42.37286979999044,42.87368299998343,42.37286979999044,42.87368299998343,42.37286979999044,None,,,,,,,,,,,,,,,,,,,,,,,,,,,,,,,,,,,,,,,,,,12012,001,2024_Jun_18_1749,nback,2021.2.3,59.93536570834642,
0-back,instructions\back-0.png,conditions\0back-p.xlsx,instructions\0-BACK.png,"(15, 8)",practice,0,3,stim\gray.png,stim\gray.png,stim\yellow.png,stim\gray.png,right,0,0,0,0,0,0,0,0,0,16,16,16,,,,,,,,,,,,,,,,,,,,,,,,,,,43.87555450000218,44.87665079999715,43.87555450000218,44.87665079999715,43.87555450000218,44.87665079999715,43.87555450000218,44.87665079999715,right,1,0.3498896000091918,43.87555450000218,None,43.87555450000218,None,43.87555450000218,44.37600589997601,43.87555450000218,44.37600589997601,43.87555450000218,44.37600589997601,43.87555450000218,44.37600589997601,43.87555450000218,None,,,,,,,,,,,,,,,,,,,,,,,,,,,,,,,,,,,,,,,,,,12012,001,2024_Jun_18_1749,nback,2021.2.3,59.93536570834642,
0-back,instructions\back-0.png,conditions\0back-p.xlsx,instructions\0-BACK.png,"(15, 8)",practice,0,1,stim\yellow.png,stim\gray.png,stim\gray.png,stim\gray.png,up,0,0,0,0,0,0,0,0,0,17,17,17,,,,,,,,,,,,,,,,,,,,,,,,,,,45.37750119998236,46.37896199998795,45.37750119998236,46.37896199998795,45.37750119998236,46.37896199998795,45.37750119998236,46.37896199998795,up,1,0.3437763000256382,45.37750119998236,None,45.37750119998236,None,45.37750119998236,45.87835789998644,45.37750119998236,45.87835789998644,45.37750119998236,45.87835789998644,45.37750119998236,45.87835789998644,45.37750119998236,None,,,,,,,,,,,,,,,,,,,,,,,,,,,,,,,,,,,,,,,,,,12012,001,2024_Jun_18_1749,nback,2021.2.3,59.93536570834642,
0-back,instructions\back-0.png,conditions\0back-p.xlsx,instructions\0-BACK.png,"(15, 8)",practice,0,4,stim\gray.png,stim\gray.png,stim\gray.png,stim\yellow.png,down,0,0,0,0,0,0,0,0,0,18,18,18,,,,,,,,,,,,,,,,,,,,,,,,,,,46.879876199993305,47.88135329997749,46.879876199993305,47.88135329997749,46.879876199993305,47.88135329997749,46.879876199993305,47.88135329997749,down,1,0.3215558999800123,46.879876199993305,None,46.879876199993305,None,46.879876199993305,47.38068959998782,46.879876199993305,47.38068959998782,46.879876199993305,47.38068959998782,46.879876199993305,47.38068959998782,46.879876199993305,None,,,,,,,,,,,,,,,,,,,,,,,,,,,,,,,,,,,,,,,,,,12012,001,2024_Jun_18_1749,nback,2021.2.3,59.93536570834642,
0-back,instructions\back-0.png,conditions\0back-p.xlsx,instructions\0-BACK.png,"(15, 8)",practice,0,2,stim\gray.png,stim\yellow.png,stim\gray.png,stim\gray.png,left,0,0,0,0,0,0,0,0,0,19,19,19,,,,,,,,,,,,,,,,,,,,,,,,,,,48.382183799985796,49.38429379998706,48.382183799985796,49.38429379998706,48.382183799985796,49.38429379998706,48.382183799985796,49.38429379998706,left,1,0.29113650001818314,48.382183799985796,None,48.382183799985796,None,48.382183799985796,48.88301029999275,48.382183799985796,48.88301029999275,48.382183799985796,48.88301029999275,48.382183799985796,48.88301029999275,48.382183799985796,None,,,,,,,,,,,,,,,,,,,,,,,,,,,,,,,,,,,,,,,,,,12012,001,2024_Jun_18_1749,nback,2021.2.3,59.93536570834642,
0-back,instructions\back-0.png,conditions\0back-p.xlsx,instructions\0-BACK.png,"(15, 8)",,,,,,,,,0,0,0,0,0,0,0,0,,,,,,,,,,,,,,,,,,,,,,,,,,,,,,,,,,,,,,,,,,,,,,,,,,,,,,,,,,,,,,,,,,,,,,,,,,,,,,,,,,,,,,,,,,,,,,,,,12012,001,2024_Jun_18_1749,nback,2021.2.3,59.93536570834642,
1-back,instructions\back-1.png,conditions\1back-p.xlsx,instructions\1-BACK.png,"(25, 15)",practice,1,1,stim\yellow.png,stim\gray.png,stim\gray.png,stim\gray.png,None,0,0,0,0,0,1,1,1,0,0,0,0,,,,,,,,,,,,,,,,,50.0015106999781,None,space,5.395834599999944,50.0015106999781,None,55.527856300002895,60.034231600002386,59.99972279998474,None,60.45155279999017,61.4522103999916,60.45155279999017,61.4522103999916,60.45155279999017,61.4522103999916,60.45155279999017,61.4522103999916,None,1,,60.45155279999017,None,60.45155279999017,None,60.45155279999017,60.9509579000005,60.45155279999017,60.9509579000005,60.45155279999017,60.9509579000005,60.45155279999017,60.9509579000005,60.45155279999017,None,,,,,,,,,,,,,,,,,,,,,,,,,,,,,,,,,,,,,,,,,,12012,001,2024_Jun_18_1749,nback,2021.2.3,59.93536570834642,
1-back,instructions\back-1.png,conditions\1back-p.xlsx,instructions\1-BACK.png,"(25, 15)",practice,1,2,stim\gray.png,stim\yellow.png,stim\gray.png,stim\gray.png,up,0,0,0,0,0,1,1,1,0,1,1,1,,,,,,,,,,,,,,,,,,,,,,,,,,,61.935989699995844,62.937475999991875,61.935989699995844,62.937475999991875,61.935989699995844,62.937475999991875,61.935989699995844,62.937475999991875,up,1,0.41792700000223704,61.935989699995844,None,61.935989699995844,None,61.935989699995844,62.4372924999916,61.935989699995844,62.4372924999916,61.935989699995844,62.4372924999916,61.935989699995844,62.4372924999916,61.935989699995844,None,,,,,,,,,,,,,,,,,,,,,,,,,,,,,,,,,,,,,,,,,,12012,001,2024_Jun_18_1749,nback,2021.2.3,59.93536570834642,
1-back,instructions\back-1.png,conditions\1back-p.xlsx,instructions\1-BACK.png,"(25, 15)",practice,1,3,stim\gray.png,stim\gray.png,stim\yellow.png,stim\gray.png,left,0,0,0,0,0,1,1,1,0,2,2,2,,,,,,,,,,,,,,,,,,,,,,,,,,,63.43799089998356,64.43960039998638,63.43799089998356,64.43960039998638,63.43799089998356,64.43960039998638,63.43799089998356,64.43960039998638,left,1,0.4597496000060346,63.43799089998356,None,63.43799089998356,None,63.43799089998356,63.938886499992805,63.43799089998356,63.938886499992805,63.43799089998356,63.938886499992805,63.43799089998356,63.938886499992805,63.43799089998356,None,,,,,,,,,,,,,,,,,,,,,,,,,,,,,,,,,,,,,,,,,,12012,001,2024_Jun_18_1749,nback,2021.2.3,59.93536570834642,
1-back,instructions\back-1.png,conditions\1back-p.xlsx,instructions\1-BACK.png,"(25, 15)",practice,1,4,stim\gray.png,stim\gray.png,stim\gray.png,stim\yellow.png,right,0,0,0,0,0,1,1,1,0,3,3,3,,,,,,,,,,,,,,,,,,,,,,,,,,,64.94027229998028,65.94180439997581,64.94027229998028,65.94180439997581,64.94027229998028,65.94180439997581,64.94027229998028,65.94180439997581,right,1,0.46947600002749823,64.94027229998028,None,64.94027229998028,None,64.94027229998028,65.442049699981,64.94027229998028,65.442049699981,64.94027229998028,65.442049699981,64.94027229998028,65.442049699981,64.94027229998028,None,,,,,,,,,,,,,,,,,,,,,,,,,,,,,,,,,,,,,,,,,,12012,001,2024_Jun_18_1749,nback,2021.2.3,59.93536570834642,
1-back,instructions\back-1.png,conditions\1back-p.xlsx,instructions\1-BACK.png,"(25, 15)",practice,1,2,stim\gray.png,stim\yellow.png,stim\gray.png,stim\gray.png,down,0,0,0,0,0,1,1,1,0,4,4,4,,,,,,,,,,,,,,,,,,,,,,,,,,,66.44252689997666,67.44423069999903,66.44252689997666,67.44423069999903,66.44252689997666,67.44423069999903,66.44252689997666,67.44423069999903,down,1,0.2952485000132583,66.44252689997666,None,66.44252689997666,None,66.44252689997666,66.94327729998622,66.44252689997666,66.94327729998622,66.44252689997666,66.94327729998622,66.44252689997666,66.94327729998622,66.44252689997666,None,,,,,,,,,,,,,,,,,,,,,,,,,,,,,,,,,,,,,,,,,,12012,001,2024_Jun_18_1749,nback,2021.2.3,59.93536570834642,
1-back,instructions\back-1.png,conditions\1back-p.xlsx,instructions\1-BACK.png,"(25, 15)",practice,1,1,stim\yellow.png,stim\gray.png,stim\gray.png,stim\gray.png,left,0,0,0,0,0,1,1,1,0,5,5,5,,,,,,,,,,,,,,,,,,,,,,,,,,,67.94500109998626,68.94705029999022,67.94500109998626,68.94705029999022,67.94500109998626,68.94705029999022,67.94500109998626,68.94705029999022,left,1,0.3928756999957841,67.94500109998626,None,67.94500109998626,None,67.94500109998626,68.44569989998126,67.94500109998626,68.44569989998126,67.94500109998626,68.44569989998126,67.94500109998626,68.44569989998126,67.94500109998626,None,,,,,,,,,,,,,,,,,,,,,,,,,,,,,,,,,,,,,,,,,,12012,001,2024_Jun_18_1749,nback,2021.2.3,59.93536570834642,
1-back,instructions\back-1.png,conditions\1back-p.xlsx,instructions\1-BACK.png,"(25, 15)",practice,1,4,stim\gray.png,stim\gray.png,stim\gray.png,stim\yellow.png,up,0,0,0,0,0,1,1,1,0,6,6,6,,,,,,,,,,,,,,,,,,,,,,,,,,,69.43057899997802,70.43189819998224,69.43057899997802,70.43189819998224,69.43057899997802,70.43189819998224,69.43057899997802,70.43189819998224,up,1,0.2913882000138983,69.43057899997802,None,69.43057899997802,None,69.43057899997802,69.93123429999105,69.43057899997802,69.93123429999105,69.43057899997802,69.93123429999105,69.43057899997802,69.93123429999105,69.43057899997802,None,,,,,,,,,,,,,,,,,,,,,,,,,,,,,,,,,,,,,,,,,,12012,001,2024_Jun_18_1749,nback,2021.2.3,59.93536570834642,
1-back,instructions\back-1.png,conditions\1back-p.xlsx,instructions\1-BACK.png,"(25, 15)",practice,1,3,stim\gray.png,stim\gray.png,stim\yellow.png,stim\gray.png,down,0,0,0,0,0,1,1,1,0,7,7,7,,,,,,,,,,,,,,,,,,,,,,,,,,,70.932676299999,71.93416639999487,70.932676299999,71.93416639999487,70.932676299999,71.93416639999487,70.932676299999,71.93416639999487,down,1,0.23746940001728944,70.932676299999,None,70.932676299999,None,70.932676299999,71.43356700000004,70.932676299999,71.43356700000004,70.932676299999,71.43356700000004,70.932676299999,71.43356700000004,70.932676299999,None,,,,,,,,,,,,,,,,,,,,,,,,,,,,,,,,,,,,,,,,,,12012,001,2024_Jun_18_1749,nback,2021.2.3,59.93536570834642,
1-back,instructions\back-1.png,conditions\1back-p.xlsx,instructions\1-BACK.png,"(25, 15)",practice,1,3,stim\gray.png,stim\gray.png,stim\yellow.png,stim\gray.png,right,0,0,0,0,0,1,1,1,0,8,8,8,,,,,,,,,,,,,,,,,,,,,,,,,,,72.4348822000029,73.43647359998431,72.4348822000029,73.43647359998431,72.4348822000029,73.43647359998431,72.4348822000029,73.43647359998431,right,1,0.3911946000007447,72.4348822000029,None,72.4348822000029,None,72.4348822000029,72.93569439998828,72.4348822000029,72.93569439998828,72.4348822000029,72.93569439998828,72.4348822000029,72.93569439998828,72.4348822000029,None,,,,,,,,,,,,,,,,,,,,,,,,,,,,,,,,,,,,,,,,,,12012,001,2024_Jun_18_1749,nback,2021.2.3,59.93536570834642,
1-back,instructions\back-1.png,conditions\1back-p.xlsx,instructions\1-BACK.png,"(25, 15)",practice,1,4,stim\gray.png,stim\gray.png,stim\gray.png,stim\yellow.png,right,0,0,0,0,0,1,1,1,0,9,9,9,,,,,,,,,,,,,,,,,,,,,,,,,,,73.9373832999845,74.93890239999746,73.9373832999845,74.93890239999746,73.9373832999845,74.93890239999746,73.9373832999845,74.93890239999746,right,1,0.37673479999648407,73.9373832999845,None,73.9373832999845,None,73.9373832999845,74.43887549999636,73.9373832999845,74.43887549999636,73.9373832999845,74.43887549999636,73.9373832999845,74.43887549999636,73.9373832999845,None,,,,,,,,,,,,,,,,,,,,,,,,,,,,,,,,,,,,,,,,,,12012,001,2024_Jun_18_1749,nback,2021.2.3,59.93536570834642,
1-back,instructions\back-1.png,conditions\1back-p.xlsx,instructions\1-BACK.png,"(25, 15)",practice,1,1,stim\yellow.png,stim\gray.png,stim\gray.png,stim\gray.png,down,0,0,0,0,0,1,1,1,0,10,10,10,,,,,,,,,,,,,,,,,,,,,,,,,,,75.43988099999842,76.44113419999485,75.43988099999842,76.44113419999485,75.43988099999842,76.44113419999485,75.43988099999842,76.44113419999485,down,1,0.026164300012169406,75.43988099999842,None,75.43988099999842,None,75.43988099999842,75.94031299999915,75.43988099999842,75.94031299999915,75.43988099999842,75.94031299999915,75.43988099999842,75.94031299999915,75.43988099999842,None,,,,,,,,,,,,,,,,,,,,,,,,,,,,,,,,,,,,,,,,,,12012,001,2024_Jun_18_1749,nback,2021.2.3,59.93536570834642,
1-back,instructions\back-1.png,conditions\1back-p.xlsx,instructions\1-BACK.png,"(25, 15)",practice,1,2,stim\gray.png,stim\yellow.png,stim\gray.png,stim\gray.png,up,0,0,0,0,0,1,1,1,0,11,11,11,,,,,,,,,,,,,,,,,,,,,,,,,,,76.94229209999321,77.94315769997775,76.94229209999321,77.94315769997775,76.94229209999321,77.94315769997775,76.94229209999321,77.94315769997775,up,1,0.356131100008497,76.94229209999321,None,76.94229209999321,None,76.94229209999321,77.4424250999873,76.94229209999321,77.4424250999873,76.94229209999321,77.4424250999873,76.94229209999321,77.4424250999873,76.94229209999321,None,,,,,,,,,,,,,,,,,,,,,,,,,,,,,,,,,,,,,,,,,,12012,001,2024_Jun_18_1749,nback,2021.2.3,59.93536570834642,
1-back,instructions\back-1.png,conditions\1back-p.xlsx,instructions\1-BACK.png,"(25, 15)",practice,1,4,stim\gray.png,stim\gray.png,stim\gray.png,stim\yellow.png,left,0,0,0,0,0,1,1,1,0,12,12,12,,,,,,,,,,,,,,,,,,,,,,,,,,,78.4441996999958,79.44561569998041,78.4441996999958,79.44561569998041,78.4441996999958,79.44561569998041,78.4441996999958,79.44561569998041,left,1,0.3502361999999266,78.4441996999958,None,78.4441996999958,None,78.4441996999958,78.94474789997912,78.4441996999958,78.94474789997912,78.4441996999958,78.94474789997912,78.4441996999958,78.94474789997912,78.4441996999958,None,,,,,,,,,,,,,,,,,,,,,,,,,,,,,,,,,,,,,,,,,,12012,001,2024_Jun_18_1749,nback,2021.2.3,59.93536570834642,
1-back,instructions\back-1.png,conditions\1back-p.xlsx,instructions\1-BACK.png,"(25, 15)",practice,1,3,stim\gray.png,stim\gray.png,stim\yellow.png,stim\gray.png,down,0,0,0,0,0,1,1,1,0,13,13,13,,,,,,,,,,,,,,,,,,,,,,,,,,,79.92970219999552,80.93135719999555,79.92970219999552,80.93135719999555,79.92970219999552,80.93135719999555,79.92970219999552,80.93135719999555,down,1,0.3525227999780327,79.92970219999552,None,79.92970219999552,None,79.92970219999552,80.43045769998571,79.92970219999552,80.43045769998571,79.92970219999552,80.43045769998571,79.92970219999552,80.43045769998571,79.92970219999552,None,,,,,,,,,,,,,,,,,,,,,,,,,,,,,,,,,,,,,,,,,,12012,001,2024_Jun_18_1749,nback,2021.2.3,59.93536570834642,
1-back,instructions\back-1.png,conditions\1back-p.xlsx,instructions\1-BACK.png,"(25, 15)",practice,1,1,stim\yellow.png,stim\gray.png,stim\gray.png,stim\gray.png,right,0,0,0,0,0,1,1,1,0,14,14,14,,,,,,,,,,,,,,,,,,,,,,,,,,,81.431983699993,82.43437899998389,81.431983699993,82.43437899998389,81.431983699993,82.43437899998389,81.431983699993,82.43437899998389,right,1,0.3225986000034027,81.431983699993,None,81.431983699993,None,81.431983699993,81.93248319998384,81.431983699993,81.93248319998384,81.431983699993,81.93248319998384,81.431983699993,81.93248319998384,81.431983699993,None,,,,,,,,,,,,,,,,,,,,,,,,,,,,,,,,,,,,,,,,,,12012,001,2024_Jun_18_1749,nback,2021.2.3,59.93536570834642,
1-back,instructions\back-1.png,conditions\1back-p.xlsx,instructions\1-BACK.png,"(25, 15)",practice,1,2,stim\gray.png,stim\yellow.png,stim\gray.png,stim\gray.png,up,0,0,0,0,0,1,1,1,0,15,15,15,,,,,,,,,,,,,,,,,,,,,,,,,,,82.93447609999566,83.93573939998168,82.93447609999566,83.93573939998168,82.93447609999566,83.93573939998168,82.93447609999566,83.93573939998168,up,1,0.3159661999961827,82.93447609999566,None,82.93447609999566,None,82.93447609999566,83.43549419997726,82.93447609999566,83.43549419997726,82.93447609999566,83.43549419997726,82.93447609999566,83.43549419997726,82.93447609999566,None,,,,,,,,,,,,,,,,,,,,,,,,,,,,,,,,,,,,,,,,,,12012,001,2024_Jun_18_1749,nback,2021.2.3,59.93536570834642,
1-back,instructions\back-1.png,conditions\1back-p.xlsx,instructions\1-BACK.png,"(25, 15)",practice,1,3,stim\gray.png,stim\gray.png,stim\yellow.png,stim\gray.png,left,0,0,0,0,0,1,1,1,0,16,16,16,,,,,,,,,,,,,,,,,,,,,,,,,,,84.43640449998202,85.43819529999746,84.43640449998202,85.43819529999746,84.43640449998202,85.43819529999746,84.43640449998202,85.43819529999746,left,1,0.3099745000072289,84.43640449998202,None,84.43640449998202,None,84.43640449998202,84.93765529998927,84.43640449998202,84.93765529998927,84.43640449998202,84.93765529998927,84.43640449998202,84.93765529998927,84.43640449998202,None,,,,,,,,,,,,,,,,,,,,,,,,,,,,,,,,,,,,,,,,,,12012,001,2024_Jun_18_1749,nback,2021.2.3,59.93536570834642,
1-back,instructions\back-1.png,conditions\1back-p.xlsx,instructions\1-BACK.png,"(25, 15)",practice,1,1,stim\yellow.png,stim\gray.png,stim\gray.png,stim\gray.png,right,0,0,0,0,0,1,1,1,0,17,17,17,,,,,,,,,,,,,,,,,,,,,,,,,,,85.93873739999253,86.94054669997422,85.93873739999253,86.94054669997422,85.93873739999253,86.94054669997422,85.93873739999253,86.94054669997422,right,1,0.27165000000968575,85.93873739999253,None,85.93873739999253,None,85.93873739999253,86.43941779999295,85.93873739999253,86.43941779999295,85.93873739999253,86.43941779999295,85.93873739999253,86.43941779999295,85.93873739999253,None,,,,,,,,,,,,,,,,,,,,,,,,,,,,,,,,,,,,,,,,,,12012,001,2024_Jun_18_1749,nback,2021.2.3,59.93536570834642,
1-back,instructions\back-1.png,conditions\1back-p.xlsx,instructions\1-BACK.png,"(25, 15)",practice,1,4,stim\gray.png,stim\gray.png,stim\gray.png,stim\yellow.png,up,0,0,0,0,0,1,1,1,0,18,18,18,,,,,,,,,,,,,,,,,,,,,,,,,,,87.4410910999868,88.44250929998816,87.4410910999868,88.44250929998816,87.4410910999868,88.44250929998816,87.4410910999868,88.44250929998816,None,0,,87.4410910999868,None,87.4410910999868,None,87.4410910999868,87.94181910000043,87.4410910999868,87.94181910000043,87.4410910999868,87.94181910000043,87.4410910999868,87.94181910000043,87.4410910999868,None,,,,,,,,,,,,,,,,,,,,,,,,,,,,,,,,,,,,,,,,,,12012,001,2024_Jun_18_1749,nback,2021.2.3,59.93536570834642,
1-back,instructions\back-1.png,conditions\1back-p.xlsx,instructions\1-BACK.png,"(25, 15)",practice,1,2,stim\gray.png,stim\yellow.png,stim\gray.png,stim\gray.png,down,0,0,0,0,0,1,1,1,0,19,19,19,,,,,,,,,,,,,,,,,,,,,,,,,,,88.94313410000177,89.94539149999036,88.94313410000177,89.94539149999036,88.94313410000177,89.94539149999036,88.94313410000177,89.94539149999036,down,1,0.21183869999367744,88.94313410000177,None,88.94313410000177,None,88.94313410000177,89.44395099999383,88.94313410000177,89.44395099999383,88.94313410000177,89.44395099999383,88.94313410000177,89.44395099999383,88.94313410000177,None,,,,,,,,,,,,,,,,,,,,,,,,,,,,,,,,,,,,,,,,,,12012,001,2024_Jun_18_1749,nback,2021.2.3,59.93536570834642,
1-back,instructions\back-1.png,conditions\1back-p.xlsx,instructions\1-BACK.png,"(25, 15)",,,,,,,,,0,0,0,0,0,1,1,1,,,,,,,,,,,,,,,,,,,,,,,,,,,,,,,,,,,,,,,,,,,,,,,,,,,,,,,,,,,,,,,,,,,,,,,,,,,,,,,,,,,,,,,,,,,,,,,,,12012,001,2024_Jun_18_1749,nback,2021.2.3,59.93536570834642,
2-back,instructions\back-2.png,conditions\2back-p.xlsx,instructions\2-BACK.png,"(25, 15)",practice,2,1,stim\yellow.png,stim\gray.png,stim\gray.png,stim\gray.png,None,0,0,0,0,0,2,2,2,0,0,0,0,,,,,,,,,,,,,,,,,90.57883559999755,None,space,2.5864709000161383,90.57883559999755,None,93.31642779998947,97.82450570000219,97.77324549999321,None,98.20787719998043,99.20858749997569,98.20787719998043,99.20858749997569,98.20787719998043,99.20858749997569,98.20787719998043,99.20858749997569,None,1,,98.20787719998043,None,98.20787719998043,None,98.20787719998043,98.70800709998002,98.20787719998043,98.70800709998002,98.20787719998043,98.70800709998002,98.20787719998043,98.70800709998002,98.20787719998043,None,,,,,,,,,,,,,,,,,,,,,,,,,,,,,,,,,,,,,,,,,,12012,001,2024_Jun_18_1749,nback,2021.2.3,59.93536570834642,
2-back,instructions\back-2.png,conditions\2back-p.xlsx,instructions\2-BACK.png,"(25, 15)",practice,2,2,stim\gray.png,stim\yellow.png,stim\gray.png,stim\gray.png,None,0,0,0,0,0,2,2,2,0,1,1,1,,,,,,,,,,,,,,,,,,,,,,,,,,,99.69335590000264,100.69431579997763,99.69335590000264,100.69431579997763,99.69335590000264,100.69431579997763,99.69335590000264,100.69431579997763,None,1,,99.69335590000264,None,99.69335590000264,None,99.69335590000264,100.19376109997393,99.69335590000264,100.19376109997393,99.69335590000264,100.19376109997393,99.69335590000264,100.19376109997393,99.69335590000264,None,,,,,,,,,,,,,,,,,,,,,,,,,,,,,,,,,,,,,,,,,,12012,001,2024_Jun_18_1749,nback,2021.2.3,59.93536570834642,
2-back,instructions\back-2.png,conditions\2back-p.xlsx,instructions\2-BACK.png,"(25, 15)",practice,2,3,stim\gray.png,stim\gray.png,stim\yellow.png,stim\gray.png,up,0,0,0,0,0,2,2,2,0,2,2,2,,,,,,,,,,,,,,,,,,,,,,,,,,,101.19491629998083,102.1965711999801,101.19491629998083,102.1965711999801,101.19491629998083,102.1965711999801,101.19491629998083,102.1965711999801,up,1,0.264109500014456,101.19491629998083,None,101.19491629998083,None,101.19491629998083,101.69581419997849,101.19491629998083,101.69581419997849,101.19491629998083,101.69581419997849,101.19491629998083,101.69581419997849,101.19491629998083,None,,,,,,,,,,,,,,,,,,,,,,,,,,,,,,,,,,,,,,,,,,12012,001,2024_Jun_18_1749,nback,2021.2.3,59.93536570834642,
2-back,instructions\back-2.png,conditions\2back-p.xlsx,instructions\2-BACK.png,"(25, 15)",practice,2,4,stim\gray.png,stim\gray.png,stim\gray.png,stim\yellow.png,left,0,0,0,0,0,2,2,2,0,3,3,3,,,,,,,,,,,,,,,,,,,,,,,,,,,102.69730899998103,103.69887860000017,102.69730899998103,103.69887860000017,102.69730899998103,103.69887860000017,102.69730899998103,103.69887860000017,left,1,0.2978616000036709,102.69730899998103,None,102.69730899998103,None,102.69730899998103,103.19834360000095,102.69730899998103,103.19834360000095,102.69730899998103,103.19834360000095,102.69730899998103,103.19834360000095,102.69730899998103,None,,,,,,,,,,,,,,,,,,,,,,,,,,,,,,,,,,,,,,,,,,12012,001,2024_Jun_18_1749,nback,2021.2.3,59.93536570834642,
2-back,instructions\back-2.png,conditions\2back-p.xlsx,instructions\2-BACK.png,"(25, 15)",practice,2,2,stim\gray.png,stim\yellow.png,stim\gray.png,stim\gray.png,right,0,0,0,0,0,2,2,2,0,4,4,4,,,,,,,,,,,,,,,,,,,,,,,,,,,104.19945539999753,105.20160999998916,104.19945539999753,105.20160999998916,104.19945539999753,105.20160999998916,104.19945539999753,105.20160999998916,right,1,0.2998917000077199,104.19945539999753,None,104.19945539999753,None,104.19945539999753,104.70026939999661,104.19945539999753,104.70026939999661,104.19945539999753,104.70026939999661,104.19945539999753,104.70026939999661,104.19945539999753,None,,,,,,,,,,,,,,,,,,,,,,,,,,,,,,,,,,,,,,,,,,12012,001,2024_Jun_18_1749,nback,2021.2.3,59.93536570834642,
2-back,instructions\back-2.png,conditions\2back-p.xlsx,instructions\2-BACK.png,"(25, 15)",practice,2,1,stim\yellow.png,stim\gray.png,stim\gray.png,stim\gray.png,down,0,0,0,0,0,2,2,2,0,5,5,5,,,,,,,,,,,,,,,,,,,,,,,,,,,105.68555939997896,106.68698820000282,105.68555939997896,106.68698820000282,105.68555939997896,106.68698820000282,105.68555939997896,106.68698820000282,down,1,0.24536770000122488,105.68555939997896,None,105.68555939997896,None,105.68555939997896,106.1860448999796,105.68555939997896,106.1860448999796,105.68555939997896,106.1860448999796,105.68555939997896,106.1860448999796,105.68555939997896,None,,,,,,,,,,,,,,,,,,,,,,,,,,,,,,,,,,,,,,,,,,12012,001,2024_Jun_18_1749,nback,2021.2.3,59.93536570834642,
2-back,instructions\back-2.png,conditions\2back-p.xlsx,instructions\2-BACK.png,"(25, 15)",practice,2,4,stim\gray.png,stim\gray.png,stim\gray.png,stim\yellow.png,left,0,0,0,0,0,2,2,2,0,6,6,6,,,,,,,,,,,,,,,,,,,,,,,,,,,107.1874542000005,108.18900259997463,107.1874542000005,108.18900259997463,107.1874542000005,108.18900259997463,107.1874542000005,108.18900259997463,left,1,0.27946829999564216,107.1874542000005,None,107.1874542000005,None,107.1874542000005,107.68833239999367,107.1874542000005,107.68833239999367,107.1874542000005,107.68833239999367,107.1874542000005,107.68833239999367,107.1874542000005,None,,,,,,,,,,,,,,,,,,,,,,,,,,,,,,,,,,,,,,,,,,12012,001,2024_Jun_18_1749,nback,2021.2.3,59.93536570834642,
2-back,instructions\back-2.png,conditions\2back-p.xlsx,instructions\2-BACK.png,"(25, 15)",practice,2,3,stim\gray.png,stim\gray.png,stim\yellow.png,stim\gray.png,up,0,0,0,0,0,2,2,2,0,7,7,7,,,,,,,,,,,,,,,,,,,,,,,,,,,108.68975409999257,109.69132439998793,108.68975409999257,109.69132439998793,108.68975409999257,109.69132439998793,108.68975409999257,109.69132439998793,up,1,0.22523739997996017,108.68975409999257,None,108.68975409999257,None,108.68975409999257,109.19038259997615,108.68975409999257,109.19038259997615,108.68975409999257,109.19038259997615,108.68975409999257,109.19038259997615,108.68975409999257,None,,,,,,,,,,,,,,,,,,,,,,,,,,,,,,,,,,,,,,,,,,12012,001,2024_Jun_18_1749,nback,2021.2.3,59.93536570834642,
2-back,instructions\back-2.png,conditions\2back-p.xlsx,instructions\2-BACK.png,"(25, 15)",practice,2,3,stim\gray.png,stim\gray.png,stim\yellow.png,stim\gray.png,down,0,0,0,0,0,2,2,2,0,8,8,8,,,,,,,,,,,,,,,,,,,,,,,,,,,110.19203199999174,111.19347059997381,110.19203199999174,111.19347059997381,110.19203199999174,111.19347059997381,110.19203199999174,111.19347059997381,down,1,0.24302389999502338,110.19203199999174,None,110.19203199999174,None,110.19203199999174,110.69310899998527,110.19203199999174,110.69310899998527,110.19203199999174,110.69310899998527,110.19203199999174,110.69310899998527,110.19203199999174,None,,,,,,,,,,,,,,,,,,,,,,,,,,,,,,,,,,,,,,,,,,12012,001,2024_Jun_18_1749,nback,2021.2.3,59.93536570834642,
2-back,instructions\back-2.png,conditions\2back-p.xlsx,instructions\2-BACK.png,"(25, 15)",practice,2,4,stim\gray.png,stim\gray.png,stim\gray.png,stim\yellow.png,right,0,0,0,0,0,2,2,2,0,9,9,9,,,,,,,,,,,,,,,,,,,,,,,,,,,111.69419999999809,112.69630209999741,111.69419999999809,112.69630209999741,111.69419999999809,112.69630209999741,111.69419999999809,112.69630209999741,right,1,0.21284719998948276,111.69419999999809,None,111.69419999999809,None,111.69419999999809,112.19484699997702,111.69419999999809,112.19484699997702,111.69419999999809,112.19484699997702,111.69419999999809,112.19484699997702,111.69419999999809,None,,,,,,,,,,,,,,,,,,,,,,,,,,,,,,,,,,,,,,,,,,12012,001,2024_Jun_18_1749,nback,2021.2.3,59.93536570834642,
2-back,instructions\back-2.png,conditions\2back-p.xlsx,instructions\2-BACK.png,"(25, 15)",practice,2,1,stim\yellow.png,stim\gray.png,stim\gray.png,stim\gray.png,right,0,0,0,0,0,2,2,2,0,10,10,10,,,,,,,,,,,,,,,,,,,,,,,,,,,113.19649879998178,114.19936169998255,113.19649879998178,114.19936169998255,113.19649879998178,114.19936169998255,113.19649879998178,114.19936169998255,right,1,0.2385235000110697,113.19649879998178,None,113.19649879998178,None,113.19649879998178,113.6972298999899,113.19649879998178,113.6972298999899,113.19649879998178,113.6972298999899,113.19649879998178,113.6972298999899,113.19649879998178,None,,,,,,,,,,,,,,,,,,,,,,,,,,,,,,,,,,,,,,,,,,12012,001,2024_Jun_18_1749,nback,2021.2.3,59.93536570834642,
2-back,instructions\back-2.png,conditions\2back-p.xlsx,instructions\2-BACK.png,"(25, 15)",practice,2,2,stim\gray.png,stim\yellow.png,stim\gray.png,stim\gray.png,down,0,0,0,0,0,2,2,2,0,11,11,11,,,,,,,,,,,,,,,,,,,,,,,,,,,114.69871409999905,115.70019049997791,114.69871409999905,115.70019049997791,114.69871409999905,115.70019049997791,114.69871409999905,115.70019049997791,down,1,0.32858539998414926,114.69871409999905,None,114.69871409999905,None,114.69871409999905,115.19961529999273,114.69871409999905,115.19961529999273,114.69871409999905,115.19961529999273,114.69871409999905,115.19961529999273,114.69871409999905,None,,,,,,,,,,,,,,,,,,,,,,,,,,,,,,,,,,,,,,,,,,12012,001,2024_Jun_18_1749,nback,2021.2.3,59.93536570834642,
2-back,instructions\back-2.png,conditions\2back-p.xlsx,instructions\2-BACK.png,"(25, 15)",practice,2,4,stim\gray.png,stim\gray.png,stim\gray.png,stim\yellow.png,up,0,0,0,0,0,2,2,2,0,12,12,12,,,,,,,,,,,,,,,,,,,,,,,,,,,116.20102479998604,117.20246529998258,116.20102479998604,117.20246529998258,116.20102479998604,117.20246529998258,116.20102479998604,117.20246529998258,up,1,0.4102011999930255,116.20102479998604,None,116.20102479998604,None,116.20102479998604,116.70171559997834,116.20102479998604,116.70171559997834,116.20102479998604,116.70171559997834,116.20102479998604,116.70171559997834,116.20102479998604,None,,,,,,,,,,,,,,,,,,,,,,,,,,,,,,,,,,,,,,,,,,12012,001,2024_Jun_18_1749,nback,2021.2.3,59.93536570834642,
2-back,instructions\back-2.png,conditions\2back-p.xlsx,instructions\2-BACK.png,"(25, 15)",practice,2,3,stim\gray.png,stim\gray.png,stim\yellow.png,stim\gray.png,left,0,0,0,0,0,2,2,2,0,13,13,13,,,,,,,,,,,,,,,,,,,,,,,,,,,117.6870580999821,118.68842819999554,117.6870580999821,118.68842819999554,117.6870580999821,118.68842819999554,117.6870580999821,118.68842819999554,left,1,0.5319869999948423,117.6870580999821,None,117.6870580999821,None,117.6870580999821,118.18774239998311,117.6870580999821,118.18774239998311,117.6870580999821,118.18774239998311,117.6870580999821,118.18774239998311,117.6870580999821,None,,,,,,,,,,,,,,,,,,,,,,,,,,,,,,,,,,,,,,,,,,12012,001,2024_Jun_18_1749,nback,2021.2.3,59.93536570834642,
2-back,instructions\back-2.png,conditions\2back-p.xlsx,instructions\2-BACK.png,"(25, 15)",practice,2,1,stim\yellow.png,stim\gray.png,stim\gray.png,stim\gray.png,down,0,0,0,0,0,2,2,2,0,14,14,14,,,,,,,,,,,,,,,,,,,,,,,,,,,119.18899889997556,120.1917016999796,119.18899889997556,120.1917016999796,119.18899889997556,120.1917016999796,119.18899889997556,120.1917016999796,up,0,0.6145478999824263,119.18899889997556,None,119.18899889997556,None,119.18899889997556,119.6900517999893,119.18899889997556,119.6900517999893,119.18899889997556,119.6900517999893,119.18899889997556,119.6900517999893,119.18899889997556,None,,,,,,,,,,,,,,,,,,,,,,,,,,,,,,,,,,,,,,,,,,12012,001,2024_Jun_18_1749,nback,2021.2.3,59.93536570834642,
2-back,instructions\back-2.png,conditions\2back-p.xlsx,instructions\2-BACK.png,"(25, 15)",practice,2,2,stim\gray.png,stim\yellow.png,stim\gray.png,stim\gray.png,right,0,0,0,0,0,2,2,2,0,15,15,15,,,,,,,,,,,,,,,,,,,,,,,,,,,120.69099129998358,121.69304539999575,120.69099129998358,121.69304539999575,120.69099129998358,121.69304539999575,120.69099129998358,121.69304539999575,None,0,,120.69099129998358,None,120.69099129998358,None,120.69099129998358,121.19201129997964,120.69099129998358,121.19201129997964,120.69099129998358,121.19201129997964,120.69099129998358,121.19201129997964,120.69099129998358,None,,,,,,,,,,,,,,,,,,,,,,,,,,,,,,,,,,,,,,,,,,12012,001,2024_Jun_18_1749,nback,2021.2.3,59.93536570834642,
2-back,instructions\back-2.png,conditions\2back-p.xlsx,instructions\2-BACK.png,"(25, 15)",practice,2,3,stim\gray.png,stim\gray.png,stim\yellow.png,stim\gray.png,up,0,0,0,0,0,2,2,2,0,16,16,16,,,,,,,,,,,,,,,,,,,,,,,,,,,122.19343799998751,123.1963147999777,122.19343799998751,123.1963147999777,122.19343799998751,123.1963147999777,122.19343799998751,123.1963147999777,left,0,0.8342462000146043,122.19343799998751,None,122.19343799998751,None,122.19343799998751,122.69411489999038,122.19343799998751,122.69411489999038,122.19343799998751,122.69411489999038,122.19343799998751,122.69411489999038,122.19343799998751,None,,,,,,,,,,,,,,,,,,,,,,,,,,,,,,,,,,,,,,,,,,12012,001,2024_Jun_18_1749,nback,2021.2.3,59.93536570834642,
2-back,instructions\back-2.png,conditions\2back-p.xlsx,instructions\2-BACK.png,"(25, 15)",practice,2,1,stim\yellow.png,stim\gray.png,stim\gray.png,stim\gray.png,left,0,0,0,0,0,2,2,2,0,17,17,17,,,,,,,,,,,,,,,,,,,,,,,,,,,123.69567049999023,124.69694059999892,123.69567049999023,124.69694059999892,123.69567049999023,124.69694059999892,123.69567049999023,124.69694059999892,None,0,,123.69567049999023,None,123.69567049999023,None,123.69567049999023,124.19667330000084,123.69567049999023,124.19667330000084,123.69567049999023,124.19667330000084,123.69567049999023,124.19667330000084,123.69567049999023,None,,,,,,,,,,,,,,,,,,,,,,,,,,,,,,,,,,,,,,,,,,12012,001,2024_Jun_18_1749,nback,2021.2.3,59.93536570834642,
2-back,instructions\back-2.png,conditions\2back-p.xlsx,instructions\2-BACK.png,"(25, 15)",practice,2,4,stim\gray.png,stim\gray.png,stim\gray.png,stim\yellow.png,right,0,0,0,0,0,2,2,2,0,18,18,18,,,,,,,,,,,,,,,,,,,,,,,,,,,125.19849919999251,126.20004129997687,125.19849919999251,126.20004129997687,125.19849919999251,126.20004129997687,125.19849919999251,126.20004129997687,right,1,1.0689546999929007,125.19849919999251,None,125.19849919999251,None,125.19849919999251,125.69862479998847,125.19849919999251,125.69862479998847,125.19849919999251,125.69862479998847,125.19849919999251,125.69862479998847,125.19849919999251,None,,,,,,,,,,,,,,,,,,,,,,,,,,,,,,,,,,,,,,,,,,12012,001,2024_Jun_18_1749,nback,2021.2.3,59.93536570834642,
2-back,instructions\back-2.png,conditions\2back-p.xlsx,instructions\2-BACK.png,"(25, 15)",practice,2,2,stim\gray.png,stim\yellow.png,stim\gray.png,stim\gray.png,up,0,0,0,0,0,2,2,2,0,19,19,19,,,,,,,,,,,,,,,,,,,,,,,,,,,126.70004209998297,127.70182809999096,126.70004209998297,127.70182809999096,126.70004209998297,127.70182809999096,126.70004209998297,127.70182809999096,None,0,,126.70004209998297,None,126.70004209998297,None,126.70004209998297,127.20132860000012,126.70004209998297,127.20132860000012,126.70004209998297,127.20132860000012,126.70004209998297,127.20132860000012,126.70004209998297,None,,,,,,,,,,,,,,,,,,,,,,,,,,,,,,,,,,,,,,,,,,12012,001,2024_Jun_18_1749,nback,2021.2.3,59.93536570834642,
2-back,instructions\back-2.png,conditions\2back-p.xlsx,instructions\2-BACK.png,"(25, 15)",,,,,,,,,0,0,0,0,0,2,2,2,,,,,,,,,,,,,,,,,,,,,,,,,,,,,,,,,,,,,,,,,,,,,,,,,,,,,,,,,,,,,,,,,,,,,,,,,,,,,,,,,,,,,,,,,,,,,,,,,12012,001,2024_Jun_18_1749,nback,2021.2.3,59.93536570834642,
,,,,,,,,,,,,,0,0,0,0,,,,,,,,,,,,,,,,,,,,,,,,,,,,,,,,,,,,,,,,,,,,,,,,,,,,,,,,,,,,128.18659139997908,None,space,41.84211789999972,128.18659139997908,None,,,,,,,,,,,,,,,,,,,,,,,,,,,,,,,,,,,,12012,001,2024_Jun_18_1749,nback,2021.2.3,59.93536570834642,
,,,,,,,,,,,,,,,,,,,,,,,,,,,,,,,,,,,,,,,,,,,,,,,,,,,,,,,,,,,,,,,,,,,,,,,,,,,,,,,,,,170.0487820999988,None,space,5.180781700008083,170.0487820999988,None,,,,,,,,,,,,,,,,,,,,,,,,,,,,,,12012,001,2024_Jun_18_1749,nback,2021.2.3,59.93536570834642,
0-back,instructions\back-0.png,conditions\01back-e.xlsx,,,experiment,0,2,stim\gray.png,stim\yellow.png,stim\gray.png,stim\gray.png,left,,,,,,,,,,,,,0,0,0,4,0,0,0,0,,,,,,,,,,,,,,,175.37350859999424,179.8814525999769,179.84702950000064,None,,,,,,,,,,,,,,,,,,,,,,,,,,,,,,,,,,,,,,left,1,0.45212820000597276,180.28084880000097,None,180.28084880000097,None,180.28084880000097,181.2833369,180.28084880000097,181.2833369,180.28084880000097,181.2833369,180.28084880000097,181.2833369,180.28084880000097,180.78168019998702,180.28084880000097,180.78168019998702,180.28084880000097,180.78168019998702,180.28084880000097,180.78168019998702,180.28084880000097,None,,,,,12012,001,2024_Jun_18_1749,nback,2021.2.3,59.93536570834642,
0-back,instructions\back-0.png,conditions\01back-e.xlsx,,,experiment,0,4,stim\gray.png,stim\gray.png,stim\gray.png,stim\yellow.png,down,,,,,,,,,,,,,0,0,0,4,0,1,1,1,,,,,,,,,,,,,,,,,,,,,,,,,,,,,,,,,,,,,,,,,,,,,,,,,,,,,,,,down,1,0.4391722999862395,181.76648099999875,None,181.76648099999875,None,181.76648099999875,182.76820289998432,181.76648099999875,182.76820289998432,181.76648099999875,182.76820289998432,181.76648099999875,182.76820289998432,181.76648099999875,182.26725509998505,181.76648099999875,182.26725509998505,181.76648099999875,182.26725509998505,181.76648099999875,182.26725509998505,181.76648099999875,None,,,,,12012,001,2024_Jun_18_1749,nback,2021.2.3,59.93536570834642,
0-back,instructions\back-0.png,conditions\01back-e.xlsx,,,experiment,0,1,stim\yellow.png,stim\gray.png,stim\gray.png,stim\gray.png,up,,,,,,,,,,,,,0,0,0,4,0,2,2,2,,,,,,,,,,,,,,,,,,,,,,,,,,,,,,,,,,,,,,,,,,,,,,,,,,,,,,,,up,1,0.40016400002059527,183.2693943999766,None,183.2693943999766,None,183.2693943999766,184.27040559999296,183.2693943999766,184.27040559999296,183.2693943999766,184.27040559999296,183.2693943999766,184.27040559999296,183.2693943999766,183.7695545000024,183.2693943999766,183.7695545000024,183.2693943999766,183.7695545000024,183.2693943999766,183.7695545000024,183.2693943999766,None,,,,,12012,001,2024_Jun_18_1749,nback,2021.2.3,59.93536570834642,
0-back,instructions\back-0.png,conditions\01back-e.xlsx,,,experiment,0,2,stim\gray.png,stim\yellow.png,stim\gray.png,stim\gray.png,left,,,,,,,,,,,,,0,0,0,4,0,3,3,3,,,,,,,,,,,,,,,,,,,,,,,,,,,,,,,,,,,,,,,,,,,,,,,,,,,,,,,,left,1,0.33007660001749173,184.77103189998888,None,184.77103189998888,None,184.77103189998888,185.7735176999995,184.77103189998888,185.7735176999995,184.77103189998888,185.7735176999995,184.77103189998888,185.7735176999995,184.77103189998888,185.27245140000014,184.77103189998888,185.27245140000014,184.77103189998888,185.27245140000014,184.77103189998888,185.27245140000014,184.77103189998888,None,,,,,12012,001,2024_Jun_18_1749,nback,2021.2.3,59.93536570834642,
0-back,instructions\back-0.png,conditions\01back-e.xlsx,,,experiment,0,3,stim\gray.png,stim\gray.png,stim\yellow.png,stim\gray.png,right,,,,,,,,,,,,,0,0,0,4,0,4,4,4,,,,,,,,,,,,,,,,,,,,,,,,,,,,,,,,,,,,,,,,,,,,,,,,,,,,,,,,right,1,0.33162050001556054,186.2734679999994,None,186.2734679999994,None,186.2734679999994,187.27462989999913,186.2734679999994,187.27462989999913,186.2734679999994,187.27462989999913,186.2734679999994,187.27462989999913,186.2734679999994,186.77456329998677,186.2734679999994,186.77456329998677,186.2734679999994,186.77456329998677,186.2734679999994,186.77456329998677,186.2734679999994,None,,,,,12012,001,2024_Jun_18_1749,nback,2021.2.3,59.93536570834642,
0-back,instructions\back-0.png,conditions\01back-e.xlsx,,,experiment,0,1,stim\yellow.png,stim\gray.png,stim\gray.png,stim\gray.png,up,,,,,,,,,,,,,0,0,0,4,0,5,5,5,,,,,,,,,,,,,,,,,,,,,,,,,,,,,,,,,,,,,,,,,,,,,,,,,,,,,,,,up,1,0.3732370999932755,187.77606009997544,None,187.77606009997544,None,187.77606009997544,188.7778919999837,187.77606009997544,188.7778919999837,187.77606009997544,188.7778919999837,187.77606009997544,188.7778919999837,187.77606009997544,188.27680259998306,187.77606009997544,188.27680259998306,187.77606009997544,188.27680259998306,187.77606009997544,188.27680259998306,187.77606009997544,None,,,,,12012,001,2024_Jun_18_1749,nback,2021.2.3,59.93536570834642,
0-back,instructions\back-0.png,conditions\01back-e.xlsx,,,experiment,0,4,stim\gray.png,stim\gray.png,stim\gray.png,stim\yellow.png,down,,,,,,,,,,,,,0,0,0,4,0,6,6,6,,,,,,,,,,,,,,,,,,,,,,,,,,,,,,,,,,,,,,,,,,,,,,,,,,,,,,,,down,1,0.37632849998772144,189.2610599999898,None,189.2610599999898,None,189.2610599999898,190.26268179999897,189.2610599999898,190.26268179999897,189.2610599999898,190.26268179999897,189.2610599999898,190.26268179999897,189.2610599999898,189.7619683999801,189.2610599999898,189.7619683999801,189.2610599999898,189.7619683999801,189.2610599999898,189.7619683999801,189.2610599999898,None,,,,,12012,001,2024_Jun_18_1749,nback,2021.2.3,59.93536570834642,
0-back,instructions\back-0.png,conditions\01back-e.xlsx,,,experiment,0,3,stim\gray.png,stim\gray.png,stim\yellow.png,stim\gray.png,right,,,,,,,,,,,,,0,0,0,4,0,7,7,7,,,,,,,,,,,,,,,,,,,,,,,,,,,,,,,,,,,,,,,,,,,,,,,,,,,,,,,,right,1,0.36970819998532534,190.76356669998495,None,190.76356669998495,None,190.76356669998495,191.76528900000267,190.76356669998495,191.76528900000267,190.76356669998495,191.76528900000267,190.76356669998495,191.76528900000267,190.76356669998495,191.26412429998163,190.76356669998495,191.26412429998163,190.76356669998495,191.26412429998163,190.76356669998495,191.26412429998163,190.76356669998495,None,,,,,12012,001,2024_Jun_18_1749,nback,2021.2.3,59.93536570834642,
0-back,instructions\back-0.png,conditions\01back-e.xlsx,,,experiment,0,4,stim\gray.png,stim\gray.png,stim\gray.png,stim\yellow.png,down,,,,,,,,,,,,,0,0,0,4,0,8,8,8,,,,,,,,,,,,,,,,,,,,,,,,,,,,,,,,,,,,,,,,,,,,,,,,,,,,,,,,down,1,0.35562459999346174,192.26567559997784,None,192.26567559997784,None,192.26567559997784,193.267551500001,192.26567559997784,193.267551500001,192.26567559997784,193.267551500001,192.26567559997784,193.267551500001,192.26567559997784,192.76644629999646,192.26567559997784,192.76644629999646,192.26567559997784,192.76644629999646,192.26567559997784,192.76644629999646,192.26567559997784,None,,,,,12012,001,2024_Jun_18_1749,nback,2021.2.3,59.93536570834642,
0-back,instructions\back-0.png,conditions\01back-e.xlsx,,,experiment,0,3,stim\gray.png,stim\gray.png,stim\yellow.png,stim\gray.png,right,,,,,,,,,,,,,0,0,0,4,0,9,9,9,,,,,,,,,,,,,,,,,,,,,,,,,,,,,,,,,,,,,,,,,,,,,,,,,,,,,,,,right,1,0.3579301000281703,193.7680332000018,None,193.7680332000018,None,193.7680332000018,194.77157219999935,193.7680332000018,194.77157219999935,193.7680332000018,194.77157219999935,193.7680332000018,194.77157219999935,193.7680332000018,194.26872719998937,193.7680332000018,194.26872719998937,193.7680332000018,194.26872719998937,193.7680332000018,194.26872719998937,193.7680332000018,None,,,,,12012,001,2024_Jun_18_1749,nback,2021.2.3,59.93536570834642,
0-back,instructions\back-0.png,conditions\01back-e.xlsx,,,experiment,0,3,stim\gray.png,stim\gray.png,stim\yellow.png,stim\gray.png,right,,,,,,,,,,,,,0,0,0,4,0,10,10,10,,,,,,,,,,,,,,,,,,,,,,,,,,,,,,,,,,,,,,,,,,,,,,,,,,,,,,,,right,1,0.38320670000393875,195.27021239997703,None,195.27021239997703,None,195.27021239997703,196.27179659999092,195.27021239997703,196.27179659999092,195.27021239997703,196.27179659999092,195.27021239997703,196.27179659999092,195.27021239997703,195.77150889998302,195.27021239997703,195.77150889998302,195.27021239997703,195.77150889998302,195.27021239997703,195.77150889998302,195.27021239997703,None,,,,,12012,001,2024_Jun_18_1749,nback,2021.2.3,59.93536570834642,
0-back,instructions\back-0.png,conditions\01back-e.xlsx,,,experiment,0,1,stim\yellow.png,stim\gray.png,stim\gray.png,stim\gray.png,up,,,,,,,,,,,,,0,0,0,4,0,11,11,11,,,,,,,,,,,,,,,,,,,,,,,,,,,,,,,,,,,,,,,,,,,,,,,,,,,,,,,,up,1,0.42494650001754053,196.77251609999803,None,196.77251609999803,None,196.77251609999803,197.7749186999863,196.77251609999803,197.7749186999863,196.77251609999803,197.7749186999863,196.77251609999803,197.7749186999863,196.77251609999803,197.2741344999813,196.77251609999803,197.2741344999813,196.77251609999803,197.2741344999813,196.77251609999803,197.2741344999813,196.77251609999803,None,,,,,12012,001,2024_Jun_18_1749,nback,2021.2.3,59.93536570834642,
0-back,instructions\back-0.png,conditions\01back-e.xlsx,,,experiment,0,3,stim\gray.png,stim\gray.png,stim\yellow.png,stim\gray.png,right,,,,,,,,,,,,,0,0,0,4,0,12,12,12,,,,,,,,,,,,,,,,,,,,,,,,,,,,,,,,,,,,,,,,,,,,,,,,,,,,,,,,right,1,0.3387106999871321,198.2746987999999,None,198.2746987999999,None,198.2746987999999,199.27672519997577,198.2746987999999,199.27672519997577,198.2746987999999,199.27672519997577,198.2746987999999,199.27672519997577,198.2746987999999,198.7756143999868,198.2746987999999,198.7756143999868,198.2746987999999,198.7756143999868,198.2746987999999,198.7756143999868,198.2746987999999,None,,,,,12012,001,2024_Jun_18_1749,nback,2021.2.3,59.93536570834642,
0-back,instructions\back-0.png,conditions\01back-e.xlsx,,,experiment,0,1,stim\yellow.png,stim\gray.png,stim\gray.png,stim\gray.png,up,,,,,,,,,,,,,0,0,0,4,0,13,13,13,,,,,,,,,,,,,,,,,,,,,,,,,,,,,,,,,,,,,,,,,,,,,,,,,,,,,,,,up,1,0.3892905999964569,199.76016799997888,None,199.76016799997888,None,199.76016799997888,200.76207349999459,199.76016799997888,200.76207349999459,199.76016799997888,200.76207349999459,199.76016799997888,200.76207349999459,199.76016799997888,200.26104689997737,199.76016799997888,200.26104689997737,199.76016799997888,200.26104689997737,199.76016799997888,200.26104689997737,199.76016799997888,None,,,,,12012,001,2024_Jun_18_1749,nback,2021.2.3,59.93536570834642,
0-back,instructions\back-0.png,conditions\01back-e.xlsx,,,experiment,0,4,stim\gray.png,stim\gray.png,stim\gray.png,stim\yellow.png,down,,,,,,,,,,,,,0,0,0,4,0,14,14,14,,,,,,,,,,,,,,,,,,,,,,,,,,,,,,,,,,,,,,,,,,,,,,,,,,,,,,,,down,1,0.47887449999689125,201.26288749999367,None,201.26288749999367,None,201.26288749999367,202.2656629999983,201.26288749999367,202.2656629999983,201.26288749999367,202.2656629999983,201.26288749999367,202.2656629999983,201.26288749999367,201.76325459999498,201.26288749999367,201.76325459999498,201.26288749999367,201.76325459999498,201.26288749999367,201.76325459999498,201.26288749999367,None,,,,,12012,001,2024_Jun_18_1749,nback,2021.2.3,59.93536570834642,
0-back,instructions\back-0.png,conditions\01back-e.xlsx,,,experiment,0,2,stim\gray.png,stim\yellow.png,stim\gray.png,stim\gray.png,left,,,,,,,,,,,,,0,0,0,4,0,15,15,15,,,,,,,,,,,,,,,,,,,,,,,,,,,,,,,,,,,,,,,,,,,,,,,,,,,,,,,,left,1,0.36817609998979606,202.76536179997493,None,202.76536179997493,None,202.76536179997493,203.76654250000138,202.76536179997493,203.76654250000138,202.76536179997493,203.76654250000138,202.76536179997493,203.76654250000138,202.76536179997493,203.2656259999785,202.76536179997493,203.2656259999785,202.76536179997493,203.2656259999785,202.76536179997493,203.2656259999785,202.76536179997493,None,,,,,12012,001,2024_Jun_18_1749,nback,2021.2.3,59.93536570834642,
0-back,instructions\back-0.png,conditions\01back-e.xlsx,,,experiment,0,1,stim\yellow.png,stim\gray.png,stim\gray.png,stim\gray.png,up,,,,,,,,,,,,,0,0,0,4,0,16,16,16,,,,,,,,,,,,,,,,,,,,,,,,,,,,,,,,,,,,,,,,,,,,,,,,,,,,,,,,up,1,0.39452719999826513,204.26715599998715,None,204.26715599998715,None,204.26715599998715,205.268863699981,204.26715599998715,205.268863699981,204.26715599998715,205.268863699981,204.26715599998715,205.268863699981,204.26715599998715,204.7689948999905,204.26715599998715,204.7689948999905,204.26715599998715,204.7689948999905,204.26715599998715,204.7689948999905,204.26715599998715,None,,,,,12012,001,2024_Jun_18_1749,nback,2021.2.3,59.93536570834642,
0-back,instructions\back-0.png,conditions\01back-e.xlsx,,,experiment,0,2,stim\gray.png,stim\yellow.png,stim\gray.png,stim\gray.png,left,,,,,,,,,,,,,0,0,0,4,0,17,17,17,,,,,,,,,,,,,,,,,,,,,,,,,,,,,,,,,,,,,,,,,,,,,,,,,,,,,,,,left,1,0.4285921999835409,205.76927599997725,None,205.76927599997725,None,205.76927599997725,206.7721365999896,205.76927599997725,206.7721365999896,205.76927599997725,206.7721365999896,205.76927599997725,206.7721365999896,205.76927599997725,206.27018259998295,205.76927599997725,206.27018259998295,205.76927599997725,206.27018259998295,205.76927599997725,206.27018259998295,205.76927599997725,None,,,,,12012,001,2024_Jun_18_1749,nback,2021.2.3,59.93536570834642,
0-back,instructions\back-0.png,conditions\01back-e.xlsx,,,experiment,0,4,stim\gray.png,stim\gray.png,stim\gray.png,stim\yellow.png,down,,,,,,,,,,,,,0,0,0,4,0,18,18,18,,,,,,,,,,,,,,,,,,,,,,,,,,,,,,,,,,,,,,,,,,,,,,,,,,,,,,,,down,1,0.4543120000162162,207.2715950999991,None,207.2715950999991,None,207.2715950999991,208.27321379998466,207.2715950999991,208.27321379998466,207.2715950999991,208.27321379998466,207.2715950999991,208.27321379998466,207.2715950999991,207.7728620999842,207.2715950999991,207.7728620999842,207.2715950999991,207.7728620999842,207.2715950999991,207.7728620999842,207.2715950999991,None,,,,,12012,001,2024_Jun_18_1749,nback,2021.2.3,59.93536570834642,
0-back,instructions\back-0.png,conditions\01back-e.xlsx,,,experiment,0,2,stim\gray.png,stim\yellow.png,stim\gray.png,stim\gray.png,left,,,,,,,,,,,,,0,0,0,4,0,19,19,19,,,,,,,,,,,,,,,,,,,,,,,,,,,,,,,,,,,,,,,,,,,,,,,,,,,,,,,,left,1,0.38262590000522323,208.77513999998337,None,208.77513999998337,None,208.77513999998337,209.77554319999763,208.77513999998337,209.77554319999763,208.77513999998337,209.77554319999763,208.77513999998337,209.77554319999763,208.77513999998337,209.27452909998829,208.77513999998337,209.27452909998829,208.77513999998337,209.27452909998829,208.77513999998337,209.27452909998829,208.77513999998337,None,,,,,12012,001,2024_Jun_18_1749,nback,2021.2.3,59.93536570834642,
0-back,instructions\back-0.png,conditions\01back-e.xlsx,,,,,,,,,,,,,,,,,,,,,,,0,0,0,4,,,,,,,,,,,,,,,,,,,,,,,,,,,,,,,,,,,,,,,,,,,,,,,,,,,,,,,,,,,,,,,,,,,,,,,,,,,,,,,,,,,,,210.27705509998486,None,,,12012,001,2024_Jun_18_1749,nback,2021.2.3,59.93536570834642,
2-back,instructions\back-2.png,conditions\21back-e.xlsx,,,experiment,2,3,stim\gray.png,stim\gray.png,stim\yellow.png,stim\gray.png,None,,,,,,,,,,,,,0,1,1,3,0,0,0,0,,,,,,,,,,,,,,,211.37785029999213,215.88593829999445,215.851989399991,None,,,,,,,,,,,,,,,,,,,,,,,,,,,,,,,,,,,,,,None,1,,216.28676779998932,None,216.28676779998932,None,216.28676779998932,217.28682729997672,216.28676779998932,217.28682729997672,216.28676779998932,217.28682729997672,216.28676779998932,217.28682729997672,216.28676779998932,216.78628129998106,216.28676779998932,216.78628129998106,216.28676779998932,216.78628129998106,216.28676779998932,216.78628129998106,216.28676779998932,None,,,,,12012,001,2024_Jun_18_1749,nback,2021.2.3,59.93536570834642,
2-back,instructions\back-2.png,conditions\21back-e.xlsx,,,experiment,2,4,stim\gray.png,stim\gray.png,stim\gray.png,stim\yellow.png,None,,,,,,,,,,,,,0,1,1,3,0,1,1,1,,,,,,,,,,,,,,,,,,,,,,,,,,,,,,,,,,,,,,,,,,,,,,,,,,,,,,,,None,1,,217.770783999993,None,217.770783999993,None,217.770783999993,218.77240689998143,217.770783999993,218.77240689998143,217.770783999993,218.77240689998143,217.770783999993,218.77240689998143,217.770783999993,218.27163049997762,217.770783999993,218.27163049997762,217.770783999993,218.27163049997762,217.770783999993,218.27163049997762,217.770783999993,None,,,,,12012,001,2024_Jun_18_1749,nback,2021.2.3,59.93536570834642,
2-back,instructions\back-2.png,conditions\21back-e.xlsx,,,experiment,2,1,stim\yellow.png,stim\gray.png,stim\gray.png,stim\gray.png,right,,,,,,,,,,,,,0,1,1,3,0,2,2,2,,,,,,,,,,,,,,,,,,,,,,,,,,,,,,,,,,,,,,,,,,,,,,,,,,,,,,,,right,1,0.33302520000142977,219.27314389997628,None,219.27314389997628,None,219.27314389997628,220.27499849998276,219.27314389997628,220.27499849998276,219.27314389997628,220.27499849998276,219.27314389997628,220.27499849998276,219.27314389997628,219.77414419999695,219.27314389997628,219.77414419999695,219.27314389997628,219.77414419999695,219.27314389997628,219.77414419999695,219.27314389997628,None,,,,,12012,001,2024_Jun_18_1749,nback,2021.2.3,59.93536570834642,
2-back,instructions\back-2.png,conditions\21back-e.xlsx,,,experiment,2,2,stim\gray.png,stim\yellow.png,stim\gray.png,stim\gray.png,down,,,,,,,,,,,,,0,1,1,3,0,3,3,3,,,,,,,,,,,,,,,,,,,,,,,,,,,,,,,,,,,,,,,,,,,,,,,,,,,,,,,,down,1,0.3424304999934975,220.77546259999508,None,220.77546259999508,None,220.77546259999508,221.77689239999745,220.77546259999508,221.77689239999745,220.77546259999508,221.77689239999745,220.77546259999508,221.77689239999745,220.77546259999508,221.27683079999406,220.77546259999508,221.27683079999406,220.77546259999508,221.27683079999406,220.77546259999508,221.27683079999406,220.77546259999508,None,,,,,12012,001,2024_Jun_18_1749,nback,2021.2.3,59.93536570834642,
2-back,instructions\back-2.png,conditions\21back-e.xlsx,,,experiment,2,1,stim\yellow.png,stim\gray.png,stim\gray.png,stim\gray.png,up,,,,,,,,,,,,,0,1,1,3,0,4,4,4,,,,,,,,,,,,,,,,,,,,,,,,,,,,,,,,,,,,,,,,,,,,,,,,,,,,,,,,up,1,0.3371880000049714,222.26077319998876,None,222.26077319998876,None,222.26077319998876,223.26315639997483,222.26077319998876,223.26315639997483,222.26077319998876,223.26315639997483,222.26077319998876,223.26315639997483,222.26077319998876,222.76220909997937,222.26077319998876,222.76220909997937,222.26077319998876,222.76220909997937,222.26077319998876,222.76220909997937,222.26077319998876,None,,,,,12012,001,2024_Jun_18_1749,nback,2021.2.3,59.93536570834642,
2-back,instructions\back-2.png,conditions\21back-e.xlsx,,,experiment,2,2,stim\gray.png,stim\yellow.png,stim\gray.png,stim\gray.png,left,,,,,,,,,,,,,0,1,1,3,0,5,5,5,,,,,,,,,,,,,,,,,,,,,,,,,,,,,,,,,,,,,,,,,,,,,,,,,,,,,,,,left,1,0.32434700001613237,223.7631737999909,None,223.7631737999909,None,223.7631737999909,224.7648337999999,223.7631737999909,224.7648337999999,223.7631737999909,224.7648337999999,223.7631737999909,224.7648337999999,223.7631737999909,224.26409059998696,223.7631737999909,224.26409059998696,223.7631737999909,224.26409059998696,223.7631737999909,224.26409059998696,223.7631737999909,None,,,,,12012,001,2024_Jun_18_1749,nback,2021.2.3,59.93536570834642,
2-back,instructions\back-2.png,conditions\21back-e.xlsx,,,experiment,2,3,stim\gray.png,stim\gray.png,stim\yellow.png,stim\gray.png,up,,,,,,,,,,,,,0,1,1,3,0,6,6,6,,,,,,,,,,,,,,,,,,,,,,,,,,,,,,,,,,,,,,,,,,,,,,,,,,,,,,,,up,1,0.3645362999814097,225.26559379999526,None,225.26559379999526,None,225.26559379999526,226.26732569999876,225.26559379999526,226.26732569999876,225.26559379999526,226.26732569999876,225.26559379999526,226.26732569999876,225.26559379999526,225.7661364999949,225.26559379999526,225.7661364999949,225.26559379999526,225.7661364999949,225.26559379999526,225.7661364999949,225.26559379999526,None,,,,,12012,001,2024_Jun_18_1749,nback,2021.2.3,59.93536570834642,
2-back,instructions\back-2.png,conditions\21back-e.xlsx,,,experiment,2,4,stim\gray.png,stim\gray.png,stim\gray.png,stim\yellow.png,left,,,,,,,,,,,,,0,1,1,3,0,7,7,7,,,,,,,,,,,,,,,,,,,,,,,,,,,,,,,,,,,,,,,,,,,,,,,,,,,,,,,,left,1,0.2944228000123985,226.7677881999989,None,226.7677881999989,None,226.7677881999989,227.76946260000113,226.7677881999989,227.76946260000113,226.7677881999989,227.76946260000113,226.7677881999989,227.76946260000113,226.7677881999989,227.26851219998207,226.7677881999989,227.26851219998207,226.7677881999989,227.26851219998207,226.7677881999989,227.26851219998207,226.7677881999989,None,,,,,12012,001,2024_Jun_18_1749,nback,2021.2.3,59.93536570834642,
2-back,instructions\back-2.png,conditions\21back-e.xlsx,,,experiment,2,3,stim\gray.png,stim\gray.png,stim\yellow.png,stim\gray.png,right,,,,,,,,,,,,,0,1,1,3,0,8,8,8,,,,,,,,,,,,,,,,,,,,,,,,,,,,,,,,,,,,,,,,,,,,,,,,,,,,,,,,right,1,0.2636264000029769,228.27044189997832,None,228.27044189997832,None,228.27044189997832,229.27154919999884,228.27044189997832,229.27154919999884,228.27044189997832,229.27154919999884,228.27044189997832,229.27154919999884,228.27044189997832,228.77085319999605,228.27044189997832,228.77085319999605,228.27044189997832,228.77085319999605,228.27044189997832,228.77085319999605,228.27044189997832,None,,,,,12012,001,2024_Jun_18_1749,nback,2021.2.3,59.93536570834642,
2-back,instructions\back-2.png,conditions\21back-e.xlsx,,,experiment,2,1,stim\yellow.png,stim\gray.png,stim\gray.png,stim\gray.png,down,,,,,,,,,,,,,0,1,1,3,0,9,9,9,,,,,,,,,,,,,,,,,,,,,,,,,,,,,,,,,,,,,,,,,,,,,,,,,,,,,,,,down,1,0.1782736000022851,229.77238919999218,None,229.77238919999218,None,229.77238919999218,230.7743070999859,229.77238919999218,230.7743070999859,229.77238919999218,230.7743070999859,229.77238919999218,230.7743070999859,229.77238919999218,230.27390979998745,229.77238919999218,230.27390979998745,229.77238919999218,230.27390979998745,229.77238919999218,230.27390979998745,229.77238919999218,None,,,,,12012,001,2024_Jun_18_1749,nback,2021.2.3,59.93536570834642,
2-back,instructions\back-2.png,conditions\21back-e.xlsx,,,experiment,2,4,stim\gray.png,stim\gray.png,stim\gray.png,stim\yellow.png,right,,,,,,,,,,,,,0,1,1,3,0,10,10,10,,,,,,,,,,,,,,,,,,,,,,,,,,,,,,,,,,,,,,,,,,,,,,,,,,,,,,,,right,1,0.2438945000176318,231.27463509998051,None,231.27463509998051,None,231.27463509998051,232.27623419999145,231.27463509998051,232.27623419999145,231.27463509998051,232.27623419999145,231.27463509998051,232.27623419999145,231.27463509998051,231.7752966999833,231.27463509998051,231.7752966999833,231.27463509998051,231.7752966999833,231.27463509998051,231.7752966999833,231.27463509998051,None,,,,,12012,001,2024_Jun_18_1749,nback,2021.2.3,59.93536570834642,
2-back,instructions\back-2.png,conditions\21back-e.xlsx,,,experiment,2,2,stim\gray.png,stim\yellow.png,stim\gray.png,stim\gray.png,up,,,,,,,,,,,,,0,1,1,3,0,11,11,11,,,,,,,,,,,,,,,,,,,,,,,,,,,,,,,,,,,,,,,,,,,,,,,,,,,,,,,,None,0,,232.77710759997717,None,232.77710759997717,None,232.77710759997717,233.7783040999784,232.77710759997717,233.7783040999784,232.77710759997717,233.7783040999784,232.77710759997717,233.7783040999784,232.77710759997717,233.27859049997642,232.77710759997717,233.27859049997642,232.77710759997717,233.27859049997642,232.77710759997717,233.27859049997642,232.77710759997717,None,,,,,12012,001,2024_Jun_18_1749,nback,2021.2.3,59.93536570834642,
2-back,instructions\back-2.png,conditions\21back-e.xlsx,,,experiment,2,4,stim\gray.png,stim\gray.png,stim\gray.png,stim\yellow.png,down,,,,,,,,,,,,,0,1,1,3,0,12,12,12,,,,,,,,,,,,,,,,,,,,,,,,,,,,,,,,,,,,,,,,,,,,,,,,,,,,,,,,left,0,1.3365330999949947,234.262791199988,None,234.262791199988,None,234.262791199988,235.26438169999165,234.262791199988,235.26438169999165,234.262791199988,235.26438169999165,234.262791199988,235.26438169999165,234.262791199988,234.76294419998885,234.262791199988,234.76294419998885,234.262791199988,234.76294419998885,234.262791199988,234.76294419998885,234.262791199988,None,,,,,12012,001,2024_Jun_18_1749,nback,2021.2.3,59.93536570834642,
2-back,instructions\back-2.png,conditions\21back-e.xlsx,,,experiment,2,3,stim\gray.png,stim\gray.png,stim\yellow.png,stim\gray.png,left,,,,,,,,,,,,,0,1,1,3,0,13,13,13,,,,,,,,,,,,,,,,,,,,,,,,,,,,,,,,,,,,,,,,,,,,,,,,,,,,,,,,None,0,,235.76458789999015,None,235.76458789999015,None,235.76458789999015,236.76589489998878,235.76458789999015,236.76589489998878,235.76458789999015,236.76589489998878,235.76458789999015,236.76589489998878,235.76458789999015,236.26563309997437,235.76458789999015,236.26563309997437,235.76458789999015,236.26563309997437,235.76458789999015,236.26563309997437,235.76458789999015,None,,,,,12012,001,2024_Jun_18_1749,nback,2021.2.3,59.93536570834642,
2-back,instructions\back-2.png,conditions\21back-e.xlsx,,,experiment,2,1,stim\yellow.png,stim\gray.png,stim\gray.png,stim\gray.png,down,,,,,,,,,,,,,0,1,1,3,0,14,14,14,,,,,,,,,,,,,,,,,,,,,,,,,,,,,,,,,,,,,,,,,,,,,,,,,,,,,,,,down,1,0.22789119998924434,237.26695649998146,None,237.26695649998146,None,237.26695649998146,238.26841930000228,237.26695649998146,238.26841930000228,237.26695649998146,238.26841930000228,237.26695649998146,238.26841930000228,237.26695649998146,237.7679602999997,237.26695649998146,237.7679602999997,237.26695649998146,237.7679602999997,237.26695649998146,237.7679602999997,237.26695649998146,None,,,,,12012,001,2024_Jun_18_1749,nback,2021.2.3,59.93536570834642,
2-back,instructions\back-2.png,conditions\21back-e.xlsx,,,experiment,2,2,stim\gray.png,stim\yellow.png,stim\gray.png,stim\gray.png,right,,,,,,,,,,,,,0,1,1,3,0,15,15,15,,,,,,,,,,,,,,,,,,,,,,,,,,,,,,,,,,,,,,,,,,,,,,,,,,,,,,,,right,1,0.22158859999035485,238.76904039998772,None,238.76904039998772,None,238.76904039998772,239.77071329997852,238.76904039998772,239.77071329997852,238.76904039998772,239.77071329997852,238.76904039998772,239.77071329997852,238.76904039998772,239.26995329998317,238.76904039998772,239.26995329998317,238.76904039998772,239.26995329998317,238.76904039998772,239.26995329998317,238.76904039998772,None,,,,,12012,001,2024_Jun_18_1749,nback,2021.2.3,59.93536570834642,
2-back,instructions\back-2.png,conditions\21back-e.xlsx,,,experiment,2,2,stim\gray.png,stim\yellow.png,stim\gray.png,stim\gray.png,up,,,,,,,,,,,,,0,1,1,3,0,16,16,16,,,,,,,,,,,,,,,,,,,,,,,,,,,,,,,,,,,,,,,,,,,,,,,,,,,,,,,,up,1,0.2634144999901764,240.27145839997684,None,240.27145839997684,None,240.27145839997684,241.2732519999845,240.27145839997684,241.2732519999845,240.27145839997684,241.2732519999845,240.27145839997684,241.2732519999845,240.27145839997684,240.77238619999844,240.27145839997684,240.77238619999844,240.27145839997684,240.77238619999844,240.27145839997684,240.77238619999844,240.27145839997684,None,,,,,12012,001,2024_Jun_18_1749,nback,2021.2.3,59.93536570834642,
2-back,instructions\back-2.png,conditions\21back-e.xlsx,,,experiment,2,1,stim\yellow.png,stim\gray.png,stim\gray.png,stim\gray.png,left,,,,,,,,,,,,,0,1,1,3,0,17,17,17,,,,,,,,,,,,,,,,,,,,,,,,,,,,,,,,,,,,,,,,,,,,,,,,,,,,,,,,left,1,0.20890920000965707,241.77371959999437,None,241.77371959999437,None,241.77371959999437,242.7754633000004,241.77371959999437,242.7754633000004,241.77371959999437,242.7754633000004,241.77371959999437,242.7754633000004,241.77371959999437,242.27455609999015,241.77371959999437,242.27455609999015,241.77371959999437,242.27455609999015,241.77371959999437,242.27455609999015,241.77371959999437,None,,,,,12012,001,2024_Jun_18_1749,nback,2021.2.3,59.93536570834642,
2-back,instructions\back-2.png,conditions\21back-e.xlsx,,,experiment,2,4,stim\gray.png,stim\gray.png,stim\gray.png,stim\yellow.png,left,,,,,,,,,,,,,0,1,1,3,0,18,18,18,,,,,,,,,,,,,,,,,,,,,,,,,,,,,,,,,,,,,,,,,,,,,,,,,,,,,,,,left,1,0.30707010001060553,243.2759742999915,None,243.2759742999915,None,243.2759742999915,244.27796939999098,243.2759742999915,244.27796939999098,243.2759742999915,244.27796939999098,243.2759742999915,244.27796939999098,243.2759742999915,243.77685959998053,243.2759742999915,243.77685959998053,243.2759742999915,243.77685959998053,243.2759742999915,243.77685959998053,243.2759742999915,None,,,,,12012,001,2024_Jun_18_1749,nback,2021.2.3,59.93536570834642,
2-back,instructions\back-2.png,conditions\21back-e.xlsx,,,experiment,2,3,stim\gray.png,stim\gray.png,stim\yellow.png,stim\gray.png,up,,,,,,,,,,,,,0,1,1,3,0,19,19,19,,,,,,,,,,,,,,,,,,,,,,,,,,,,,,,,,,,,,,,,,,,,,,,,,,,,,,,,up,1,0.19804840002325363,244.7615694999986,None,244.7615694999986,None,244.7615694999986,245.76446559999022,244.7615694999986,245.76446559999022,244.7615694999986,245.76446559999022,244.7615694999986,245.76446559999022,244.7615694999986,245.26264689999516,244.7615694999986,245.26264689999516,244.7615694999986,245.26264689999516,244.7615694999986,245.26264689999516,244.7615694999986,None,,,,,12012,001,2024_Jun_18_1749,nback,2021.2.3,59.93536570834642,
2-back,instructions\back-2.png,conditions\21back-e.xlsx,,,,,,,,,,,,,,,,,,,,,,,0,1,1,3,,,,,,,,,,,,,,,,,,,,,,,,,,,,,,,,,,,,,,,,,,,,,,,,,,,,,,,,,,,,,,,,,,,,,,,,,,,,,,,,,,,,,246.26387319999048,None,,,12012,001,2024_Jun_18_1749,nback,2021.2.3,59.93536570834642,
0-back,instructions\back-0.png,conditions\00back-e.xlsx,,,experiment,0,3,stim\gray.png,stim\gray.png,stim\yellow.png,stim\gray.png,right,,,,,,,,,,,,,0,2,2,0,0,0,0,0,,,,,,,,,,,,,,,247.38297529998817,251.8888936000003,251.8554055999848,None,,,,,,,,,,,,,,,,,,,,,,,,,,,,,,,,,,,,,,right,1,0.46030840001185425,252.29062379998504,None,252.29062379998504,None,252.29062379998504,253.29301439999836,252.29062379998504,253.29301439999836,252.29062379998504,253.29301439999836,252.29062379998504,253.29301439999836,252.29062379998504,252.79041079999297,252.29062379998504,252.79041079999297,252.29062379998504,252.79041079999297,252.29062379998504,252.79041079999297,252.29062379998504,None,,,,,12012,001,2024_Jun_18_1749,nback,2021.2.3,59.93536570834642,
0-back,instructions\back-0.png,conditions\00back-e.xlsx,,,experiment,0,4,stim\gray.png,stim\gray.png,stim\gray.png,stim\yellow.png,down,,,,,,,,,,,,,0,2,2,0,0,1,1,1,,,,,,,,,,,,,,,,,,,,,,,,,,,,,,,,,,,,,,,,,,,,,,,,,,,,,,,,down,1,0.48775209998711944,253.77518450000207,None,253.77518450000207,None,253.77518450000207,254.7766389999888,253.77518450000207,254.7766389999888,253.77518450000207,254.7766389999888,253.77518450000207,254.7766389999888,253.77518450000207,254.27600449998863,253.77518450000207,254.27600449998863,253.77518450000207,254.27600449998863,253.77518450000207,254.27600449998863,253.77518450000207,None,,,,,12012,001,2024_Jun_18_1749,nback,2021.2.3,59.93536570834642,
0-back,instructions\back-0.png,conditions\00back-e.xlsx,,,experiment,0,1,stim\yellow.png,stim\gray.png,stim\gray.png,stim\gray.png,up,,,,,,,,,,,,,0,2,2,0,0,2,2,2,,,,,,,,,,,,,,,,,,,,,,,,,,,,,,,,,,,,,,,,,,,,,,,,,,,,,,,,up,1,0.3623555999947712,255.26082179998048,None,255.26082179998048,None,255.26082179998048,256.2629857999855,255.26082179998048,256.2629857999855,255.26082179998048,256.2629857999855,255.26082179998048,256.2629857999855,255.26082179998048,255.76142809999874,255.26082179998048,255.76142809999874,255.26082179998048,255.76142809999874,255.26082179998048,255.76142809999874,255.26082179998048,None,,,,,12012,001,2024_Jun_18_1749,nback,2021.2.3,59.93536570834642,
0-back,instructions\back-0.png,conditions\00back-e.xlsx,,,experiment,0,2,stim\gray.png,stim\yellow.png,stim\gray.png,stim\gray.png,left,,,,,,,,,,,,,0,2,2,0,0,3,3,3,,,,,,,,,,,,,,,,,,,,,,,,,,,,,,,,,,,,,,,,,,,,,,,,,,,,,,,,left,1,0.31609569999272935,256.7628928999766,None,256.7628928999766,None,256.7628928999766,257.7643641999748,256.7628928999766,257.7643641999748,256.7628928999766,257.7643641999748,256.7628928999766,257.7643641999748,256.7628928999766,257.26377959997626,256.7628928999766,257.26377959997626,256.7628928999766,257.26377959997626,256.7628928999766,257.26377959997626,256.7628928999766,None,,,,,12012,001,2024_Jun_18_1749,nback,2021.2.3,59.93536570834642,
0-back,instructions\back-0.png,conditions\00back-e.xlsx,,,experiment,0,2,stim\gray.png,stim\yellow.png,stim\gray.png,stim\gray.png,left,,,,,,,,,,,,,0,2,2,0,0,4,4,4,,,,,,,,,,,,,,,,,,,,,,,,,,,,,,,,,,,,,,,,,,,,,,,,,,,,,,,,left,1,0.35011579998536035,258.26522119998117,None,258.26522119998117,None,258.26522119998117,259.2667530999752,258.26522119998117,259.2667530999752,258.26522119998117,259.2667530999752,258.26522119998117,259.2667530999752,258.26522119998117,258.765928799985,258.26522119998117,258.765928799985,258.26522119998117,258.765928799985,258.26522119998117,258.765928799985,258.26522119998117,None,,,,,12012,001,2024_Jun_18_1749,nback,2021.2.3,59.93536570834642,
0-back,instructions\back-0.png,conditions\00back-e.xlsx,,,experiment,0,1,stim\yellow.png,stim\gray.png,stim\gray.png,stim\gray.png,up,,,,,,,,,,,,,0,2,2,0,0,5,5,5,,,,,,,,,,,,,,,,,,,,,,,,,,,,,,,,,,,,,,,,,,,,,,,,,,,,,,,,up,1,0.3516265999933239,259.7678476999863,None,259.7678476999863,None,259.7678476999863,260.7690970999829,259.7678476999863,260.7690970999829,259.7678476999863,260.7690970999829,259.7678476999863,260.7690970999829,259.7678476999863,260.268339000002,259.7678476999863,260.268339000002,259.7678476999863,260.268339000002,259.7678476999863,260.268339000002,259.7678476999863,None,,,,,12012,001,2024_Jun_18_1749,nback,2021.2.3,59.93536570834642,
0-back,instructions\back-0.png,conditions\00back-e.xlsx,,,experiment,0,4,stim\gray.png,stim\gray.png,stim\gray.png,stim\yellow.png,down,,,,,,,,,,,,,0,2,2,0,0,6,6,6,,,,,,,,,,,,,,,,,,,,,,,,,,,,,,,,,,,,,,,,,,,,,,,,,,,,,,,,down,1,0.36941919999662787,261.26978129998315,None,261.26978129998315,None,261.26978129998315,262.2712801999878,261.26978129998315,262.2712801999878,261.26978129998315,262.2712801999878,261.26978129998315,262.2712801999878,261.26978129998315,261.7705762999831,261.26978129998315,261.7705762999831,261.26978129998315,261.7705762999831,261.26978129998315,261.7705762999831,261.26978129998315,None,,,,,12012,001,2024_Jun_18_1749,nback,2021.2.3,59.93536570834642,
0-back,instructions\back-0.png,conditions\00back-e.xlsx,,,experiment,0,3,stim\gray.png,stim\gray.png,stim\yellow.png,stim\gray.png,right,,,,,,,,,,,,,0,2,2,0,0,7,7,7,,,,,,,,,,,,,,,,,,,,,,,,,,,,,,,,,,,,,,,,,,,,,,,,,,,,,,,,right,1,0.37914800000726245,262.7719880999939,None,262.7719880999939,None,262.7719880999939,263.77350749998004,262.7719880999939,263.77350749998004,262.7719880999939,263.77350749998004,262.7719880999939,263.77350749998004,262.7719880999939,263.2728382999776,262.7719880999939,263.2728382999776,262.7719880999939,263.2728382999776,262.7719880999939,263.2728382999776,262.7719880999939,None,,,,,12012,001,2024_Jun_18_1749,nback,2021.2.3,59.93536570834642,
0-back,instructions\back-0.png,conditions\00back-e.xlsx,,,experiment,0,4,stim\gray.png,stim\gray.png,stim\gray.png,stim\yellow.png,down,,,,,,,,,,,,,0,2,2,0,0,8,8,8,,,,,,,,,,,,,,,,,,,,,,,,,,,,,,,,,,,,,,,,,,,,,,,,,,,,,,,,down,1,0.3889779000019189,264.27422929997556,None,264.27422929997556,None,264.27422929997556,265.27783989999443,264.27422929997556,265.27783989999443,264.27422929997556,265.27783989999443,264.27422929997556,265.27783989999443,264.27422929997556,264.7761320999998,264.27422929997556,264.7761320999998,264.27422929997556,264.7761320999998,264.27422929997556,264.7761320999998,264.27422929997556,None,,,,,12012,001,2024_Jun_18_1749,nback,2021.2.3,59.93536570834642,
0-back,instructions\back-0.png,conditions\00back-e.xlsx,,,experiment,0,3,stim\gray.png,stim\gray.png,stim\yellow.png,stim\gray.png,right,,,,,,,,,,,,,0,2,2,0,0,9,9,9,,,,,,,,,,,,,,,,,,,,,,,,,,,,,,,,,,,,,,,,,,,,,,,,,,,,,,,,right,1,0.36719869999797083,265.77646569997887,None,265.77646569997887,None,265.77646569997887,266.77877589999116,265.77646569997887,266.77877589999116,265.77646569997887,266.77877589999116,265.77646569997887,266.77877589999116,265.77646569997887,266.27740239998093,265.77646569997887,266.27740239998093,265.77646569997887,266.27740239998093,265.77646569997887,266.27740239998093,265.77646569997887,None,,,,,12012,001,2024_Jun_18_1749,nback,2021.2.3,59.93536570834642,
0-back,instructions\back-0.png,conditions\00back-e.xlsx,,,experiment,0,1,stim\yellow.png,stim\gray.png,stim\gray.png,stim\gray.png,up,,,,,,,,,,,,,0,2,2,0,0,10,10,10,,,,,,,,,,,,,,,,,,,,,,,,,,,,,,,,,,,,,,,,,,,,,,,,,,,,,,,,up,1,0.4015289999952074,267.26214219999383,None,267.26214219999383,None,267.26214219999383,268.2636775999854,267.26214219999383,268.2636775999854,267.26214219999383,268.2636775999854,267.26214219999383,268.2636775999854,267.26214219999383,267.7628643999924,267.26214219999383,267.7628643999924,267.26214219999383,267.7628643999924,267.26214219999383,267.7628643999924,267.26214219999383,None,,,,,12012,001,2024_Jun_18_1749,nback,2021.2.3,59.93536570834642,
0-back,instructions\back-0.png,conditions\00back-e.xlsx,,,experiment,0,2,stim\gray.png,stim\yellow.png,stim\gray.png,stim\gray.png,left,,,,,,,,,,,,,0,2,2,0,0,11,11,11,,,,,,,,,,,,,,,,,,,,,,,,,,,,,,,,,,,,,,,,,,,,,,,,,,,,,,,,left,1,0.3471533999836538,268.76438709997456,None,268.76438709997456,None,268.76438709997456,269.7657413999841,268.76438709997456,269.7657413999841,268.76438709997456,269.7657413999841,268.76438709997456,269.7657413999841,268.76438709997456,269.26516689997516,268.76438709997456,269.26516689997516,268.76438709997456,269.26516689997516,268.76438709997456,269.26516689997516,268.76438709997456,None,,,,,12012,001,2024_Jun_18_1749,nback,2021.2.3,59.93536570834642,
0-back,instructions\back-0.png,conditions\00back-e.xlsx,,,experiment,0,3,stim\gray.png,stim\gray.png,stim\yellow.png,stim\gray.png,right,,,,,,,,,,,,,0,2,2,0,0,12,12,12,,,,,,,,,,,,,,,,,,,,,,,,,,,,,,,,,,,,,,,,,,,,,,,,,,,,,,,,right,1,0.3323759000049904,270.26761219999753,None,270.26761219999753,None,270.26761219999753,271.2697718999989,270.26761219999753,271.2697718999989,270.26761219999753,271.2697718999989,270.26761219999753,271.2697718999989,270.26761219999753,270.7674883999862,270.26761219999753,270.7674883999862,270.26761219999753,270.7674883999862,270.26761219999753,270.7674883999862,270.26761219999753,None,,,,,12012,001,2024_Jun_18_1749,nback,2021.2.3,59.93536570834642,
0-back,instructions\back-0.png,conditions\00back-e.xlsx,,,experiment,0,1,stim\yellow.png,stim\gray.png,stim\gray.png,stim\gray.png,up,,,,,,,,,,,,,0,2,2,0,0,13,13,13,,,,,,,,,,,,,,,,,,,,,,,,,,,,,,,,,,,,,,,,,,,,,,,,,,,,,,,,up,1,0.36694349997560494,271.769097899989,None,271.769097899989,None,271.769097899989,272.77059499997995,271.769097899989,272.77059499997995,271.769097899989,272.77059499997995,271.769097899989,272.77059499997995,271.769097899989,272.26972029998433,271.769097899989,272.26972029998433,271.769097899989,272.26972029998433,271.769097899989,272.26972029998433,271.769097899989,None,,,,,12012,001,2024_Jun_18_1749,nback,2021.2.3,59.93536570834642,
0-back,instructions\back-0.png,conditions\00back-e.xlsx,,,experiment,0,4,stim\gray.png,stim\gray.png,stim\gray.png,stim\yellow.png,down,,,,,,,,,,,,,0,2,2,0,0,14,14,14,,,,,,,,,,,,,,,,,,,,,,,,,,,,,,,,,,,,,,,,,,,,,,,,,,,,,,,,down,1,0.416270199988503,273.27120170000126,None,273.27120170000126,None,273.27120170000126,274.2728453000018,273.27120170000126,274.2728453000018,273.27120170000126,274.2728453000018,273.27120170000126,274.2728453000018,273.27120170000126,273.77211349998834,273.27120170000126,273.77211349998834,273.27120170000126,273.77211349998834,273.27120170000126,273.77211349998834,273.27120170000126,None,,,,,12012,001,2024_Jun_18_1749,nback,2021.2.3,59.93536570834642,
0-back,instructions\back-0.png,conditions\00back-e.xlsx,,,experiment,0,2,stim\gray.png,stim\yellow.png,stim\gray.png,stim\gray.png,left,,,,,,,,,,,,,0,2,2,0,0,15,15,15,,,,,,,,,,,,,,,,,,,,,,,,,,,,,,,,,,,,,,,,,,,,,,,,,,,,,,,,left,1,0.3073370000056457,274.77335249999305,None,274.77335249999305,None,274.77335249999305,275.775023299997,274.77335249999305,275.775023299997,274.77335249999305,275.775023299997,274.77335249999305,275.775023299997,274.77335249999305,275.27424899998005,274.77335249999305,275.27424899998005,274.77335249999305,275.27424899998005,274.77335249999305,275.27424899998005,274.77335249999305,None,,,,,12012,001,2024_Jun_18_1749,nback,2021.2.3,59.93536570834642,
0-back,instructions\back-0.png,conditions\00back-e.xlsx,,,experiment,0,1,stim\yellow.png,stim\gray.png,stim\gray.png,stim\gray.png,up,,,,,,,,,,,,,0,2,2,0,0,16,16,16,,,,,,,,,,,,,,,,,,,,,,,,,,,,,,,,,,,,,,,,,,,,,,,,,,,,,,,,up,1,0.3716829000040889,276.27599129997543,None,276.27599129997543,None,276.27599129997543,277.27730429999065,276.27599129997543,277.27730429999065,276.27599129997543,277.27730429999065,276.27599129997543,277.27730429999065,276.27599129997543,276.77652479999233,276.27599129997543,276.77652479999233,276.27599129997543,276.77652479999233,276.27599129997543,276.77652479999233,276.27599129997543,None,,,,,12012,001,2024_Jun_18_1749,nback,2021.2.3,59.93536570834642,
0-back,instructions\back-0.png,conditions\00back-e.xlsx,,,experiment,0,2,stim\gray.png,stim\yellow.png,stim\gray.png,stim\gray.png,left,,,,,,,,,,,,,0,2,2,0,0,17,17,17,,,,,,,,,,,,,,,,,,,,,,,,,,,,,,,,,,,,,,,,,,,,,,,,,,,,,,,,left,1,0.3827826000051573,277.761179299996,None,277.761179299996,None,277.761179299996,278.76259909998043,277.761179299996,278.76259909998043,277.761179299996,278.76259909998043,277.761179299996,278.76259909998043,277.761179299996,278.26202389999526,277.761179299996,278.26202389999526,277.761179299996,278.26202389999526,277.761179299996,278.26202389999526,277.761179299996,None,,,,,12012,001,2024_Jun_18_1749,nback,2021.2.3,59.93536570834642,
0-back,instructions\back-0.png,conditions\00back-e.xlsx,,,experiment,0,3,stim\gray.png,stim\gray.png,stim\yellow.png,stim\gray.png,right,,,,,,,,,,,,,0,2,2,0,0,18,18,18,,,,,,,,,,,,,,,,,,,,,,,,,,,,,,,,,,,,,,,,,,,,,,,,,,,,,,,,right,1,0.3199820999871008,279.2635823999881,None,279.2635823999881,None,279.2635823999881,280.2660362999886,279.2635823999881,280.2660362999886,279.2635823999881,280.2660362999886,279.2635823999881,280.2660362999886,279.2635823999881,279.76468439999735,279.2635823999881,279.76468439999735,279.2635823999881,279.76468439999735,279.2635823999881,279.76468439999735,279.2635823999881,None,,,,,12012,001,2024_Jun_18_1749,nback,2021.2.3,59.93536570834642,
0-back,instructions\back-0.png,conditions\00back-e.xlsx,,,experiment,0,4,stim\gray.png,stim\gray.png,stim\gray.png,stim\yellow.png,down,,,,,,,,,,,,,0,2,2,0,0,19,19,19,,,,,,,,,,,,,,,,,,,,,,,,,,,,,,,,,,,,,,,,,,,,,,,,,,,,,,,,down,1,0.38573119998909533,280.7658029999875,None,280.7658029999875,None,280.7658029999875,281.7673261000018,280.7658029999875,281.7673261000018,280.7658029999875,281.7673261000018,280.7658029999875,281.7673261000018,280.7658029999875,281.26665589999175,280.7658029999875,281.26665589999175,280.7658029999875,281.26665589999175,280.7658029999875,281.26665589999175,280.7658029999875,None,,,,,12012,001,2024_Jun_18_1749,nback,2021.2.3,59.93536570834642,
0-back,instructions\back-0.png,conditions\00back-e.xlsx,,,,,,,,,,,,,,,,,,,,,,,0,2,2,0,,,,,,,,,,,,,,,,,,,,,,,,,,,,,,,,,,,,,,,,,,,,,,,,,,,,,,,,,,,,,,,,,,,,,,,,,,,,,,,,,,,,,282.2681074999855,None,,,12012,001,2024_Jun_18_1749,nback,2021.2.3,59.93536570834642,
1-back,instructions\back-1.png,conditions\12back-e.xlsx,,,experiment,1,2,stim\gray.png,stim\yellow.png,stim\gray.png,stim\gray.png,None,,,,,,,,,,,,,0,3,3,6,0,0,0,0,,,,,,,,,,,,,,,283.36904349998804,287.87801200000104,287.86046409999835,None,,,,,,,,,,,,,,,,,,,,,,,,,,,,,,,,,,,,,,None,1,,288.2952336999879,None,288.2952336999879,None,288.2952336999879,289.2956477999978,288.2952336999879,289.2956477999978,288.2952336999879,289.2956477999978,288.2952336999879,289.2956477999978,288.2952336999879,288.79475299999467,288.2952336999879,288.79475299999467,288.2952336999879,288.79475299999467,288.2952336999879,288.79475299999467,288.2952336999879,None,,,,,12012,001,2024_Jun_18_1749,nback,2021.2.3,59.93536570834642,
1-back,instructions\back-1.png,conditions\12back-e.xlsx,,,experiment,1,3,stim\gray.png,stim\gray.png,stim\yellow.png,stim\gray.png,left,,,,,,,,,,,,,0,3,3,6,0,1,1,1,,,,,,,,,,,,,,,,,,,,,,,,,,,,,,,,,,,,,,,,,,,,,,,,,,,,,,,,left,1,0.5898376000113785,289.76256779997493,None,289.76256779997493,None,289.76256779997493,290.764562700002,289.76256779997493,290.764562700002,289.76256779997493,290.764562700002,289.76256779997493,290.764562700002,289.76256779997493,290.2636222000001,289.76256779997493,290.2636222000001,289.76256779997493,290.2636222000001,289.76256779997493,290.2636222000001,289.76256779997493,None,,,,,12012,001,2024_Jun_18_1749,nback,2021.2.3,59.93536570834642,
1-back,instructions\back-1.png,conditions\12back-e.xlsx,,,experiment,1,4,stim\gray.png,stim\gray.png,stim\gray.png,stim\yellow.png,right,,,,,,,,,,,,,0,3,3,6,0,2,2,2,,,,,,,,,,,,,,,,,,,,,,,,,,,,,,,,,,,,,,,,,,,,,,,,,,,,,,,,right,1,0.35099939999054186,291.2649773999874,None,291.2649773999874,None,291.2649773999874,292.266475899989,291.2649773999874,292.266475899989,291.2649773999874,292.266475899989,291.2649773999874,292.266475899989,291.2649773999874,291.765837199986,291.2649773999874,291.765837199986,291.2649773999874,291.765837199986,291.2649773999874,291.765837199986,291.2649773999874,None,,,,,12012,001,2024_Jun_18_1749,nback,2021.2.3,59.93536570834642,
1-back,instructions\back-1.png,conditions\12back-e.xlsx,,,experiment,1,3,stim\gray.png,stim\gray.png,stim\yellow.png,stim\gray.png,down,,,,,,,,,,,,,0,3,3,6,0,3,3,3,,,,,,,,,,,,,,,,,,,,,,,,,,,,,,,,,,,,,,,,,,,,,,,,,,,,,,,,down,1,0.25658700001076795,292.7673149999755,None,292.7673149999755,None,292.7673149999755,293.76935859999503,292.7673149999755,293.76935859999503,292.7673149999755,293.76935859999503,292.7673149999755,293.76935859999503,292.7673149999755,293.2679131999903,292.7673149999755,293.2679131999903,292.7673149999755,293.2679131999903,292.7673149999755,293.2679131999903,292.7673149999755,None,,,,,12012,001,2024_Jun_18_1749,nback,2021.2.3,59.93536570834642,
1-back,instructions\back-1.png,conditions\12back-e.xlsx,,,experiment,1,1,stim\yellow.png,stim\gray.png,stim\gray.png,stim\gray.png,right,,,,,,,,,,,,,0,3,3,6,0,4,4,4,,,,,,,,,,,,,,,,,,,,,,,,,,,,,,,,,,,,,,,,,,,,,,,,,,,,,,,,right,1,0.15452640000148676,294.2695593999815,None,294.2695593999815,None,294.2695593999815,295.2710912999755,294.2695593999815,295.2710912999755,294.2695593999815,295.2710912999755,294.2695593999815,295.2710912999755,294.2695593999815,294.7703725999745,294.2695593999815,294.7703725999745,294.2695593999815,294.7703725999745,294.2695593999815,294.7703725999745,294.2695593999815,None,,,,,12012,001,2024_Jun_18_1749,nback,2021.2.3,59.93536570834642,
1-back,instructions\back-1.png,conditions\12back-e.xlsx,,,experiment,1,2,stim\gray.png,stim\yellow.png,stim\gray.png,stim\gray.png,up,,,,,,,,,,,,,0,3,3,6,0,5,5,5,,,,,,,,,,,,,,,,,,,,,,,,,,,,,,,,,,,,,,,,,,,,,,,,,,,,,,,,up,1,0.26021350000519305,295.7718649999879,None,295.7718649999879,None,295.7718649999879,296.77381669997703,295.7718649999879,296.77381669997703,295.7718649999879,296.77381669997703,295.7718649999879,296.77381669997703,295.7718649999879,296.2726605999924,295.7718649999879,296.2726605999924,295.7718649999879,296.2726605999924,295.7718649999879,296.2726605999924,295.7718649999879,None,,,,,12012,001,2024_Jun_18_1749,nback,2021.2.3,59.93536570834642,
1-back,instructions\back-1.png,conditions\12back-e.xlsx,,,experiment,1,2,stim\gray.png,stim\yellow.png,stim\gray.png,stim\gray.png,left,,,,,,,,,,,,,0,3,3,6,0,6,6,6,,,,,,,,,,,,,,,,,,,,,,,,,,,,,,,,,,,,,,,,,,,,,,,,,,,,,,,,left,1,0.262068799987901,297.2741269999824,None,297.2741269999824,None,297.2741269999824,298.27584639997804,297.2741269999824,298.27584639997804,297.2741269999824,298.27584639997804,297.2741269999824,298.27584639997804,297.2741269999824,297.7747916999797,297.2741269999824,297.7747916999797,297.2741269999824,297.7747916999797,297.2741269999824,297.7747916999797,297.2741269999824,None,,,,,12012,001,2024_Jun_18_1749,nback,2021.2.3,59.93536570834642,
1-back,instructions\back-1.png,conditions\12back-e.xlsx,,,experiment,1,4,stim\gray.png,stim\gray.png,stim\gray.png,stim\yellow.png,left,,,,,,,,,,,,,0,3,3,6,0,7,7,7,,,,,,,,,,,,,,,,,,,,,,,,,,,,,,,,,,,,,,,,,,,,,,,,,,,,,,,,left,1,0.27988770001684316,298.7762458999932,None,298.7762458999932,None,298.7762458999932,299.777789499989,298.7762458999932,299.777789499989,298.7762458999932,299.777789499989,298.7762458999932,299.777789499989,298.7762458999932,299.2771219999995,298.7762458999932,299.2771219999995,298.7762458999932,299.2771219999995,298.7762458999932,299.2771219999995,298.7762458999932,None,,,,,12012,001,2024_Jun_18_1749,nback,2021.2.3,59.93536570834642,
1-back,instructions\back-1.png,conditions\12back-e.xlsx,,,experiment,1,1,stim\yellow.png,stim\gray.png,stim\gray.png,stim\gray.png,down,,,,,,,,,,,,,0,3,3,6,0,8,8,8,,,,,,,,,,,,,,,,,,,,,,,,,,,,,,,,,,,,,,,,,,,,,,,,,,,,,,,,down,1,0.2341248999873642,300.2622544999758,None,300.2622544999758,None,300.2622544999758,301.26340009999694,300.2622544999758,301.26340009999694,300.2622544999758,301.26340009999694,300.2622544999758,301.26340009999694,300.2622544999758,300.7625216000015,300.2622544999758,300.7625216000015,300.2622544999758,300.7625216000015,300.2622544999758,300.7625216000015,300.2622544999758,None,,,,,12012,001,2024_Jun_18_1749,nback,2021.2.3,59.93536570834642,
1-back,instructions\back-1.png,conditions\12back-e.xlsx,,,experiment,1,3,stim\gray.png,stim\gray.png,stim\yellow.png,stim\gray.png,up,,,,,,,,,,,,,0,3,3,6,0,9,9,9,,,,,,,,,,,,,,,,,,,,,,,,,,,,,,,,,,,,,,,,,,,,,,,,,,,,,,,,up,1,0.29206320000230335,301.76427149999654,None,301.76427149999654,None,301.76427149999654,302.765822699992,301.76427149999654,302.765822699992,301.76427149999654,302.765822699992,301.76427149999654,302.765822699992,301.76427149999654,302.2650065999769,301.76427149999654,302.2650065999769,301.76427149999654,302.2650065999769,301.76427149999654,302.2650065999769,301.76427149999654,None,,,,,12012,001,2024_Jun_18_1749,nback,2021.2.3,59.93536570834642,
1-back,instructions\back-1.png,conditions\12back-e.xlsx,,,experiment,1,4,stim\gray.png,stim\gray.png,stim\gray.png,stim\yellow.png,right,,,,,,,,,,,,,0,3,3,6,0,10,10,10,,,,,,,,,,,,,,,,,,,,,,,,,,,,,,,,,,,,,,,,,,,,,,,,,,,,,,,,right,1,0.20610270000179298,303.26645229998394,None,303.26645229998394,None,303.26645229998394,304.26811409997754,303.26645229998394,304.26811409997754,303.26645229998394,304.26811409997754,303.26645229998394,304.26811409997754,303.26645229998394,303.7671100999869,303.26645229998394,303.7671100999869,303.26645229998394,303.7671100999869,303.26645229998394,303.7671100999869,303.26645229998394,None,,,,,12012,001,2024_Jun_18_1749,nback,2021.2.3,59.93536570834642,
1-back,instructions\back-1.png,conditions\12back-e.xlsx,,,experiment,1,3,stim\gray.png,stim\gray.png,stim\yellow.png,stim\gray.png,down,,,,,,,,,,,,,0,3,3,6,0,11,11,11,,,,,,,,,,,,,,,,,,,,,,,,,,,,,,,,,,,,,,,,,,,,,,,,,,,,,,,,down,1,0.1911563000176102,304.7695068999892,None,304.7695068999892,None,304.7695068999892,305.77051789997495,304.7695068999892,305.77051789997495,304.7695068999892,305.77051789997495,304.7695068999892,305.77051789997495,304.7695068999892,305.2695335999888,304.7695068999892,305.2695335999888,304.7695068999892,305.2695335999888,304.7695068999892,305.2695335999888,304.7695068999892,None,,,,,12012,001,2024_Jun_18_1749,nback,2021.2.3,59.93536570834642,
1-back,instructions\back-1.png,conditions\12back-e.xlsx,,,experiment,1,1,stim\yellow.png,stim\gray.png,stim\gray.png,stim\gray.png,left,,,,,,,,,,,,,0,3,3,6,0,12,12,12,,,,,,,,,,,,,,,,,,,,,,,,,,,,,,,,,,,,,,,,,,,,,,,,,,,,,,,,right,0,0.20795289997477084,306.2724543999939,None,306.2724543999939,None,306.2724543999939,307.27284019999206,306.2724543999939,307.27284019999206,306.2724543999939,307.27284019999206,306.2724543999939,307.27284019999206,306.2724543999939,306.77238819998456,306.2724543999939,306.77238819998456,306.2724543999939,306.77238819998456,306.2724543999939,306.77238819998456,306.2724543999939,None,,,,,12012,001,2024_Jun_18_1749,nback,2021.2.3,59.93536570834642,
1-back,instructions\back-1.png,conditions\12back-e.xlsx,,,experiment,1,4,stim\gray.png,stim\gray.png,stim\gray.png,stim\yellow.png,up,,,,,,,,,,,,,0,3,3,6,0,13,13,13,,,,,,,,,,,,,,,,,,,,,,,,,,,,,,,,,,,,,,,,,,,,,,,,,,,,,,,,up,1,0.18712119999690913,307.77329789998475,None,307.77329789998475,None,307.77329789998475,308.77517859998625,307.77329789998475,308.77517859998625,307.77329789998475,308.77517859998625,307.77329789998475,308.77517859998625,307.77329789998475,308.274047599989,307.77329789998475,308.274047599989,307.77329789998475,308.274047599989,307.77329789998475,308.274047599989,307.77329789998475,None,,,,,12012,001,2024_Jun_18_1749,nback,2021.2.3,59.93536570834642,
1-back,instructions\back-1.png,conditions\12back-e.xlsx,,,experiment,1,1,stim\yellow.png,stim\gray.png,stim\gray.png,stim\gray.png,down,,,,,,,,,,,,,0,3,3,6,0,14,14,14,,,,,,,,,,,,,,,,,,,,,,,,,,,,,,,,,,,,,,,,,,,,,,,,,,,,,,,,down,1,0.2210620999976527,309.2754604999791,None,309.2754604999791,None,309.2754604999791,310.27696950000245,309.2754604999791,310.27696950000245,309.2754604999791,310.27696950000245,309.2754604999791,310.27696950000245,309.2754604999791,309.77611099998467,309.2754604999791,309.77611099998467,309.2754604999791,309.77611099998467,309.2754604999791,309.77611099998467,309.2754604999791,None,,,,,12012,001,2024_Jun_18_1749,nback,2021.2.3,59.93536570834642,
1-back,instructions\back-1.png,conditions\12back-e.xlsx,,,experiment,1,2,stim\gray.png,stim\yellow.png,stim\gray.png,stim\gray.png,up,,,,,,,,,,,,,0,3,3,6,0,15,15,15,,,,,,,,,,,,,,,,,,,,,,,,,,,,,,,,,,,,,,,,,,,,,,,,,,,,,,,,up,1,0.36761750001460314,310.7610579999746,None,310.7610579999746,None,310.7610579999746,311.7628601999895,310.7610579999746,311.7628601999895,310.7610579999746,311.7628601999895,310.7610579999746,311.7628601999895,310.7610579999746,311.26185439998517,310.7610579999746,311.26185439998517,310.7610579999746,311.26185439998517,310.7610579999746,311.26185439998517,310.7610579999746,None,,,,,12012,001,2024_Jun_18_1749,nback,2021.2.3,59.93536570834642,
1-back,instructions\back-1.png,conditions\12back-e.xlsx,,,experiment,1,1,stim\yellow.png,stim\gray.png,stim\gray.png,stim\gray.png,left,,,,,,,,,,,,,0,3,3,6,0,16,16,16,,,,,,,,,,,,,,,,,,,,,,,,,,,,,,,,,,,,,,,,,,,,,,,,,,,,,,,,left,1,0.3850473999918904,312.2633908999851,None,312.2633908999851,None,312.2633908999851,313.2675886999932,312.2633908999851,313.2675886999932,312.2633908999851,313.2675886999932,312.2633908999851,313.2675886999932,312.2633908999851,312.76406269997824,312.2633908999851,312.76406269997824,312.2633908999851,312.76406269997824,312.2633908999851,312.76406269997824,312.2633908999851,None,,,,,12012,001,2024_Jun_18_1749,nback,2021.2.3,59.93536570834642,
1-back,instructions\back-1.png,conditions\12back-e.xlsx,,,experiment,1,3,stim\gray.png,stim\gray.png,stim\yellow.png,stim\gray.png,up,,,,,,,,,,,,,0,3,3,6,0,17,17,17,,,,,,,,,,,,,,,,,,,,,,,,,,,,,,,,,,,,,,,,,,,,,,,,,,,,,,,,up,1,0.32281469998997636,313.7656388999894,None,313.7656388999894,None,313.7656388999894,314.7670919999946,313.7656388999894,314.7670919999946,313.7656388999894,314.7670919999946,313.7656388999894,314.7670919999946,313.7656388999894,314.2663687999884,313.7656388999894,314.2663687999884,313.7656388999894,314.2663687999884,313.7656388999894,314.2663687999884,313.7656388999894,None,,,,,12012,001,2024_Jun_18_1749,nback,2021.2.3,59.93536570834642,
