backseq,backinstr,backfile,instruction,size_in,Trialtype,back,number,P1,P2,P3,P4,corrAns,trials_practice.thisRepN,trials_practice.thisTrialN,trials_practice.thisN,trials_practice.thisIndex,trials.thisRepN,trials.thisTrialN,trials.thisN,trials.thisIndex,trials_3.thisRepN,trials_3.thisTrialN,trials_3.thisN,trials_3.thisIndex,trials_2.thisRepN,trials_2.thisTrialN,trials_2.thisN,trials_2.thisIndex,trials_4.thisRepN,trials_4.thisTrialN,trials_4.thisN,trials_4.thisIndex,image.started,image.stopped,image_2.started,image_2.stopped,key_resp.keys,key_resp.rt,key_resp.started,key_resp.stopped,image_3.started,image_3.stopped,key_resp_2.keys,key_resp_2.rt,key_resp_2.started,key_resp_2.stopped,image_4.started,image_4.stopped,text.started,text.stopped,H1.started,H1.stopped,H2.started,H2.stopped,H3.started,H3.stopped,H4.started,H4.stopped,key_resp_3.keys,key_resp_3.corr,key_resp_3.rt,key_resp_3.started,key_resp_3.stopped,text_4.started,text_4.stopped,F1.started,F1.stopped,F2.started,F2.stopped,F3.started,F3.stopped,F4.started,F4.stopped,image_7.started,image_7.stopped,text_5.started,text_5.stopped,key_resp_6.keys,key_resp_6.rt,key_resp_6.started,key_resp_6.stopped,image_5.started,image_5.stopped,key_resp_4.keys,key_resp_4.rt,key_resp_4.started,key_resp_4.stopped,key_resp_5.keys,key_resp_5.corr,key_resp_5.started,key_resp_5.stopped,text_3.started,text_3.stopped,H1_2.started,H1_2.stopped,H2_2.started,H2_2.stopped,H3_2.started,H3_2.stopped,H4_2.started,H4_2.stopped,F1_2.started,F1_2.stopped,F2_2.started,F2_2.stopped,F3_2.started,F3_2.stopped,F4_2.started,F4_2.stopped,image_8.started,image_8.stopped,key_resp_5.rt,text_2.started,text_2.stopped,image_6.started,image_6.stopped,participant,session,date,expName,psychopyVersion,frameRate,
,,,,,,,,,,,,,,,,,,,,,,,,,,,,,,,,,11.896736099999544,None,12.831483099999787,None,space,1.1584641999997984,12.831483099999787,None,,,,,,,,,,,,,,,,,,,,,,,,,,,,,,,,,,,,,,,,,,,,,,,,,,,,,,,,,,,,,,,,,,,,,,,,,,,,,12010,001,2024_Jun_15_1940,nback,2021.2.3,59.546174783716324,
0-back,instructions\back-0.png,conditions\0back-p.xlsx,instructions\0-BACK.png,"(15, 8)",practice,0,1,stim\yellow.png,stim\gray.png,stim\gray.png,stim\gray.png,up,0,0,0,0,0,0,0,0,0,0,0,0,,,,,,,,,,,,,,,,,14.049665300000015,None,space,3.8969406999995044,14.049665300000015,None,18.139830000000075,22.647135000000162,22.579580599999645,None,23.047074400000383,24.048592299999655,23.047074400000383,24.048592299999655,23.047074400000383,24.048592299999655,23.047074400000383,24.048592299999655,up,1,0.7722408999998152,23.047074400000383,None,23.047074400000383,None,23.047074400000383,23.547786000000087,23.047074400000383,23.547786000000087,23.047074400000383,23.547786000000087,23.047074400000383,23.547786000000087,23.047074400000383,None,,,,,,,,,,,,,,,,,,,,,,,,,,,,,,,,,,,,,,,,,,12010,001,2024_Jun_15_1940,nback,2021.2.3,59.546174783716324,
0-back,instructions\back-0.png,conditions\0back-p.xlsx,instructions\0-BACK.png,"(15, 8)",practice,0,2,stim\gray.png,stim\yellow.png,stim\gray.png,stim\gray.png,left,0,0,0,0,0,0,0,0,0,1,1,1,,,,,,,,,,,,,,,,,,,,,,,,,,,24.482319599999755,25.484035599999515,24.482319599999755,25.484035599999515,24.482319599999755,25.484035599999515,24.482319599999755,25.484035599999515,left,1,0.585269100000005,24.482319599999755,None,24.482319599999755,None,24.482319599999755,24.98330729999998,24.482319599999755,24.98330729999998,24.482319599999755,24.98330729999998,24.482319599999755,24.98330729999998,24.482319599999755,None,,,,,,,,,,,,,,,,,,,,,,,,,,,,,,,,,,,,,,,,,,12010,001,2024_Jun_15_1940,nback,2021.2.3,59.546174783716324,
0-back,instructions\back-0.png,conditions\0back-p.xlsx,instructions\0-BACK.png,"(15, 8)",practice,0,3,stim\gray.png,stim\gray.png,stim\yellow.png,stim\gray.png,right,0,0,0,0,0,0,0,0,0,2,2,2,,,,,,,,,,,,,,,,,,,,,,,,,,,25.98477389999971,26.98739139999998,25.98477389999971,26.98739139999998,25.98477389999971,26.98739139999998,25.98477389999971,26.98739139999998,right,1,0.5313551999997799,25.98477389999971,None,25.98477389999971,None,25.98477389999971,26.485398099999657,25.98477389999971,26.485398099999657,25.98477389999971,26.485398099999657,25.98477389999971,26.485398099999657,25.98477389999971,None,,,,,,,,,,,,,,,,,,,,,,,,,,,,,,,,,,,,,,,,,,12010,001,2024_Jun_15_1940,nback,2021.2.3,59.546174783716324,
0-back,instructions\back-0.png,conditions\0back-p.xlsx,instructions\0-BACK.png,"(15, 8)",practice,0,4,stim\gray.png,stim\gray.png,stim\gray.png,stim\yellow.png,down,0,0,0,0,0,0,0,0,0,3,3,3,,,,,,,,,,,,,,,,,,,,,,,,,,,27.48697119999997,28.48854730000039,27.48697119999997,28.48854730000039,27.48697119999997,28.48854730000039,27.48697119999997,28.48854730000039,down,1,0.5322772999998051,27.48697119999997,None,27.48697119999997,None,27.48697119999997,27.988152300000365,27.48697119999997,27.988152300000365,27.48697119999997,27.988152300000365,27.48697119999997,27.988152300000365,27.48697119999997,None,,,,,,,,,,,,,,,,,,,,,,,,,,,,,,,,,,,,,,,,,,12010,001,2024_Jun_15_1940,nback,2021.2.3,59.546174783716324,
0-back,instructions\back-0.png,conditions\0back-p.xlsx,instructions\0-BACK.png,"(15, 8)",practice,0,2,stim\gray.png,stim\yellow.png,stim\gray.png,stim\gray.png,left,0,0,0,0,0,0,0,0,0,4,4,4,,,,,,,,,,,,,,,,,,,,,,,,,,,28.989237499999945,29.990582399999766,28.989237499999945,29.990582399999766,28.989237499999945,29.990582399999766,28.989237499999945,29.990582399999766,left,1,0.4465285000005679,28.989237499999945,None,28.989237499999945,None,28.989237499999945,29.490333900000223,28.989237499999945,29.490333900000223,28.989237499999945,29.490333900000223,28.989237499999945,29.490333900000223,28.989237499999945,None,,,,,,,,,,,,,,,,,,,,,,,,,,,,,,,,,,,,,,,,,,12010,001,2024_Jun_15_1940,nback,2021.2.3,59.546174783716324,
0-back,instructions\back-0.png,conditions\0back-p.xlsx,instructions\0-BACK.png,"(15, 8)",practice,0,1,stim\yellow.png,stim\gray.png,stim\gray.png,stim\gray.png,up,0,0,0,0,0,0,0,0,0,5,5,5,,,,,,,,,,,,,,,,,,,,,,,,,,,30.491576100000202,31.49277970000003,30.491576100000202,31.49277970000003,30.491576100000202,31.49277970000003,30.491576100000202,31.49277970000003,up,1,0.33578010000019276,30.491576100000202,None,30.491576100000202,None,30.491576100000202,30.99226019999969,30.491576100000202,30.99226019999969,30.491576100000202,30.99226019999969,30.491576100000202,30.99226019999969,30.491576100000202,None,,,,,,,,,,,,,,,,,,,,,,,,,,,,,,,,,,,,,,,,,,12010,001,2024_Jun_15_1940,nback,2021.2.3,59.546174783716324,
0-back,instructions\back-0.png,conditions\0back-p.xlsx,instructions\0-BACK.png,"(15, 8)",practice,0,4,stim\gray.png,stim\gray.png,stim\gray.png,stim\yellow.png,down,0,0,0,0,0,0,0,0,0,6,6,6,,,,,,,,,,,,,,,,,,,,,,,,,,,31.993673199999648,32.99524709999969,31.993673199999648,32.99524709999969,31.993673199999648,32.99524709999969,31.993673199999648,32.99524709999969,down,1,0.5940697999994882,31.993673199999648,None,31.993673199999648,None,31.993673199999648,32.49463790000027,31.993673199999648,32.49463790000027,31.993673199999648,32.49463790000027,31.993673199999648,32.49463790000027,31.993673199999648,None,,,,,,,,,,,,,,,,,,,,,,,,,,,,,,,,,,,,,,,,,,12010,001,2024_Jun_15_1940,nback,2021.2.3,59.546174783716324,
0-back,instructions\back-0.png,conditions\0back-p.xlsx,instructions\0-BACK.png,"(15, 8)",practice,0,3,stim\gray.png,stim\gray.png,stim\yellow.png,stim\gray.png,right,0,0,0,0,0,0,0,0,0,7,7,7,,,,,,,,,,,,,,,,,,,,,,,,,,,33.47933720000037,34.48084159999962,33.47933720000037,34.48084159999962,33.47933720000037,34.48084159999962,33.47933720000037,34.48084159999962,right,1,0.5007568999999421,33.47933720000037,None,33.47933720000037,None,33.47933720000037,33.98019459999978,33.47933720000037,33.98019459999978,33.47933720000037,33.98019459999978,33.47933720000037,33.98019459999978,33.47933720000037,None,,,,,,,,,,,,,,,,,,,,,,,,,,,,,,,,,,,,,,,,,,12010,001,2024_Jun_15_1940,nback,2021.2.3,59.546174783716324,
0-back,instructions\back-0.png,conditions\0back-p.xlsx,instructions\0-BACK.png,"(15, 8)",practice,0,3,stim\gray.png,stim\gray.png,stim\yellow.png,stim\gray.png,right,0,0,0,0,0,0,0,0,0,8,8,8,,,,,,,,,,,,,,,,,,,,,,,,,,,34.981652499999655,35.983779199999844,34.981652499999655,35.983779199999844,34.981652499999655,35.983779199999844,34.981652499999655,35.983779199999844,right,1,0.4700311000005968,34.981652499999655,None,34.981652499999655,None,34.981652499999655,35.48231329999999,34.981652499999655,35.48231329999999,34.981652499999655,35.48231329999999,34.981652499999655,35.48231329999999,34.981652499999655,None,,,,,,,,,,,,,,,,,,,,,,,,,,,,,,,,,,,,,,,,,,12010,001,2024_Jun_15_1940,nback,2021.2.3,59.546174783716324,
0-back,instructions\back-0.png,conditions\0back-p.xlsx,instructions\0-BACK.png,"(15, 8)",practice,0,4,stim\gray.png,stim\gray.png,stim\gray.png,stim\yellow.png,down,0,0,0,0,0,0,0,0,0,9,9,9,,,,,,,,,,,,,,,,,,,,,,,,,,,36.48381919999974,37.48626719999993,36.48381919999974,37.48626719999993,36.48381919999974,37.48626719999993,36.48381919999974,37.48626719999993,down,1,0.5119278000001941,36.48381919999974,None,36.48381919999974,None,36.48381919999974,36.985700799999904,36.48381919999974,36.985700799999904,36.48381919999974,36.985700799999904,36.48381919999974,36.985700799999904,36.48381919999974,None,,,,,,,,,,,,,,,,,,,,,,,,,,,,,,,,,,,,,,,,,,12010,001,2024_Jun_15_1940,nback,2021.2.3,59.546174783716324,
0-back,instructions\back-0.png,conditions\0back-p.xlsx,instructions\0-BACK.png,"(15, 8)",practice,0,1,stim\yellow.png,stim\gray.png,stim\gray.png,stim\gray.png,up,0,0,0,0,0,0,0,0,0,10,10,10,,,,,,,,,,,,,,,,,,,,,,,,,,,37.98752380000042,38.987960999999814,37.98752380000042,38.987960999999814,37.98752380000042,38.987960999999814,37.98752380000042,38.987960999999814,up,1,0.4162036999996417,37.98752380000042,None,37.98752380000042,None,37.98752380000042,38.486835200000314,37.98752380000042,38.486835200000314,37.98752380000042,38.486835200000314,37.98752380000042,38.486835200000314,37.98752380000042,None,,,,,,,,,,,,,,,,,,,,,,,,,,,,,,,,,,,,,,,,,,12010,001,2024_Jun_15_1940,nback,2021.2.3,59.546174783716324,
0-back,instructions\back-0.png,conditions\0back-p.xlsx,instructions\0-BACK.png,"(15, 8)",practice,0,2,stim\gray.png,stim\yellow.png,stim\gray.png,stim\gray.png,left,0,0,0,0,0,0,0,0,0,11,11,11,,,,,,,,,,,,,,,,,,,,,,,,,,,39.48916000000008,40.49045599999954,39.48916000000008,40.49045599999954,39.48916000000008,40.49045599999954,39.48916000000008,40.49045599999954,left,1,0.306952399999318,39.48916000000008,None,39.48916000000008,None,39.48916000000008,39.98908459999984,39.48916000000008,39.98908459999984,39.48916000000008,39.98908459999984,39.48916000000008,39.98908459999984,39.48916000000008,None,,,,,,,,,,,,,,,,,,,,,,,,,,,,,,,,,,,,,,,,,,12010,001,2024_Jun_15_1940,nback,2021.2.3,59.546174783716324,
0-back,instructions\back-0.png,conditions\0back-p.xlsx,instructions\0-BACK.png,"(15, 8)",practice,0,4,stim\gray.png,stim\gray.png,stim\gray.png,stim\yellow.png,down,0,0,0,0,0,0,0,0,0,12,12,12,,,,,,,,,,,,,,,,,,,,,,,,,,,40.99155369999971,41.992147199999636,40.99155369999971,41.992147199999636,40.99155369999971,41.992147199999636,40.99155369999971,41.992147199999636,down,1,0.6766169000002265,40.99155369999971,None,40.99155369999971,None,40.99155369999971,41.49140890000035,40.99155369999971,41.49140890000035,40.99155369999971,41.49140890000035,40.99155369999971,41.49140890000035,40.99155369999971,None,,,,,,,,,,,,,,,,,,,,,,,,,,,,,,,,,,,,,,,,,,12010,001,2024_Jun_15_1940,nback,2021.2.3,59.546174783716324,
0-back,instructions\back-0.png,conditions\0back-p.xlsx,instructions\0-BACK.png,"(15, 8)",practice,0,3,stim\gray.png,stim\gray.png,stim\yellow.png,stim\gray.png,right,0,0,0,0,0,0,0,0,0,13,13,13,,,,,,,,,,,,,,,,,,,,,,,,,,,42.49285229999987,43.49449730000015,42.49285229999987,43.49449730000015,42.49285229999987,43.49449730000015,42.49285229999987,43.49449730000015,right,1,0.39907010000024457,42.49285229999987,None,42.49285229999987,None,42.49285229999987,42.99362250000013,42.49285229999987,42.99362250000013,42.49285229999987,42.99362250000013,42.49285229999987,42.99362250000013,42.49285229999987,None,,,,,,,,,,,,,,,,,,,,,,,,,,,,,,,,,,,,,,,,,,12010,001,2024_Jun_15_1940,nback,2021.2.3,59.546174783716324,
0-back,instructions\back-0.png,conditions\0back-p.xlsx,instructions\0-BACK.png,"(15, 8)",practice,0,1,stim\yellow.png,stim\gray.png,stim\gray.png,stim\gray.png,up,0,0,0,0,0,0,0,0,0,14,14,14,,,,,,,,,,,,,,,,,,,,,,,,,,,43.9794165000003,44.9810250999999,43.9794165000003,44.9810250999999,43.9794165000003,44.9810250999999,43.9794165000003,44.9810250999999,up,1,0.3285365000001548,43.9794165000003,None,43.9794165000003,None,43.9794165000003,44.480684799999835,43.9794165000003,44.480684799999835,43.9794165000003,44.480684799999835,43.9794165000003,44.480684799999835,43.9794165000003,None,,,,,,,,,,,,,,,,,,,,,,,,,,,,,,,,,,,,,,,,,,12010,001,2024_Jun_15_1940,nback,2021.2.3,59.546174783716324,
0-back,instructions\back-0.png,conditions\0back-p.xlsx,instructions\0-BACK.png,"(15, 8)",practice,0,2,stim\gray.png,stim\yellow.png,stim\gray.png,stim\gray.png,left,0,0,0,0,0,0,0,0,0,15,15,15,,,,,,,,,,,,,,,,,,,,,,,,,,,45.4807423000002,46.48365809999996,45.4807423000002,46.48365809999996,45.4807423000002,46.48365809999996,45.4807423000002,46.48365809999996,left,1,0.2916727000001629,45.4807423000002,None,45.4807423000002,None,45.4807423000002,45.98149050000029,45.4807423000002,45.98149050000029,45.4807423000002,45.98149050000029,45.4807423000002,45.98149050000029,45.4807423000002,None,,,,,,,,,,,,,,,,,,,,,,,,,,,,,,,,,,,,,,,,,,12010,001,2024_Jun_15_1940,nback,2021.2.3,59.546174783716324,
0-back,instructions\back-0.png,conditions\0back-p.xlsx,instructions\0-BACK.png,"(15, 8)",practice,0,3,stim\gray.png,stim\gray.png,stim\yellow.png,stim\gray.png,right,0,0,0,0,0,0,0,0,0,16,16,16,,,,,,,,,,,,,,,,,,,,,,,,,,,46.98312110000006,47.98553269999957,46.98312110000006,47.98553269999957,46.98312110000006,47.98553269999957,46.98312110000006,47.98553269999957,right,1,0.40491759999986243,46.98312110000006,None,46.98312110000006,None,46.98312110000006,47.48382820000006,46.98312110000006,47.48382820000006,46.98312110000006,47.48382820000006,46.98312110000006,47.48382820000006,46.98312110000006,None,,,,,,,,,,,,,,,,,,,,,,,,,,,,,,,,,,,,,,,,,,12010,001,2024_Jun_15_1940,nback,2021.2.3,59.546174783716324,
0-back,instructions\back-0.png,conditions\0back-p.xlsx,instructions\0-BACK.png,"(15, 8)",practice,0,1,stim\yellow.png,stim\gray.png,stim\gray.png,stim\gray.png,up,0,0,0,0,0,0,0,0,0,17,17,17,,,,,,,,,,,,,,,,,,,,,,,,,,,48.4850821,49.48716609999974,48.4850821,49.48716609999974,48.4850821,49.48716609999974,48.4850821,49.48716609999974,up,1,0.407651800000167,48.4850821,None,48.4850821,None,48.4850821,48.98617490000015,48.4850821,48.98617490000015,48.4850821,48.98617490000015,48.4850821,48.98617490000015,48.4850821,None,,,,,,,,,,,,,,,,,,,,,,,,,,,,,,,,,,,,,,,,,,12010,001,2024_Jun_15_1940,nback,2021.2.3,59.546174783716324,
0-back,instructions\back-0.png,conditions\0back-p.xlsx,instructions\0-BACK.png,"(15, 8)",practice,0,4,stim\gray.png,stim\gray.png,stim\gray.png,stim\yellow.png,down,0,0,0,0,0,0,0,0,0,18,18,18,,,,,,,,,,,,,,,,,,,,,,,,,,,49.98747579999963,50.989107200000035,49.98747579999963,50.989107200000035,49.98747579999963,50.989107200000035,49.98747579999963,50.989107200000035,down,1,0.4246941000001243,49.98747579999963,None,49.98747579999963,None,49.98747579999963,50.48821380000027,49.98747579999963,50.48821380000027,49.98747579999963,50.48821380000027,49.98747579999963,50.48821380000027,49.98747579999963,None,,,,,,,,,,,,,,,,,,,,,,,,,,,,,,,,,,,,,,,,,,12010,001,2024_Jun_15_1940,nback,2021.2.3,59.546174783716324,
0-back,instructions\back-0.png,conditions\0back-p.xlsx,instructions\0-BACK.png,"(15, 8)",practice,0,2,stim\gray.png,stim\yellow.png,stim\gray.png,stim\gray.png,left,0,0,0,0,0,0,0,0,0,19,19,19,,,,,,,,,,,,,,,,,,,,,,,,,,,51.489803700000266,52.49192669999957,51.489803700000266,52.49192669999957,51.489803700000266,52.49192669999957,51.489803700000266,52.49192669999957,left,1,0.28272070000002714,51.489803700000266,None,51.489803700000266,None,51.489803700000266,51.991341199999624,51.489803700000266,51.991341199999624,51.489803700000266,51.991341199999624,51.489803700000266,51.991341199999624,51.489803700000266,None,,,,,,,,,,,,,,,,,,,,,,,,,,,,,,,,,,,,,,,,,,12010,001,2024_Jun_15_1940,nback,2021.2.3,59.546174783716324,
0-back,instructions\back-0.png,conditions\0back-p.xlsx,instructions\0-BACK.png,"(15, 8)",,,,,,,,,0,0,0,0,0,0,0,0,,,,,,,,,,,,,,,,,,,,,,,,,,,,,,,,,,,,,,,,,,,,,,,,,,,,,,,,,,,,,,,,,,,,,,,,,,,,,,,,,,,,,,,,,,,,,,,,,12010,001,2024_Jun_15_1940,nback,2021.2.3,59.546174783716324,
1-back,instructions\back-1.png,conditions\1back-p.xlsx,instructions\1-BACK.png,"(25, 15)",practice,1,1,stim\yellow.png,stim\gray.png,stim\gray.png,stim\gray.png,None,0,0,0,0,0,1,1,1,0,0,0,0,,,,,,,,,,,,,,,,,53.20902229999956,None,space,6.793864000000212,53.20902229999956,None,60.16962669999975,64.67809769999985,64.64298189999954,None,65.04599299999973,66.04518339999959,65.04599299999973,66.04518339999959,65.04599299999973,66.04518339999959,65.04599299999973,66.04518339999959,None,1,,65.04599299999973,None,65.04599299999973,None,65.04599299999973,65.56089470000006,65.04599299999973,65.56089470000006,65.04599299999973,65.56089470000006,65.04599299999973,65.56089470000006,65.04599299999973,None,,,,,,,,,,,,,,,,,,,,,,,,,,,,,,,,,,,,,,,,,,12010,001,2024_Jun_15_1940,nback,2021.2.3,59.546174783716324,
1-back,instructions\back-1.png,conditions\1back-p.xlsx,instructions\1-BACK.png,"(25, 15)",practice,1,2,stim\gray.png,stim\yellow.png,stim\gray.png,stim\gray.png,up,0,0,0,0,0,1,1,1,0,1,1,1,,,,,,,,,,,,,,,,,,,,,,,,,,,66.52915209999992,67.53150689999984,66.52915209999992,67.53150689999984,66.52915209999992,67.53150689999984,66.52915209999992,67.53150689999984,up,1,0.4762473000000682,66.52915209999992,None,66.52915209999992,None,66.52915209999992,67.02980769999976,66.52915209999992,67.02980769999976,66.52915209999992,67.02980769999976,66.52915209999992,67.02980769999976,66.52915209999992,None,,,,,,,,,,,,,,,,,,,,,,,,,,,,,,,,,,,,,,,,,,12010,001,2024_Jun_15_1940,nback,2021.2.3,59.546174783716324,
1-back,instructions\back-1.png,conditions\1back-p.xlsx,instructions\1-BACK.png,"(25, 15)",practice,1,3,stim\gray.png,stim\gray.png,stim\yellow.png,stim\gray.png,left,0,0,0,0,0,1,1,1,0,2,2,2,,,,,,,,,,,,,,,,,,,,,,,,,,,68.03140939999957,69.03361549999954,68.03140939999957,69.03361549999954,68.03140939999957,69.03361549999954,68.03140939999957,69.03361549999954,left,1,0.26961510000001,68.03140939999957,None,68.03140939999957,None,68.03140939999957,68.53230950000034,68.03140939999957,68.53230950000034,68.03140939999957,68.53230950000034,68.03140939999957,68.53230950000034,68.03140939999957,None,,,,,,,,,,,,,,,,,,,,,,,,,,,,,,,,,,,,,,,,,,12010,001,2024_Jun_15_1940,nback,2021.2.3,59.546174783716324,
1-back,instructions\back-1.png,conditions\1back-p.xlsx,instructions\1-BACK.png,"(25, 15)",practice,1,4,stim\gray.png,stim\gray.png,stim\gray.png,stim\yellow.png,right,0,0,0,0,0,1,1,1,0,3,3,3,,,,,,,,,,,,,,,,,,,,,,,,,,,69.53369600000042,70.53650240000024,69.53369600000042,70.53650240000024,69.53369600000042,70.53650240000024,69.53369600000042,70.53650240000024,right,1,0.2547983000004024,69.53369600000042,None,69.53369600000042,None,69.53369600000042,70.03518679999979,69.53369600000042,70.03518679999979,69.53369600000042,70.03518679999979,69.53369600000042,70.03518679999979,69.53369600000042,None,,,,,,,,,,,,,,,,,,,,,,,,,,,,,,,,,,,,,,,,,,12010,001,2024_Jun_15_1940,nback,2021.2.3,59.546174783716324,
1-back,instructions\back-1.png,conditions\1back-p.xlsx,instructions\1-BACK.png,"(25, 15)",practice,1,2,stim\gray.png,stim\yellow.png,stim\gray.png,stim\gray.png,down,0,0,0,0,0,1,1,1,0,4,4,4,,,,,,,,,,,,,,,,,,,,,,,,,,,71.03609400000005,72.03816339999958,71.03609400000005,72.03816339999958,71.03609400000005,72.03816339999958,71.03609400000005,72.03816339999958,down,1,0.21657890000005864,71.03609400000005,None,71.03609400000005,None,71.03609400000005,71.53795309999987,71.03609400000005,71.53795309999987,71.03609400000005,71.53795309999987,71.03609400000005,71.53795309999987,71.03609400000005,None,,,,,,,,,,,,,,,,,,,,,,,,,,,,,,,,,,,,,,,,,,12010,001,2024_Jun_15_1940,nback,2021.2.3,59.546174783716324,
1-back,instructions\back-1.png,conditions\1back-p.xlsx,instructions\1-BACK.png,"(25, 15)",practice,1,1,stim\yellow.png,stim\gray.png,stim\gray.png,stim\gray.png,left,0,0,0,0,0,1,1,1,0,5,5,5,,,,,,,,,,,,,,,,,,,,,,,,,,,72.5381668,73.54074860000037,72.5381668,73.54074860000037,72.5381668,73.54074860000037,72.5381668,73.54074860000037,left,1,0.1545870999998442,72.5381668,None,72.5381668,None,72.5381668,73.03959080000004,72.5381668,73.03959080000004,72.5381668,73.03959080000004,72.5381668,73.03959080000004,72.5381668,None,,,,,,,,,,,,,,,,,,,,,,,,,,,,,,,,,,,,,,,,,,12010,001,2024_Jun_15_1940,nback,2021.2.3,59.546174783716324,
1-back,instructions\back-1.png,conditions\1back-p.xlsx,instructions\1-BACK.png,"(25, 15)",practice,1,4,stim\gray.png,stim\gray.png,stim\gray.png,stim\yellow.png,up,0,0,0,0,0,1,1,1,0,6,6,6,,,,,,,,,,,,,,,,,,,,,,,,,,,74.02387410000028,75.02524389999962,74.02387410000028,75.02524389999962,74.02387410000028,75.02524389999962,74.02387410000028,75.02524389999962,up,1,0.06081189999986236,74.02387410000028,None,74.02387410000028,None,74.02387410000028,74.52547890000005,74.02387410000028,74.52547890000005,74.02387410000028,74.52547890000005,74.02387410000028,74.52547890000005,74.02387410000028,None,,,,,,,,,,,,,,,,,,,,,,,,,,,,,,,,,,,,,,,,,,12010,001,2024_Jun_15_1940,nback,2021.2.3,59.546174783716324,
1-back,instructions\back-1.png,conditions\1back-p.xlsx,instructions\1-BACK.png,"(25, 15)",practice,1,3,stim\gray.png,stim\gray.png,stim\yellow.png,stim\gray.png,down,0,0,0,0,0,1,1,1,0,7,7,7,,,,,,,,,,,,,,,,,,,,,,,,,,,75.52687849999984,76.52830489999997,75.52687849999984,76.52830489999997,75.52687849999984,76.52830489999997,75.52687849999984,76.52830489999997,right,0,1.453870100000131,75.52687849999984,None,75.52687849999984,None,75.52687849999984,76.02703769999971,75.52687849999984,76.02703769999971,75.52687849999984,76.02703769999971,75.52687849999984,76.02703769999971,75.52687849999984,None,,,,,,,,,,,,,,,,,,,,,,,,,,,,,,,,,,,,,,,,,,12010,001,2024_Jun_15_1940,nback,2021.2.3,59.546174783716324,
1-back,instructions\back-1.png,conditions\1back-p.xlsx,instructions\1-BACK.png,"(25, 15)",practice,1,3,stim\gray.png,stim\gray.png,stim\yellow.png,stim\gray.png,right,0,0,0,0,0,1,1,1,0,8,8,8,,,,,,,,,,,,,,,,,,,,,,,,,,,77.02862679999998,78.03068859999985,77.02862679999998,78.03068859999985,77.02862679999998,78.03068859999985,77.02862679999998,78.03068859999985,left,0,1.4240972999996302,77.02862679999998,None,77.02862679999998,None,77.02862679999998,77.5304715000002,77.02862679999998,77.5304715000002,77.02862679999998,77.5304715000002,77.02862679999998,77.5304715000002,77.02862679999998,None,,,,,,,,,,,,,,,,,,,,,,,,,,,,,,,,,,,,,,,,,,12010,001,2024_Jun_15_1940,nback,2021.2.3,59.546174783716324,
1-back,instructions\back-1.png,conditions\1back-p.xlsx,instructions\1-BACK.png,"(25, 15)",practice,1,4,stim\gray.png,stim\gray.png,stim\gray.png,stim\yellow.png,right,0,0,0,0,0,1,1,1,0,9,9,9,,,,,,,,,,,,,,,,,,,,,,,,,,,78.53070630000002,79.53314440000031,78.53070630000002,79.53314440000031,78.53070630000002,79.53314440000031,78.53070630000002,79.53314440000031,down,0,1.3380544999999984,78.53070630000002,None,78.53070630000002,None,78.53070630000002,79.03177140000025,78.53070630000002,79.03177140000025,78.53070630000002,79.03177140000025,78.53070630000002,79.03177140000025,78.53070630000002,None,,,,,,,,,,,,,,,,,,,,,,,,,,,,,,,,,,,,,,,,,,12010,001,2024_Jun_15_1940,nback,2021.2.3,59.546174783716324,
1-back,instructions\back-1.png,conditions\1back-p.xlsx,instructions\1-BACK.png,"(25, 15)",practice,1,1,stim\yellow.png,stim\gray.png,stim\gray.png,stim\gray.png,down,0,0,0,0,0,1,1,1,0,10,10,10,,,,,,,,,,,,,,,,,,,,,,,,,,,80.03286759999992,81.03492079999978,80.03286759999992,81.03492079999978,80.03286759999992,81.03492079999978,80.03286759999992,81.03492079999978,None,0,,80.03286759999992,None,80.03286759999992,None,80.03286759999992,80.53455070000018,80.03286759999992,80.53455070000018,80.03286759999992,80.53455070000018,80.03286759999992,80.53455070000018,80.03286759999992,None,,,,,,,,,,,,,,,,,,,,,,,,,,,,,,,,,,,,,,,,,,12010,001,2024_Jun_15_1940,nback,2021.2.3,59.546174783716324,
1-back,instructions\back-1.png,conditions\1back-p.xlsx,instructions\1-BACK.png,"(25, 15)",practice,1,2,stim\gray.png,stim\yellow.png,stim\gray.png,stim\gray.png,up,0,0,0,0,0,1,1,1,0,11,11,11,,,,,,,,,,,,,,,,,,,,,,,,,,,81.5360840000003,82.53735659999984,81.5360840000003,82.53735659999984,81.5360840000003,82.53735659999984,81.5360840000003,82.53735659999984,left,0,1.4367591999998695,81.5360840000003,None,81.5360840000003,None,81.5360840000003,82.03648340000018,81.5360840000003,82.03648340000018,81.5360840000003,82.03648340000018,81.5360840000003,82.03648340000018,81.5360840000003,None,,,,,,,,,,,,,,,,,,,,,,,,,,,,,,,,,,,,,,,,,,12010,001,2024_Jun_15_1940,nback,2021.2.3,59.546174783716324,
1-back,instructions\back-1.png,conditions\1back-p.xlsx,instructions\1-BACK.png,"(25, 15)",practice,1,4,stim\gray.png,stim\gray.png,stim\gray.png,stim\yellow.png,left,0,0,0,0,0,1,1,1,0,12,12,12,,,,,,,,,,,,,,,,,,,,,,,,,,,83.03732620000028,84.03919229999974,83.03732620000028,84.03919229999974,83.03732620000028,84.03919229999974,83.03732620000028,84.03919229999974,down,0,1.4314401000001453,83.03732620000028,None,83.03732620000028,None,83.03732620000028,83.53942209999968,83.03732620000028,83.53942209999968,83.03732620000028,83.53942209999968,83.03732620000028,83.53942209999968,83.03732620000028,None,,,,,,,,,,,,,,,,,,,,,,,,,,,,,,,,,,,,,,,,,,12010,001,2024_Jun_15_1940,nback,2021.2.3,59.546174783716324,
1-back,instructions\back-1.png,conditions\1back-p.xlsx,instructions\1-BACK.png,"(25, 15)",practice,1,3,stim\gray.png,stim\gray.png,stim\yellow.png,stim\gray.png,down,0,0,0,0,0,1,1,1,0,13,13,13,,,,,,,,,,,,,,,,,,,,,,,,,,,84.5236877999996,85.52443640000001,84.5236877999996,85.52443640000001,84.5236877999996,85.52443640000001,84.5236877999996,85.52443640000001,right,0,1.4658368000000337,84.5236877999996,None,84.5236877999996,None,84.5236877999996,85.02477100000033,84.5236877999996,85.02477100000033,84.5236877999996,85.02477100000033,84.5236877999996,85.02477100000033,84.5236877999996,None,,,,,,,,,,,,,,,,,,,,,,,,,,,,,,,,,,,,,,,,,,12010,001,2024_Jun_15_1940,nback,2021.2.3,59.546174783716324,
1-back,instructions\back-1.png,conditions\1back-p.xlsx,instructions\1-BACK.png,"(25, 15)",practice,1,1,stim\yellow.png,stim\gray.png,stim\gray.png,stim\gray.png,right,0,0,0,0,0,1,1,1,0,14,14,14,,,,,,,,,,,,,,,,,,,,,,,,,,,86.02523010000004,87.0266201000004,86.02523010000004,87.0266201000004,86.02523010000004,87.0266201000004,86.02523010000004,87.0266201000004,up,0,1.443913999999495,86.02523010000004,None,86.02523010000004,None,86.02523010000004,86.52634109999963,86.02523010000004,86.52634109999963,86.02523010000004,86.52634109999963,86.02523010000004,86.52634109999963,86.02523010000004,None,,,,,,,,,,,,,,,,,,,,,,,,,,,,,,,,,,,,,,,,,,12010,001,2024_Jun_15_1940,nback,2021.2.3,59.546174783716324,
1-back,instructions\back-1.png,conditions\1back-p.xlsx,instructions\1-BACK.png,"(25, 15)",practice,1,2,stim\gray.png,stim\yellow.png,stim\gray.png,stim\gray.png,up,0,0,0,0,0,1,1,1,0,15,15,15,,,,,,,,,,,,,,,,,,,,,,,,,,,87.52807140000004,88.52898900000037,87.52807140000004,88.52898900000037,87.52807140000004,88.52898900000037,87.52807140000004,88.52898900000037,left,0,1.4133619000003819,87.52807140000004,None,87.52807140000004,None,87.52807140000004,88.0297743000001,87.52807140000004,88.0297743000001,87.52807140000004,88.0297743000001,87.52807140000004,88.0297743000001,87.52807140000004,None,,,,,,,,,,,,,,,,,,,,,,,,,,,,,,,,,,,,,,,,,,12010,001,2024_Jun_15_1940,nback,2021.2.3,59.546174783716324,
1-back,instructions\back-1.png,conditions\1back-p.xlsx,instructions\1-BACK.png,"(25, 15)",practice,1,3,stim\gray.png,stim\gray.png,stim\yellow.png,stim\gray.png,left,0,0,0,0,0,1,1,1,0,16,16,16,,,,,,,,,,,,,,,,,,,,,,,,,,,89.02968020000026,90.03118480000012,89.02968020000026,90.03118480000012,89.02968020000026,90.03118480000012,89.02968020000026,90.03118480000012,right,0,1.3835810999999012,89.02968020000026,None,89.02968020000026,None,89.02968020000026,89.5306287000003,89.02968020000026,89.5306287000003,89.02968020000026,89.5306287000003,89.02968020000026,89.5306287000003,89.02968020000026,None,,,,,,,,,,,,,,,,,,,,,,,,,,,,,,,,,,,,,,,,,,12010,001,2024_Jun_15_1940,nback,2021.2.3,59.546174783716324,
1-back,instructions\back-1.png,conditions\1back-p.xlsx,instructions\1-BACK.png,"(25, 15)",practice,1,1,stim\yellow.png,stim\gray.png,stim\gray.png,stim\gray.png,right,0,0,0,0,0,1,1,1,0,17,17,17,,,,,,,,,,,,,,,,,,,,,,,,,,,90.53198410000005,91.5343812000001,90.53198410000005,91.5343812000001,90.53198410000005,91.5343812000001,90.53198410000005,91.5343812000001,None,0,,90.53198410000005,None,90.53198410000005,None,90.53198410000005,91.03284780000013,90.53198410000005,91.03284780000013,90.53198410000005,91.03284780000013,90.53198410000005,91.03284780000013,90.53198410000005,None,,,,,,,,,,,,,,,,,,,,,,,,,,,,,,,,,,,,,,,,,,12010,001,2024_Jun_15_1940,nback,2021.2.3,59.546174783716324,
1-back,instructions\back-1.png,conditions\1back-p.xlsx,instructions\1-BACK.png,"(25, 15)",practice,1,4,stim\gray.png,stim\gray.png,stim\gray.png,stim\yellow.png,up,0,0,0,0,0,1,1,1,0,18,18,18,,,,,,,,,,,,,,,,,,,,,,,,,,,92.03430430000026,93.03835890000028,92.03430430000026,93.03835890000028,92.03430430000026,93.03835890000028,92.03430430000026,93.03835890000028,None,0,,92.03430430000026,None,92.03430430000026,None,92.03430430000026,92.53617300000042,92.03430430000026,92.53617300000042,92.03430430000026,92.53617300000042,92.03430430000026,92.53617300000042,92.03430430000026,None,,,,,,,,,,,,,,,,,,,,,,,,,,,,,,,,,,,,,,,,,,12010,001,2024_Jun_15_1940,nback,2021.2.3,59.546174783716324,
1-back,instructions\back-1.png,conditions\1back-p.xlsx,instructions\1-BACK.png,"(25, 15)",practice,1,2,stim\gray.png,stim\yellow.png,stim\gray.png,stim\gray.png,down,0,0,0,0,0,1,1,1,0,19,19,19,,,,,,,,,,,,,,,,,,,,,,,,,,,93.53639620000013,94.53826740000022,93.53639620000013,94.53826740000022,93.53639620000013,94.53826740000022,93.53639620000013,94.53826740000022,left,0,0.3650558999997884,93.53639620000013,None,93.53639620000013,None,93.53639620000013,94.03707149999991,93.53639620000013,94.03707149999991,93.53639620000013,94.03707149999991,93.53639620000013,94.03707149999991,93.53639620000013,None,,,,,,,,,,,,,,,,,,,,,,,,,,,,,,,,,,,,,,,,,,12010,001,2024_Jun_15_1940,nback,2021.2.3,59.546174783716324,
1-back,instructions\back-1.png,conditions\1back-p.xlsx,instructions\1-BACK.png,"(25, 15)",,,,,,,,,0,0,0,0,0,1,1,1,,,,,,,,,,,,,,,,,,,,,,,,,,,,,,,,,,,,,,,,,,,,,,,,,,,,,,,,,,,,,,,,,,,,,,,,,,,,,,,,,,,,,,,,,,,,,,,,,12010,001,2024_Jun_15_1940,nback,2021.2.3,59.546174783716324,
2-back,instructions\back-2.png,conditions\2back-p.xlsx,instructions\2-BACK.png,"(25, 15)",practice,2,1,stim\yellow.png,stim\gray.png,stim\gray.png,stim\gray.png,None,0,0,0,0,0,2,2,2,0,0,0,0,,,,,,,,,,,,,,,,,95.18893529999968,None,space,20.474650200000724,95.18893529999968,None,115.85258299999987,120.36027360000026,120.29389549999996,None,120.71231210000042,121.71331420000024,120.71231210000042,121.71331420000024,120.71231210000042,121.71331420000024,120.71231210000042,121.71331420000024,None,1,,120.71231210000042,None,120.71231210000042,None,120.71231210000042,121.21183279999968,120.71231210000042,121.21183279999968,120.71231210000042,121.21183279999968,120.71231210000042,121.21183279999968,120.71231210000042,None,,,,,,,,,,,,,,,,,,,,,,,,,,,,,,,,,,,,,,,,,,12010,001,2024_Jun_15_1940,nback,2021.2.3,59.546174783716324,
2-back,instructions\back-2.png,conditions\2back-p.xlsx,instructions\2-BACK.png,"(25, 15)",practice,2,2,stim\gray.png,stim\yellow.png,stim\gray.png,stim\gray.png,None,0,0,0,0,0,2,2,2,0,1,1,1,,,,,,,,,,,,,,,,,,,,,,,,,,,122.19727069999954,123.19805009999982,122.19727069999954,123.19805009999982,122.19727069999954,123.19805009999982,122.19727069999954,123.19805009999982,None,1,,122.19727069999954,None,122.19727069999954,None,122.19727069999954,122.69810510000025,122.19727069999954,122.69810510000025,122.19727069999954,122.69810510000025,122.19727069999954,122.69810510000025,122.19727069999954,None,,,,,,,,,,,,,,,,,,,,,,,,,,,,,,,,,,,,,,,,,,12010,001,2024_Jun_15_1940,nback,2021.2.3,59.546174783716324,
2-back,instructions\back-2.png,conditions\2back-p.xlsx,instructions\2-BACK.png,"(25, 15)",practice,2,3,stim\gray.png,stim\gray.png,stim\yellow.png,stim\gray.png,up,0,0,0,0,0,2,2,2,0,2,2,2,,,,,,,,,,,,,,,,,,,,,,,,,,,123.69867539999996,124.70102310000038,123.69867539999996,124.70102310000038,123.69867539999996,124.70102310000038,123.69867539999996,124.70102310000038,up,1,0.16405219999978726,123.69867539999996,None,123.69867539999996,None,123.69867539999996,124.20030789999964,123.69867539999996,124.20030789999964,123.69867539999996,124.20030789999964,123.69867539999996,124.20030789999964,123.69867539999996,None,,,,,,,,,,,,,,,,,,,,,,,,,,,,,,,,,,,,,,,,,,12010,001,2024_Jun_15_1940,nback,2021.2.3,59.546174783716324,
2-back,instructions\back-2.png,conditions\2back-p.xlsx,instructions\2-BACK.png,"(25, 15)",practice,2,4,stim\gray.png,stim\gray.png,stim\gray.png,stim\yellow.png,left,0,0,0,0,0,2,2,2,0,3,3,3,,,,,,,,,,,,,,,,,,,,,,,,,,,125.20080260000032,126.20322299999953,125.20080260000032,126.20322299999953,125.20080260000032,126.20322299999953,125.20080260000032,126.20322299999953,right,0,1.461326900000131,125.20080260000032,None,125.20080260000032,None,125.20080260000032,125.70189130000017,125.20080260000032,125.70189130000017,125.20080260000032,125.70189130000017,125.20080260000032,125.70189130000017,125.20080260000032,None,,,,,,,,,,,,,,,,,,,,,,,,,,,,,,,,,,,,,,,,,,12010,001,2024_Jun_15_1940,nback,2021.2.3,59.546174783716324,
2-back,instructions\back-2.png,conditions\2back-p.xlsx,instructions\2-BACK.png,"(25, 15)",practice,2,2,stim\gray.png,stim\yellow.png,stim\gray.png,stim\gray.png,right,0,0,0,0,0,2,2,2,0,4,4,4,,,,,,,,,,,,,,,,,,,,,,,,,,,126.70308730000033,127.70481089999976,126.70308730000033,127.70481089999976,126.70308730000033,127.70481089999976,126.70308730000033,127.70481089999976,None,0,,126.70308730000033,None,126.70308730000033,None,126.70308730000033,127.20393950000016,126.70308730000033,127.20393950000016,126.70308730000033,127.20393950000016,126.70308730000033,127.20393950000016,126.70308730000033,None,,,,,,,,,,,,,,,,,,,,,,,,,,,,,,,,,,,,,,,,,,12010,001,2024_Jun_15_1940,nback,2021.2.3,59.546174783716324,
2-back,instructions\back-2.png,conditions\2back-p.xlsx,instructions\2-BACK.png,"(25, 15)",practice,2,1,stim\yellow.png,stim\gray.png,stim\gray.png,stim\gray.png,down,0,0,0,0,0,2,2,2,0,5,5,5,,,,,,,,,,,,,,,,,,,,,,,,,,,128.2058932,129.2071980999999,128.2058932,129.2071980999999,128.2058932,129.2071980999999,128.2058932,129.2071980999999,down,1,0.02470309999989695,128.2058932,None,128.2058932,None,128.2058932,128.70636449999984,128.2058932,128.70636449999984,128.2058932,128.70636449999984,128.2058932,128.70636449999984,128.2058932,None,,,,,,,,,,,,,,,,,,,,,,,,,,,,,,,,,,,,,,,,,,12010,001,2024_Jun_15_1940,nback,2021.2.3,59.546174783716324,
2-back,instructions\back-2.png,conditions\2back-p.xlsx,instructions\2-BACK.png,"(25, 15)",practice,2,4,stim\gray.png,stim\gray.png,stim\gray.png,stim\yellow.png,left,0,0,0,0,0,2,2,2,0,6,6,6,,,,,,,,,,,,,,,,,,,,,,,,,,,129.69115890000012,130.6943521000003,129.69115890000012,130.6943521000003,129.69115890000012,130.6943521000003,129.69115890000012,130.6943521000003,up,0,1.3549966000000495,129.69115890000012,None,129.69115890000012,None,129.69115890000012,130.19288479999977,129.69115890000012,130.19288479999977,129.69115890000012,130.19288479999977,129.69115890000012,130.19288479999977,129.69115890000012,None,,,,,,,,,,,,,,,,,,,,,,,,,,,,,,,,,,,,,,,,,,12010,001,2024_Jun_15_1940,nback,2021.2.3,59.546174783716324,
2-back,instructions\back-2.png,conditions\2back-p.xlsx,instructions\2-BACK.png,"(25, 15)",practice,2,3,stim\gray.png,stim\gray.png,stim\yellow.png,stim\gray.png,up,0,0,0,0,0,2,2,2,0,7,7,7,,,,,,,,,,,,,,,,,,,,,,,,,,,131.1931795999999,132.19487479999952,131.1931795999999,132.19487479999952,131.1931795999999,132.19487479999952,131.1931795999999,132.19487479999952,down,0,1.3653987999996389,131.1931795999999,None,131.1931795999999,None,131.1931795999999,131.6947664999998,131.1931795999999,131.6947664999998,131.1931795999999,131.6947664999998,131.1931795999999,131.6947664999998,131.1931795999999,None,,,,,,,,,,,,,,,,,,,,,,,,,,,,,,,,,,,,,,,,,,12010,001,2024_Jun_15_1940,nback,2021.2.3,59.546174783716324,
2-back,instructions\back-2.png,conditions\2back-p.xlsx,instructions\2-BACK.png,"(25, 15)",practice,2,3,stim\gray.png,stim\gray.png,stim\yellow.png,stim\gray.png,down,0,0,0,0,0,2,2,2,0,8,8,8,,,,,,,,,,,,,,,,,,,,,,,,,,,132.6958185000003,133.6970451999996,132.6958185000003,133.6970451999996,132.6958185000003,133.6970451999996,132.6958185000003,133.6970451999996,right,0,1.278624900000068,132.6958185000003,None,132.6958185000003,None,132.6958185000003,133.19730859999981,132.6958185000003,133.19730859999981,132.6958185000003,133.19730859999981,132.6958185000003,133.19730859999981,132.6958185000003,None,,,,,,,,,,,,,,,,,,,,,,,,,,,,,,,,,,,,,,,,,,12010,001,2024_Jun_15_1940,nback,2021.2.3,59.546174783716324,
2-back,instructions\back-2.png,conditions\2back-p.xlsx,instructions\2-BACK.png,"(25, 15)",practice,2,4,stim\gray.png,stim\gray.png,stim\gray.png,stim\yellow.png,right,0,0,0,0,0,2,2,2,0,9,9,9,,,,,,,,,,,,,,,,,,,,,,,,,,,134.19797190000008,135.19939239999985,134.19797190000008,135.19939239999985,134.19797190000008,135.19939239999985,134.19797190000008,135.19939239999985,None,0,,134.19797190000008,None,134.19797190000008,None,134.19797190000008,134.69923569999992,134.19797190000008,134.69923569999992,134.19797190000008,134.69923569999992,134.19797190000008,134.69923569999992,134.19797190000008,None,,,,,,,,,,,,,,,,,,,,,,,,,,,,,,,,,,,,,,,,,,12010,001,2024_Jun_15_1940,nback,2021.2.3,59.546174783716324,
2-back,instructions\back-2.png,conditions\2back-p.xlsx,instructions\2-BACK.png,"(25, 15)",practice,2,1,stim\yellow.png,stim\gray.png,stim\gray.png,stim\gray.png,right,0,0,0,0,0,2,2,2,0,10,10,10,,,,,,,,,,,,,,,,,,,,,,,,,,,135.70009990000017,136.70276259999991,135.70009990000017,136.70276259999991,135.70009990000017,136.70276259999991,135.70009990000017,136.70276259999991,down,0,1.434624900000017,135.70009990000017,None,135.70009990000017,None,135.70009990000017,136.20212549999997,135.70009990000017,136.20212549999997,135.70009990000017,136.20212549999997,135.70009990000017,136.20212549999997,135.70009990000017,None,,,,,,,,,,,,,,,,,,,,,,,,,,,,,,,,,,,,,,,,,,12010,001,2024_Jun_15_1940,nback,2021.2.3,59.546174783716324,
2-back,instructions\back-2.png,conditions\2back-p.xlsx,instructions\2-BACK.png,"(25, 15)",practice,2,2,stim\gray.png,stim\yellow.png,stim\gray.png,stim\gray.png,down,0,0,0,0,0,2,2,2,0,11,11,11,,,,,,,,,,,,,,,,,,,,,,,,,,,137.20244660000026,138.20468960000017,137.20244660000026,138.20468960000017,137.20244660000026,138.20468960000017,137.20244660000026,138.20468960000017,None,0,,137.20244660000026,None,137.20244660000026,None,137.20244660000026,137.7032122999999,137.20244660000026,137.7032122999999,137.20244660000026,137.7032122999999,137.20244660000026,137.7032122999999,137.20244660000026,None,,,,,,,,,,,,,,,,,,,,,,,,,,,,,,,,,,,,,,,,,,12010,001,2024_Jun_15_1940,nback,2021.2.3,59.546174783716324,
2-back,instructions\back-2.png,conditions\2back-p.xlsx,instructions\2-BACK.png,"(25, 15)",practice,2,4,stim\gray.png,stim\gray.png,stim\gray.png,stim\yellow.png,up,0,0,0,0,0,2,2,2,0,12,12,12,,,,,,,,,,,,,,,,,,,,,,,,,,,138.70474809999996,139.70732680000037,138.70474809999996,139.70732680000037,138.70474809999996,139.70732680000037,138.70474809999996,139.70732680000037,left,0,1.469941999999719,138.70474809999996,None,138.70474809999996,None,138.70474809999996,139.20549579999988,138.70474809999996,139.20549579999988,138.70474809999996,139.20549579999988,138.70474809999996,139.20549579999988,138.70474809999996,None,,,,,,,,,,,,,,,,,,,,,,,,,,,,,,,,,,,,,,,,,,12010,001,2024_Jun_15_1940,nback,2021.2.3,59.546174783716324,
2-back,instructions\back-2.png,conditions\2back-p.xlsx,instructions\2-BACK.png,"(25, 15)",practice,2,3,stim\gray.png,stim\gray.png,stim\yellow.png,stim\gray.png,left,0,0,0,0,0,2,2,2,0,13,13,13,,,,,,,,,,,,,,,,,,,,,,,,,,,140.2070150999998,141.20940900000005,140.2070150999998,141.20940900000005,140.2070150999998,141.20940900000005,140.2070150999998,141.20940900000005,None,0,,140.2070150999998,None,140.2070150999998,None,140.2070150999998,140.70773129999998,140.2070150999998,140.70773129999998,140.2070150999998,140.70773129999998,140.2070150999998,140.70773129999998,140.2070150999998,None,,,,,,,,,,,,,,,,,,,,,,,,,,,,,,,,,,,,,,,,,,12010,001,2024_Jun_15_1940,nback,2021.2.3,59.546174783716324,
2-back,instructions\back-2.png,conditions\2back-p.xlsx,instructions\2-BACK.png,"(25, 15)",practice,2,1,stim\yellow.png,stim\gray.png,stim\gray.png,stim\gray.png,down,0,0,0,0,0,2,2,2,0,14,14,14,,,,,,,,,,,,,,,,,,,,,,,,,,,141.6924067,142.69454399999995,141.6924067,142.69454399999995,141.6924067,142.69454399999995,141.6924067,142.69454399999995,down,1,0.1941527999997561,141.6924067,None,141.6924067,None,141.6924067,142.1936466999996,141.6924067,142.1936466999996,141.6924067,142.1936466999996,141.6924067,142.1936466999996,141.6924067,None,,,,,,,,,,,,,,,,,,,,,,,,,,,,,,,,,,,,,,,,,,12010,001,2024_Jun_15_1940,nback,2021.2.3,59.546174783716324,
2-back,instructions\back-2.png,conditions\2back-p.xlsx,instructions\2-BACK.png,"(25, 15)",practice,2,2,stim\gray.png,stim\yellow.png,stim\gray.png,stim\gray.png,right,0,0,0,0,0,2,2,2,0,15,15,15,,,,,,,,,,,,,,,,,,,,,,,,,,,143.19513470000038,144.19638349999968,143.19513470000038,144.19638349999968,143.19513470000038,144.19638349999968,143.19513470000038,144.19638349999968,None,0,,143.19513470000038,None,143.19513470000038,None,143.19513470000038,143.6956713999998,143.19513470000038,143.6956713999998,143.19513470000038,143.6956713999998,143.19513470000038,143.6956713999998,143.19513470000038,None,,,,,,,,,,,,,,,,,,,,,,,,,,,,,,,,,,,,,,,,,,12010,001,2024_Jun_15_1940,nback,2021.2.3,59.546174783716324,
2-back,instructions\back-2.png,conditions\2back-p.xlsx,instructions\2-BACK.png,"(25, 15)",practice,2,3,stim\gray.png,stim\gray.png,stim\yellow.png,stim\gray.png,up,0,0,0,0,0,2,2,2,0,16,16,16,,,,,,,,,,,,,,,,,,,,,,,,,,,144.69703310000023,145.6983925000004,144.69703310000023,145.6983925000004,144.69703310000023,145.6983925000004,144.69703310000023,145.6983925000004,up,1,0.7415454000001773,144.69703310000023,None,144.69703310000023,None,144.69703310000023,145.19768169999952,144.69703310000023,145.19768169999952,144.69703310000023,145.19768169999952,144.69703310000023,145.19768169999952,144.69703310000023,None,,,,,,,,,,,,,,,,,,,,,,,,,,,,,,,,,,,,,,,,,,12010,001,2024_Jun_15_1940,nback,2021.2.3,59.546174783716324,
2-back,instructions\back-2.png,conditions\2back-p.xlsx,instructions\2-BACK.png,"(25, 15)",practice,2,1,stim\yellow.png,stim\gray.png,stim\gray.png,stim\gray.png,left,0,0,0,0,0,2,2,2,0,17,17,17,,,,,,,,,,,,,,,,,,,,,,,,,,,146.19932590000008,147.20209259999956,146.19932590000008,147.20209259999956,146.19932590000008,147.20209259999956,146.19932590000008,147.20209259999956,left,1,0.21517750000020897,146.19932590000008,None,146.19932590000008,None,146.19932590000008,146.70078809999995,146.19932590000008,146.70078809999995,146.19932590000008,146.70078809999995,146.19932590000008,146.70078809999995,146.19932590000008,None,,,,,,,,,,,,,,,,,,,,,,,,,,,,,,,,,,,,,,,,,,12010,001,2024_Jun_15_1940,nback,2021.2.3,59.546174783716324,
2-back,instructions\back-2.png,conditions\2back-p.xlsx,instructions\2-BACK.png,"(25, 15)",practice,2,4,stim\gray.png,stim\gray.png,stim\gray.png,stim\yellow.png,right,0,0,0,0,0,2,2,2,0,18,18,18,,,,,,,,,,,,,,,,,,,,,,,,,,,147.7016421999997,148.7029620000003,147.7016421999997,148.7029620000003,147.7016421999997,148.7029620000003,147.7016421999997,148.7029620000003,up,0,1.4335306000002674,147.7016421999997,None,147.7016421999997,None,147.7016421999997,148.20301550000022,147.7016421999997,148.20301550000022,147.7016421999997,148.20301550000022,147.7016421999997,148.20301550000022,147.7016421999997,None,,,,,,,,,,,,,,,,,,,,,,,,,,,,,,,,,,,,,,,,,,12010,001,2024_Jun_15_1940,nback,2021.2.3,59.546174783716324,
2-back,instructions\back-2.png,conditions\2back-p.xlsx,instructions\2-BACK.png,"(25, 15)",practice,2,2,stim\gray.png,stim\yellow.png,stim\gray.png,stim\gray.png,up,0,0,0,0,0,2,2,2,0,19,19,19,,,,,,,,,,,,,,,,,,,,,,,,,,,149.20459019999998,150.20543699999962,149.20459019999998,150.20543699999962,149.20459019999998,150.20543699999962,149.20459019999998,150.20543699999962,None,0,,149.20459019999998,None,149.20459019999998,None,149.20459019999998,149.70476260000032,149.20459019999998,149.70476260000032,149.20459019999998,149.70476260000032,149.20459019999998,149.70476260000032,149.20459019999998,None,,,,,,,,,,,,,,,,,,,,,,,,,,,,,,,,,,,,,,,,,,12010,001,2024_Jun_15_1940,nback,2021.2.3,59.546174783716324,
2-back,instructions\back-2.png,conditions\2back-p.xlsx,instructions\2-BACK.png,"(25, 15)",,,,,,,,,0,0,0,0,0,2,2,2,,,,,,,,,,,,,,,,,,,,,,,,,,,,,,,,,,,,,,,,,,,,,,,,,,,,,,,,,,,,,,,,,,,,,,,,,,,,,,,,,,,,,,,,,,,,,,,,,12010,001,2024_Jun_15_1940,nback,2021.2.3,59.546174783716324,
,,,,,,,,,,,,,0,0,0,0,,,,,,,,,,,,,,,,,,,,,,,,,,,,,,,,,,,,,,,,,,,,,,,,,,,,,,,,,,,,150.7066365999999,None,s,7.108901000000515,150.7066365999999,None,,,,,,,,,,,,,,,,,,,,,,,,,,,,,,,,,,,,12010,001,2024_Jun_15_1940,nback,2021.2.3,59.546174783716324,
0-back,instructions\back-0.png,conditions\0back-p.xlsx,instructions\0-BACK.png,"(15, 8)",practice,0,1,stim\yellow.png,stim\gray.png,stim\gray.png,stim\gray.png,up,1,0,1,0,0,0,0,0,0,0,0,0,,,,,,,,,,,,,,,,,157.95008739999957,None,space,42.166638099999545,157.95008739999957,None,200.31413640000028,204.8218383000003,204.75493410000036,None,205.17323409999972,206.17358719999993,205.17323409999972,206.17358719999993,205.17323409999972,206.17358719999993,205.17323409999972,206.17358719999993,up,1,0.4989867000003869,205.17323409999972,None,205.17323409999972,None,205.17323409999972,205.67231840000022,205.17323409999972,205.67231840000022,205.17323409999972,205.67231840000022,205.17323409999972,205.67231840000022,205.17323409999972,None,,,,,,,,,,,,,,,,,,,,,,,,,,,,,,,,,,,,,,,,,,12010,001,2024_Jun_15_1940,nback,2021.2.3,59.546174783716324,
0-back,instructions\back-0.png,conditions\0back-p.xlsx,instructions\0-BACK.png,"(15, 8)",practice,0,2,stim\gray.png,stim\yellow.png,stim\gray.png,stim\gray.png,left,1,0,1,0,0,0,0,0,0,1,1,1,,,,,,,,,,,,,,,,,,,,,,,,,,,206.6572003000001,207.65965589999996,206.6572003000001,207.65965589999996,206.6572003000001,207.65965589999996,206.6572003000001,207.65965589999996,left,1,0.359193299999788,206.6572003000001,None,206.6572003000001,None,206.6572003000001,207.15772930000003,206.6572003000001,207.15772930000003,206.6572003000001,207.15772930000003,206.6572003000001,207.15772930000003,206.6572003000001,None,,,,,,,,,,,,,,,,,,,,,,,,,,,,,,,,,,,,,,,,,,12010,001,2024_Jun_15_1940,nback,2021.2.3,59.546174783716324,
0-back,instructions\back-0.png,conditions\0back-p.xlsx,instructions\0-BACK.png,"(15, 8)",practice,0,3,stim\gray.png,stim\gray.png,stim\yellow.png,stim\gray.png,right,1,0,1,0,0,0,0,0,0,2,2,2,,,,,,,,,,,,,,,,,,,,,,,,,,,208.15940510000019,209.16093170000022,208.15940510000019,209.16093170000022,208.15940510000019,209.16093170000022,208.15940510000019,209.16093170000022,right,1,0.48896179999974265,208.15940510000019,None,208.15940510000019,None,208.15940510000019,208.66050059999998,208.15940510000019,208.66050059999998,208.15940510000019,208.66050059999998,208.15940510000019,208.66050059999998,208.15940510000019,None,,,,,,,,,,,,,,,,,,,,,,,,,,,,,,,,,,,,,,,,,,12010,001,2024_Jun_15_1940,nback,2021.2.3,59.546174783716324,
0-back,instructions\back-0.png,conditions\0back-p.xlsx,instructions\0-BACK.png,"(15, 8)",practice,0,4,stim\gray.png,stim\gray.png,stim\gray.png,stim\yellow.png,down,1,0,1,0,0,0,0,0,0,3,3,3,,,,,,,,,,,,,,,,,,,,,,,,,,,209.66174820000015,210.66306710000026,209.66174820000015,210.66306710000026,209.66174820000015,210.66306710000026,209.66174820000015,210.66306710000026,down,1,0.5788743999992221,209.66174820000015,None,209.66174820000015,None,209.66174820000015,210.1626954000003,209.66174820000015,210.1626954000003,209.66174820000015,210.1626954000003,209.66174820000015,210.1626954000003,209.66174820000015,None,,,,,,,,,,,,,,,,,,,,,,,,,,,,,,,,,,,,,,,,,,12010,001,2024_Jun_15_1940,nback,2021.2.3,59.546174783716324,
0-back,instructions\back-0.png,conditions\0back-p.xlsx,instructions\0-BACK.png,"(15, 8)",practice,0,2,stim\gray.png,stim\yellow.png,stim\gray.png,stim\gray.png,left,1,0,1,0,0,0,0,0,0,4,4,4,,,,,,,,,,,,,,,,,,,,,,,,,,,211.16398870000012,212.16536629999973,211.16398870000012,212.16536629999973,211.16398870000012,212.16536629999973,211.16398870000012,212.16536629999973,left,1,0.5727693999997427,211.16398870000012,None,211.16398870000012,None,211.16398870000012,211.66468580000037,211.16398870000012,211.66468580000037,211.16398870000012,211.66468580000037,211.16398870000012,211.66468580000037,211.16398870000012,None,,,,,,,,,,,,,,,,,,,,,,,,,,,,,,,,,,,,,,,,,,12010,001,2024_Jun_15_1940,nback,2021.2.3,59.546174783716324,
0-back,instructions\back-0.png,conditions\0back-p.xlsx,instructions\0-BACK.png,"(15, 8)",practice,0,1,stim\yellow.png,stim\gray.png,stim\gray.png,stim\gray.png,up,1,0,1,0,0,0,0,0,0,5,5,5,,,,,,,,,,,,,,,,,,,,,,,,,,,212.66603550000036,213.66872590000003,212.66603550000036,213.66872590000003,212.66603550000036,213.66872590000003,212.66603550000036,213.66872590000003,up,1,0.3747898999999961,212.66603550000036,None,212.66603550000036,None,212.66603550000036,213.16806889999953,212.66603550000036,213.16806889999953,212.66603550000036,213.16806889999953,212.66603550000036,213.16806889999953,212.66603550000036,None,,,,,,,,,,,,,,,,,,,,,,,,,,,,,,,,,,,,,,,,,,12010,001,2024_Jun_15_1940,nback,2021.2.3,59.546174783716324,
0-back,instructions\back-0.png,conditions\0back-p.xlsx,instructions\0-BACK.png,"(15, 8)",practice,0,4,stim\gray.png,stim\gray.png,stim\gray.png,stim\yellow.png,down,1,0,1,0,0,0,0,0,0,6,6,6,,,,,,,,,,,,,,,,,,,,,,,,,,,214.1516462999998,215.1532576999998,214.1516462999998,215.1532576999998,214.1516462999998,215.1532576999998,214.1516462999998,215.1532576999998,down,1,0.5052780000005441,214.1516462999998,None,214.1516462999998,None,214.1516462999998,214.6526676000003,214.1516462999998,214.6526676000003,214.1516462999998,214.6526676000003,214.1516462999998,214.6526676000003,214.1516462999998,None,,,,,,,,,,,,,,,,,,,,,,,,,,,,,,,,,,,,,,,,,,12010,001,2024_Jun_15_1940,nback,2021.2.3,59.546174783716324,
0-back,instructions\back-0.png,conditions\0back-p.xlsx,instructions\0-BACK.png,"(15, 8)",practice,0,3,stim\gray.png,stim\gray.png,stim\yellow.png,stim\gray.png,right,1,0,1,0,0,0,0,0,0,7,7,7,,,,,,,,,,,,,,,,,,,,,,,,,,,215.6540772999997,216.6556327999997,215.6540772999997,216.6556327999997,215.6540772999997,216.6556327999997,215.6540772999997,216.6556327999997,right,1,0.29073369999969145,215.6540772999997,None,215.6540772999997,None,215.6540772999997,216.15551539999979,215.6540772999997,216.15551539999979,215.6540772999997,216.15551539999979,215.6540772999997,216.15551539999979,215.6540772999997,None,,,,,,,,,,,,,,,,,,,,,,,,,,,,,,,,,,,,,,,,,,12010,001,2024_Jun_15_1940,nback,2021.2.3,59.546174783716324,
0-back,instructions\back-0.png,conditions\0back-p.xlsx,instructions\0-BACK.png,"(15, 8)",practice,0,3,stim\gray.png,stim\gray.png,stim\yellow.png,stim\gray.png,right,1,0,1,0,0,0,0,0,0,8,8,8,,,,,,,,,,,,,,,,,,,,,,,,,,,217.1563540999996,218.15761190000012,217.1563540999996,218.15761190000012,217.1563540999996,218.15761190000012,217.1563540999996,218.15761190000012,right,1,0.4123334000005343,217.1563540999996,None,217.1563540999996,None,217.1563540999996,217.65710529999978,217.1563540999996,217.65710529999978,217.1563540999996,217.65710529999978,217.1563540999996,217.65710529999978,217.1563540999996,None,,,,,,,,,,,,,,,,,,,,,,,,,,,,,,,,,,,,,,,,,,12010,001,2024_Jun_15_1940,nback,2021.2.3,59.546174783716324,
0-back,instructions\back-0.png,conditions\0back-p.xlsx,instructions\0-BACK.png,"(15, 8)",practice,0,4,stim\gray.png,stim\gray.png,stim\gray.png,stim\yellow.png,down,1,0,1,0,0,0,0,0,0,9,9,9,,,,,,,,,,,,,,,,,,,,,,,,,,,218.65861200000018,219.65996059999998,218.65861200000018,219.65996059999998,218.65861200000018,219.65996059999998,218.65861200000018,219.65996059999998,down,1,0.47806990000026417,218.65861200000018,None,218.65861200000018,None,218.65861200000018,219.1603911000002,218.65861200000018,219.1603911000002,218.65861200000018,219.1603911000002,218.65861200000018,219.1603911000002,218.65861200000018,None,,,,,,,,,,,,,,,,,,,,,,,,,,,,,,,,,,,,,,,,,,12010,001,2024_Jun_15_1940,nback,2021.2.3,59.546174783716324,
0-back,instructions\back-0.png,conditions\0back-p.xlsx,instructions\0-BACK.png,"(15, 8)",practice,0,1,stim\yellow.png,stim\gray.png,stim\gray.png,stim\gray.png,up,1,0,1,0,0,0,0,0,0,10,10,10,,,,,,,,,,,,,,,,,,,,,,,,,,,220.16216090000034,221.16224789999978,220.16216090000034,221.16224789999978,220.16216090000034,221.16224789999978,220.16216090000034,221.16224789999978,up,1,0.3585862999998426,220.16216090000034,None,220.16216090000034,None,220.16216090000034,220.66161050000028,220.16216090000034,220.66161050000028,220.16216090000034,220.66161050000028,220.16216090000034,220.66161050000028,220.16216090000034,None,,,,,,,,,,,,,,,,,,,,,,,,,,,,,,,,,,,,,,,,,,12010,001,2024_Jun_15_1940,nback,2021.2.3,59.546174783716324,
0-back,instructions\back-0.png,conditions\0back-p.xlsx,instructions\0-BACK.png,"(15, 8)",practice,0,2,stim\gray.png,stim\yellow.png,stim\gray.png,stim\gray.png,left,1,0,1,0,0,0,0,0,0,11,11,11,,,,,,,,,,,,,,,,,,,,,,,,,,,221.66306739999982,222.66463079999994,221.66306739999982,222.66463079999994,221.66306739999982,222.66463079999994,221.66306739999982,222.66463079999994,left,1,0.48968130000048404,221.66306739999982,None,221.66306739999982,None,221.66306739999982,222.16334540000025,221.66306739999982,222.16334540000025,221.66306739999982,222.16334540000025,221.66306739999982,222.16334540000025,221.66306739999982,None,,,,,,,,,,,,,,,,,,,,,,,,,,,,,,,,,,,,,,,,,,12010,001,2024_Jun_15_1940,nback,2021.2.3,59.546174783716324,
0-back,instructions\back-0.png,conditions\0back-p.xlsx,instructions\0-BACK.png,"(15, 8)",practice,0,4,stim\gray.png,stim\gray.png,stim\gray.png,stim\yellow.png,down,1,0,1,0,0,0,0,0,0,12,12,12,,,,,,,,,,,,,,,,,,,,,,,,,,,223.16689210000004,224.16688840000006,223.16689210000004,224.16688840000006,223.16689210000004,224.16688840000006,223.16689210000004,224.16688840000006,down,1,0.49000189999969734,223.16689210000004,None,223.16689210000004,None,223.16689210000004,223.66603299999952,223.16689210000004,223.66603299999952,223.16689210000004,223.66603299999952,223.16689210000004,223.66603299999952,223.16689210000004,None,,,,,,,,,,,,,,,,,,,,,,,,,,,,,,,,,,,,,,,,,,12010,001,2024_Jun_15_1940,nback,2021.2.3,59.546174783716324,
0-back,instructions\back-0.png,conditions\0back-p.xlsx,instructions\0-BACK.png,"(15, 8)",practice,0,3,stim\gray.png,stim\gray.png,stim\yellow.png,stim\gray.png,right,1,0,1,0,0,0,0,0,0,13,13,13,,,,,,,,,,,,,,,,,,,,,,,,,,,224.66787730000033,225.66923659999975,224.66787730000033,225.66923659999975,224.66787730000033,225.66923659999975,224.66787730000033,225.66923659999975,right,1,0.3250615999995716,224.66787730000033,None,224.66787730000033,None,224.66787730000033,225.16930409999986,224.66787730000033,225.16930409999986,224.66787730000033,225.16930409999986,224.66787730000033,225.16930409999986,224.66787730000033,None,,,,,,,,,,,,,,,,,,,,,,,,,,,,,,,,,,,,,,,,,,12010,001,2024_Jun_15_1940,nback,2021.2.3,59.546174783716324,
0-back,instructions\back-0.png,conditions\0back-p.xlsx,instructions\0-BACK.png,"(15, 8)",practice,0,1,stim\yellow.png,stim\gray.png,stim\gray.png,stim\gray.png,up,1,0,1,0,0,0,0,0,0,14,14,14,,,,,,,,,,,,,,,,,,,,,,,,,,,226.15321680000034,227.15562090000003,226.15321680000034,227.15562090000003,226.15321680000034,227.15562090000003,226.15321680000034,227.15562090000003,up,1,0.3038766999998188,226.15321680000034,None,226.15321680000034,None,226.15321680000034,226.65406019999955,226.15321680000034,226.65406019999955,226.15321680000034,226.65406019999955,226.15321680000034,226.65406019999955,226.15321680000034,None,,,,,,,,,,,,,,,,,,,,,,,,,,,,,,,,,,,,,,,,,,12010,001,2024_Jun_15_1940,nback,2021.2.3,59.546174783716324,
0-back,instructions\back-0.png,conditions\0back-p.xlsx,instructions\0-BACK.png,"(15, 8)",practice,0,2,stim\gray.png,stim\yellow.png,stim\gray.png,stim\gray.png,left,1,0,1,0,0,0,0,0,0,15,15,15,,,,,,,,,,,,,,,,,,,,,,,,,,,227.6565399000001,228.65696620000017,227.6565399000001,228.65696620000017,227.6565399000001,228.65696620000017,227.6565399000001,228.65696620000017,left,1,0.22477990000061254,227.6565399000001,None,227.6565399000001,None,227.6565399000001,228.15702880000026,227.6565399000001,228.15702880000026,227.6565399000001,228.15702880000026,227.6565399000001,228.15702880000026,227.6565399000001,None,,,,,,,,,,,,,,,,,,,,,,,,,,,,,,,,,,,,,,,,,,12010,001,2024_Jun_15_1940,nback,2021.2.3,59.546174783716324,
0-back,instructions\back-0.png,conditions\0back-p.xlsx,instructions\0-BACK.png,"(15, 8)",practice,0,3,stim\gray.png,stim\gray.png,stim\yellow.png,stim\gray.png,right,1,0,1,0,0,0,0,0,0,16,16,16,,,,,,,,,,,,,,,,,,,,,,,,,,,229.15839679999954,230.15920079999978,229.15839679999954,230.15920079999978,229.15839679999954,230.15920079999978,229.15839679999954,230.15920079999978,right,1,0.346998099999837,229.15839679999954,None,229.15839679999954,None,229.15839679999954,229.65956300000016,229.15839679999954,229.65956300000016,229.15839679999954,229.65956300000016,229.15839679999954,229.65956300000016,229.15839679999954,None,,,,,,,,,,,,,,,,,,,,,,,,,,,,,,,,,,,,,,,,,,12010,001,2024_Jun_15_1940,nback,2021.2.3,59.546174783716324,
0-back,instructions\back-0.png,conditions\0back-p.xlsx,instructions\0-BACK.png,"(15, 8)",practice,0,1,stim\yellow.png,stim\gray.png,stim\gray.png,stim\gray.png,up,1,0,1,0,0,0,0,0,0,17,17,17,,,,,,,,,,,,,,,,,,,,,,,,,,,230.65998370000034,231.66152469999997,230.65998370000034,231.66152469999997,230.65998370000034,231.66152469999997,230.65998370000034,231.66152469999997,up,1,0.349001199999293,230.65998370000034,None,230.65998370000034,None,230.65998370000034,231.16099479999957,230.65998370000034,231.16099479999957,230.65998370000034,231.16099479999957,230.65998370000034,231.16099479999957,230.65998370000034,None,,,,,,,,,,,,,,,,,,,,,,,,,,,,,,,,,,,,,,,,,,12010,001,2024_Jun_15_1940,nback,2021.2.3,59.546174783716324,
0-back,instructions\back-0.png,conditions\0back-p.xlsx,instructions\0-BACK.png,"(15, 8)",practice,0,4,stim\gray.png,stim\gray.png,stim\gray.png,stim\yellow.png,down,1,0,1,0,0,0,0,0,0,18,18,18,,,,,,,,,,,,,,,,,,,,,,,,,,,232.16449529999954,233.16387060000034,232.16449529999954,233.16387060000034,232.16449529999954,233.16387060000034,232.16449529999954,233.16387060000034,down,1,0.5490407000006599,232.16449529999954,None,232.16449529999954,None,232.16449529999954,232.6806832000002,232.16449529999954,232.6806832000002,232.16449529999954,232.6806832000002,232.16449529999954,232.6806832000002,232.16449529999954,None,,,,,,,,,,,,,,,,,,,,,,,,,,,,,,,,,,,,,,,,,,12010,001,2024_Jun_15_1940,nback,2021.2.3,59.546174783716324,
0-back,instructions\back-0.png,conditions\0back-p.xlsx,instructions\0-BACK.png,"(15, 8)",practice,0,2,stim\gray.png,stim\yellow.png,stim\gray.png,stim\gray.png,left,1,0,1,0,0,0,0,0,0,19,19,19,,,,,,,,,,,,,,,,,,,,,,,,,,,233.66470440000012,234.66610769999988,233.66470440000012,234.66610769999988,233.66470440000012,234.66610769999988,233.66470440000012,234.66610769999988,left,1,0.38445600000068225,233.66470440000012,None,233.66470440000012,None,233.66470440000012,234.1652234000003,233.66470440000012,234.1652234000003,233.66470440000012,234.1652234000003,233.66470440000012,234.1652234000003,233.66470440000012,None,,,,,,,,,,,,,,,,,,,,,,,,,,,,,,,,,,,,,,,,,,12010,001,2024_Jun_15_1940,nback,2021.2.3,59.546174783716324,
0-back,instructions\back-0.png,conditions\0back-p.xlsx,instructions\0-BACK.png,"(15, 8)",,,,,,,,,1,0,1,0,0,0,0,0,,,,,,,,,,,,,,,,,,,,,,,,,,,,,,,,,,,,,,,,,,,,,,,,,,,,,,,,,,,,,,,,,,,,,,,,,,,,,,,,,,,,,,,,,,,,,,,,,12010,001,2024_Jun_15_1940,nback,2021.2.3,59.546174783716324,
1-back,instructions\back-1.png,conditions\1back-p.xlsx,instructions\1-BACK.png,"(25, 15)",practice,1,1,stim\yellow.png,stim\gray.png,stim\gray.png,stim\gray.png,None,1,0,1,0,0,1,1,1,0,0,0,0,,,,,,,,,,,,,,,,,235.36714310000025,None,space,5.666187199999513,235.36714310000025,None,241.1925336000004,245.6996310000004,245.66682349999974,None,246.08501350000006,247.08530359999986,246.08501350000006,247.08530359999986,246.08501350000006,247.08530359999986,246.08501350000006,247.08530359999986,None,1,,246.08501350000006,None,246.08501350000006,None,246.08501350000006,246.5840060999999,246.08501350000006,246.5840060999999,246.08501350000006,246.5840060999999,246.08501350000006,246.5840060999999,246.08501350000006,None,,,,,,,,,,,,,,,,,,,,,,,,,,,,,,,,,,,,,,,,,,12010,001,2024_Jun_15_1940,nback,2021.2.3,59.546174783716324,
1-back,instructions\back-1.png,conditions\1back-p.xlsx,instructions\1-BACK.png,"(25, 15)",practice,1,2,stim\gray.png,stim\yellow.png,stim\gray.png,stim\gray.png,up,1,0,1,0,0,1,1,1,0,1,1,1,,,,,,,,,,,,,,,,,,,,,,,,,,,247.56875639999998,248.5712236999998,247.56875639999998,248.5712236999998,247.56875639999998,248.5712236999998,247.56875639999998,248.5712236999998,up,1,0.3130468999997902,247.56875639999998,None,247.56875639999998,None,247.56875639999998,248.07057590000022,247.56875639999998,248.07057590000022,247.56875639999998,248.07057590000022,247.56875639999998,248.07057590000022,247.56875639999998,None,,,,,,,,,,,,,,,,,,,,,,,,,,,,,,,,,,,,,,,,,,12010,001,2024_Jun_15_1940,nback,2021.2.3,59.546174783716324,
1-back,instructions\back-1.png,conditions\1back-p.xlsx,instructions\1-BACK.png,"(25, 15)",practice,1,3,stim\gray.png,stim\gray.png,stim\yellow.png,stim\gray.png,left,1,0,1,0,0,1,1,1,0,2,2,2,,,,,,,,,,,,,,,,,,,,,,,,,,,249.07221519999985,250.07314190000034,249.07221519999985,250.07314190000034,249.07221519999985,250.07314190000034,249.07221519999985,250.07314190000034,left,1,0.16976739999972779,249.07221519999985,None,249.07221519999985,None,249.07221519999985,249.5717824000003,249.07221519999985,249.5717824000003,249.07221519999985,249.5717824000003,249.07221519999985,249.5717824000003,249.07221519999985,None,,,,,,,,,,,,,,,,,,,,,,,,,,,,,,,,,,,,,,,,,,12010,001,2024_Jun_15_1940,nback,2021.2.3,59.546174783716324,
1-back,instructions\back-1.png,conditions\1back-p.xlsx,instructions\1-BACK.png,"(25, 15)",practice,1,4,stim\gray.png,stim\gray.png,stim\gray.png,stim\yellow.png,right,1,0,1,0,0,1,1,1,0,3,3,3,,,,,,,,,,,,,,,,,,,,,,,,,,,250.5734027999997,251.57479270000022,250.5734027999997,251.57479270000022,250.5734027999997,251.57479270000022,250.5734027999997,251.57479270000022,right,1,0.18058810000002268,250.5734027999997,None,250.5734027999997,None,250.5734027999997,251.07403539999996,250.5734027999997,251.07403539999996,250.5734027999997,251.07403539999996,250.5734027999997,251.07403539999996,250.5734027999997,None,,,,,,,,,,,,,,,,,,,,,,,,,,,,,,,,,,,,,,,,,,12010,001,2024_Jun_15_1940,nback,2021.2.3,59.546174783716324,
1-back,instructions\back-1.png,conditions\1back-p.xlsx,instructions\1-BACK.png,"(25, 15)",practice,1,2,stim\gray.png,stim\yellow.png,stim\gray.png,stim\gray.png,down,1,0,1,0,0,1,1,1,0,4,4,4,,,,,,,,,,,,,,,,,,,,,,,,,,,252.07546579999962,253.0771304,252.07546579999962,253.0771304,252.07546579999962,253.0771304,252.07546579999962,253.0771304,left,0,1.4622109000001728,252.07546579999962,None,252.07546579999962,None,252.07546579999962,252.57688359999975,252.07546579999962,252.57688359999975,252.07546579999962,252.57688359999975,252.07546579999962,252.57688359999975,252.07546579999962,None,,,,,,,,,,,,,,,,,,,,,,,,,,,,,,,,,,,,,,,,,,12010,001,2024_Jun_15_1940,nback,2021.2.3,59.546174783716324,
1-back,instructions\back-1.png,conditions\1back-p.xlsx,instructions\1-BACK.png,"(25, 15)",practice,1,1,stim\yellow.png,stim\gray.png,stim\gray.png,stim\gray.png,left,1,0,1,0,0,1,1,1,0,5,5,5,,,,,,,,,,,,,,,,,,,,,,,,,,,253.57874619999984,254.57935720000023,253.57874619999984,254.57935720000023,253.57874619999984,254.57935720000023,253.57874619999984,254.57935720000023,up,0,1.4389350999999806,253.57874619999984,None,253.57874619999984,None,253.57874619999984,254.07877540000027,253.57874619999984,254.07877540000027,253.57874619999984,254.07877540000027,253.57874619999984,254.07877540000027,253.57874619999984,None,,,,,,,,,,,,,,,,,,,,,,,,,,,,,,,,,,,,,,,,,,12010,001,2024_Jun_15_1940,nback,2021.2.3,59.546174783716324,
1-back,instructions\back-1.png,conditions\1back-p.xlsx,instructions\1-BACK.png,"(25, 15)",practice,1,4,stim\gray.png,stim\gray.png,stim\gray.png,stim\yellow.png,up,1,0,1,0,0,1,1,1,0,6,6,6,,,,,,,,,,,,,,,,,,,,,,,,,,,255.06343600000037,256.0656815000002,255.06343600000037,256.0656815000002,255.06343600000037,256.0656815000002,255.06343600000037,256.0656815000002,None,0,,255.06343600000037,None,255.06343600000037,None,255.06343600000037,255.56507609999971,255.06343600000037,255.56507609999971,255.06343600000037,255.56507609999971,255.06343600000037,255.56507609999971,255.06343600000037,None,,,,,,,,,,,,,,,,,,,,,,,,,,,,,,,,,,,,,,,,,,12010,001,2024_Jun_15_1940,nback,2021.2.3,59.546174783716324,
1-back,instructions\back-1.png,conditions\1back-p.xlsx,instructions\1-BACK.png,"(25, 15)",practice,1,3,stim\gray.png,stim\gray.png,stim\yellow.png,stim\gray.png,down,1,0,1,0,0,1,1,1,0,7,7,7,,,,,,,,,,,,,,,,,,,,,,,,,,,256.5656702999995,257.56813929999953,256.5656702999995,257.56813929999953,256.5656702999995,257.56813929999953,256.5656702999995,257.56813929999953,down,1,0.10932930000035412,256.5656702999995,None,256.5656702999995,None,256.5656702999995,257.0665277999997,256.5656702999995,257.0665277999997,256.5656702999995,257.0665277999997,256.5656702999995,257.0665277999997,256.5656702999995,None,,,,,,,,,,,,,,,,,,,,,,,,,,,,,,,,,,,,,,,,,,12010,001,2024_Jun_15_1940,nback,2021.2.3,59.546174783716324,
1-back,instructions\back-1.png,conditions\1back-p.xlsx,instructions\1-BACK.png,"(25, 15)",practice,1,3,stim\gray.png,stim\gray.png,stim\yellow.png,stim\gray.png,right,1,0,1,0,0,1,1,1,0,8,8,8,,,,,,,,,,,,,,,,,,,,,,,,,,,258.06892009999956,259.06947649999984,258.06892009999956,259.06947649999984,258.06892009999956,259.06947649999984,258.06892009999956,259.06947649999984,right,1,0.1088884999999209,258.06892009999956,None,258.06892009999956,None,258.06892009999956,258.56869499999993,258.06892009999956,258.56869499999993,258.06892009999956,258.56869499999993,258.06892009999956,258.56869499999993,258.06892009999956,None,,,,,,,,,,,,,,,,,,,,,,,,,,,,,,,,,,,,,,,,,,12010,001,2024_Jun_15_1940,nback,2021.2.3,59.546174783716324,
1-back,instructions\back-1.png,conditions\1back-p.xlsx,instructions\1-BACK.png,"(25, 15)",practice,1,4,stim\gray.png,stim\gray.png,stim\gray.png,stim\yellow.png,right,1,0,1,0,0,1,1,1,0,9,9,9,,,,,,,,,,,,,,,,,,,,,,,,,,,259.57016959999964,260.57186640000054,259.57016959999964,260.57186640000054,259.57016959999964,260.57186640000054,259.57016959999964,260.57186640000054,right,1,0.06363130000045203,259.57016959999964,None,259.57016959999964,None,259.57016959999964,260.07095779999963,259.57016959999964,260.07095779999963,259.57016959999964,260.07095779999963,259.57016959999964,260.07095779999963,259.57016959999964,None,,,,,,,,,,,,,,,,,,,,,,,,,,,,,,,,,,,,,,,,,,12010,001,2024_Jun_15_1940,nback,2021.2.3,59.546174783716324,
1-back,instructions\back-1.png,conditions\1back-p.xlsx,instructions\1-BACK.png,"(25, 15)",practice,1,1,stim\yellow.png,stim\gray.png,stim\gray.png,stim\gray.png,down,1,0,1,0,0,1,1,1,0,10,10,10,,,,,,,,,,,,,,,,,,,,,,,,,,,261.0723939999998,262.07401839999966,261.0723939999998,262.07401839999966,261.0723939999998,262.07401839999966,261.0723939999998,262.07401839999966,down,1,0.1694972000004782,261.0723939999998,None,261.0723939999998,None,261.0723939999998,261.5732584999996,261.0723939999998,261.5732584999996,261.0723939999998,261.5732584999996,261.0723939999998,261.5732584999996,261.0723939999998,None,,,,,,,,,,,,,,,,,,,,,,,,,,,,,,,,,,,,,,,,,,12010,001,2024_Jun_15_1940,nback,2021.2.3,59.546174783716324,
1-back,instructions\back-1.png,conditions\1back-p.xlsx,instructions\1-BACK.png,"(25, 15)",practice,1,2,stim\gray.png,stim\yellow.png,stim\gray.png,stim\gray.png,up,1,0,1,0,0,1,1,1,0,11,11,11,,,,,,,,,,,,,,,,,,,,,,,,,,,262.57479990000047,263.5771673999998,262.57479990000047,263.5771673999998,262.57479990000047,263.5771673999998,262.57479990000047,263.5771673999998,up,1,0.12337710000065272,262.57479990000047,None,262.57479990000047,None,262.57479990000047,263.0764157000003,262.57479990000047,263.0764157000003,262.57479990000047,263.0764157000003,262.57479990000047,263.0764157000003,262.57479990000047,None,,,,,,,,,,,,,,,,,,,,,,,,,,,,,,,,,,,,,,,,,,12010,001,2024_Jun_15_1940,nback,2021.2.3,59.546174783716324,
1-back,instructions\back-1.png,conditions\1back-p.xlsx,instructions\1-BACK.png,"(25, 15)",practice,1,4,stim\gray.png,stim\gray.png,stim\gray.png,stim\yellow.png,left,1,0,1,0,0,1,1,1,0,12,12,12,,,,,,,,,,,,,,,,,,,,,,,,,,,264.07728399999996,265.0787085999991,264.07728399999996,265.0787085999991,264.07728399999996,265.0787085999991,264.07728399999996,265.0787085999991,left,1,0.15734030000021448,264.07728399999996,None,264.07728399999996,None,264.07728399999996,264.5776541000005,264.07728399999996,264.5776541000005,264.07728399999996,264.5776541000005,264.07728399999996,264.5776541000005,264.07728399999996,None,,,,,,,,,,,,,,,,,,,,,,,,,,,,,,,,,,,,,,,,,,12010,001,2024_Jun_15_1940,nback,2021.2.3,59.546174783716324,
1-back,instructions\back-1.png,conditions\1back-p.xlsx,instructions\1-BACK.png,"(25, 15)",practice,1,3,stim\gray.png,stim\gray.png,stim\yellow.png,stim\gray.png,down,1,0,1,0,0,1,1,1,0,13,13,13,,,,,,,,,,,,,,,,,,,,,,,,,,,265.57931390000067,266.58158599999933,265.57931390000067,266.58158599999933,265.57931390000067,266.58158599999933,265.57931390000067,266.58158599999933,down,1,0.08637169999929029,265.57931390000067,None,265.57931390000067,None,265.57931390000067,266.0812570999997,265.57931390000067,266.0812570999997,265.57931390000067,266.0812570999997,265.57931390000067,266.0812570999997,265.57931390000067,None,,,,,,,,,,,,,,,,,,,,,,,,,,,,,,,,,,,,,,,,,,12010,001,2024_Jun_15_1940,nback,2021.2.3,59.546174783716324,
1-back,instructions\back-1.png,conditions\1back-p.xlsx,instructions\1-BACK.png,"(25, 15)",practice,1,1,stim\yellow.png,stim\gray.png,stim\gray.png,stim\gray.png,right,1,0,1,0,0,1,1,1,0,14,14,14,,,,,,,,,,,,,,,,,,,,,,,,,,,267.0647968000003,268.0664475000003,267.0647968000003,268.0664475000003,267.0647968000003,268.0664475000003,267.0647968000003,268.0664475000003,right,1,0.049924799999644165,267.0647968000003,None,267.0647968000003,None,267.0647968000003,267.5657603999998,267.0647968000003,267.5657603999998,267.0647968000003,267.5657603999998,267.0647968000003,267.5657603999998,267.0647968000003,None,,,,,,,,,,,,,,,,,,,,,,,,,,,,,,,,,,,,,,,,,,12010,001,2024_Jun_15_1940,nback,2021.2.3,59.546174783716324,
1-back,instructions\back-1.png,conditions\1back-p.xlsx,instructions\1-BACK.png,"(25, 15)",practice,1,2,stim\gray.png,stim\yellow.png,stim\gray.png,stim\gray.png,up,1,0,1,0,0,1,1,1,0,15,15,15,,,,,,,,,,,,,,,,,,,,,,,,,,,268.56805819999954,269.56864640000003,268.56805819999954,269.56864640000003,268.56805819999954,269.56864640000003,268.56805819999954,269.56864640000003,up,1,0.1781611000005796,268.56805819999954,None,268.56805819999954,None,268.56805819999954,269.06789970000045,268.56805819999954,269.06789970000045,268.56805819999954,269.06789970000045,268.56805819999954,269.06789970000045,268.56805819999954,None,,,,,,,,,,,,,,,,,,,,,,,,,,,,,,,,,,,,,,,,,,12010,001,2024_Jun_15_1940,nback,2021.2.3,59.546174783716324,
1-back,instructions\back-1.png,conditions\1back-p.xlsx,instructions\1-BACK.png,"(25, 15)",practice,1,3,stim\gray.png,stim\gray.png,stim\yellow.png,stim\gray.png,left,1,0,1,0,0,1,1,1,0,16,16,16,,,,,,,,,,,,,,,,,,,,,,,,,,,270.06939150000017,271.0710360999992,270.06939150000017,271.0710360999992,270.06939150000017,271.0710360999992,270.06939150000017,271.0710360999992,left,1,0.1736823999999615,270.06939150000017,None,270.06939150000017,None,270.06939150000017,270.5702102000005,270.06939150000017,270.5702102000005,270.06939150000017,270.5702102000005,270.06939150000017,270.5702102000005,270.06939150000017,None,,,,,,,,,,,,,,,,,,,,,,,,,,,,,,,,,,,,,,,,,,12010,001,2024_Jun_15_1940,nback,2021.2.3,59.546174783716324,
1-back,instructions\back-1.png,conditions\1back-p.xlsx,instructions\1-BACK.png,"(25, 15)",practice,1,1,stim\yellow.png,stim\gray.png,stim\gray.png,stim\gray.png,right,1,0,1,0,0,1,1,1,0,17,17,17,,,,,,,,,,,,,,,,,,,,,,,,,,,271.57173430000057,272.57327410000016,271.57173430000057,272.57327410000016,271.57173430000057,272.57327410000016,271.57173430000057,272.57327410000016,right,1,0.1910465999990265,271.57173430000057,None,271.57173430000057,None,271.57173430000057,272.0731435000007,271.57173430000057,272.0731435000007,271.57173430000057,272.0731435000007,271.57173430000057,272.0731435000007,271.57173430000057,None,,,,,,,,,,,,,,,,,,,,,,,,,,,,,,,,,,,,,,,,,,12010,001,2024_Jun_15_1940,nback,2021.2.3,59.546174783716324,
1-back,instructions\back-1.png,conditions\1back-p.xlsx,instructions\1-BACK.png,"(25, 15)",practice,1,4,stim\gray.png,stim\gray.png,stim\gray.png,stim\yellow.png,up,1,0,1,0,0,1,1,1,0,18,18,18,,,,,,,,,,,,,,,,,,,,,,,,,,,273.07421890000023,274.0756152999993,273.07421890000023,274.0756152999993,273.07421890000023,274.0756152999993,273.07421890000023,274.0756152999993,up,1,0.22418130000005476,273.07421890000023,None,273.07421890000023,None,273.07421890000023,273.5747717000004,273.07421890000023,273.5747717000004,273.07421890000023,273.5747717000004,273.07421890000023,273.5747717000004,273.07421890000023,None,,,,,,,,,,,,,,,,,,,,,,,,,,,,,,,,,,,,,,,,,,12010,001,2024_Jun_15_1940,nback,2021.2.3,59.546174783716324,
1-back,instructions\back-1.png,conditions\1back-p.xlsx,instructions\1-BACK.png,"(25, 15)",practice,1,2,stim\gray.png,stim\yellow.png,stim\gray.png,stim\gray.png,down,1,0,1,0,0,1,1,1,0,19,19,19,,,,,,,,,,,,,,,,,,,,,,,,,,,274.57629630000065,275.5786349,274.57629630000065,275.5786349,274.57629630000065,275.5786349,274.57629630000065,275.5786349,down,1,0.18589609999980894,274.57629630000065,None,274.57629630000065,None,274.57629630000065,275.0780688999994,274.57629630000065,275.0780688999994,274.57629630000065,275.0780688999994,274.57629630000065,275.0780688999994,274.57629630000065,None,,,,,,,,,,,,,,,,,,,,,,,,,,,,,,,,,,,,,,,,,,12010,001,2024_Jun_15_1940,nback,2021.2.3,59.546174783716324,
1-back,instructions\back-1.png,conditions\1back-p.xlsx,instructions\1-BACK.png,"(25, 15)",,,,,,,,,1,0,1,0,0,1,1,1,,,,,,,,,,,,,,,,,,,,,,,,,,,,,,,,,,,,,,,,,,,,,,,,,,,,,,,,,,,,,,,,,,,,,,,,,,,,,,,,,,,,,,,,,,,,,,,,,12010,001,2024_Jun_15_1940,nback,2021.2.3,59.546174783716324,
2-back,instructions\back-2.png,conditions\2back-p.xlsx,instructions\2-BACK.png,"(25, 15)",practice,2,1,stim\yellow.png,stim\gray.png,stim\gray.png,stim\gray.png,None,1,0,1,0,0,2,2,2,0,0,0,0,,,,,,,,,,,,,,,,,276.2454398,None,space,8.196819299999333,276.2454398,None,284.6246283999999,289.1326220000001,289.0815169999996,None,289.4822388999992,290.48473450000074,289.4822388999992,290.48473450000074,289.4822388999992,290.48473450000074,289.4822388999992,290.48473450000074,None,1,,289.4822388999992,None,289.4822388999992,None,289.4822388999992,289.98281009999937,289.4822388999992,289.98281009999937,289.4822388999992,289.98281009999937,289.4822388999992,289.98281009999937,289.4822388999992,None,,,,,,,,,,,,,,,,,,,,,,,,,,,,,,,,,,,,,,,,,,12010,001,2024_Jun_15_1940,nback,2021.2.3,59.546174783716324,
2-back,instructions\back-2.png,conditions\2back-p.xlsx,instructions\2-BACK.png,"(25, 15)",practice,2,2,stim\gray.png,stim\yellow.png,stim\gray.png,stim\gray.png,None,1,0,1,0,0,2,2,2,0,1,1,1,,,,,,,,,,,,,,,,,,,,,,,,,,,290.96746070000063,291.96985869999935,290.96746070000063,291.96985869999935,290.96746070000063,291.96985869999935,290.96746070000063,291.96985869999935,None,1,,290.96746070000063,None,290.96746070000063,None,290.96746070000063,291.4690053000004,290.96746070000063,291.4690053000004,290.96746070000063,291.4690053000004,290.96746070000063,291.4690053000004,290.96746070000063,None,,,,,,,,,,,,,,,,,,,,,,,,,,,,,,,,,,,,,,,,,,12010,001,2024_Jun_15_1940,nback,2021.2.3,59.546174783716324,
2-back,instructions\back-2.png,conditions\2back-p.xlsx,instructions\2-BACK.png,"(25, 15)",practice,2,3,stim\gray.png,stim\gray.png,stim\yellow.png,stim\gray.png,up,1,0,1,0,0,2,2,2,0,2,2,2,,,,,,,,,,,,,,,,,,,,,,,,,,,292.46987440000066,293.4713672000007,292.46987440000066,293.4713672000007,292.46987440000066,293.4713672000007,292.46987440000066,293.4713672000007,up,1,0.25300140000035753,292.46987440000066,None,292.46987440000066,None,292.46987440000066,292.9711369000006,292.46987440000066,292.9711369000006,292.46987440000066,292.9711369000006,292.46987440000066,292.9711369000006,292.46987440000066,None,,,,,,,,,,,,,,,,,,,,,,,,,,,,,,,,,,,,,,,,,,12010,001,2024_Jun_15_1940,nback,2021.2.3,59.546174783716324,
2-back,instructions\back-2.png,conditions\2back-p.xlsx,instructions\2-BACK.png,"(25, 15)",practice,2,4,stim\gray.png,stim\gray.png,stim\gray.png,stim\yellow.png,left,1,0,1,0,0,2,2,2,0,3,3,3,,,,,,,,,,,,,,,,,,,,,,,,,,,293.9721383999995,294.9737849000003,293.9721383999995,294.9737849000003,293.9721383999995,294.9737849000003,293.9721383999995,294.9737849000003,left,1,0.0945995000001858,293.9721383999995,None,293.9721383999995,None,293.9721383999995,294.4727350999992,293.9721383999995,294.4727350999992,293.9721383999995,294.4727350999992,293.9721383999995,294.4727350999992,293.9721383999995,None,,,,,,,,,,,,,,,,,,,,,,,,,,,,,,,,,,,,,,,,,,12010,001,2024_Jun_15_1940,nback,2021.2.3,59.546174783716324,
2-back,instructions\back-2.png,conditions\2back-p.xlsx,instructions\2-BACK.png,"(25, 15)",practice,2,2,stim\gray.png,stim\yellow.png,stim\gray.png,stim\gray.png,right,1,0,1,0,0,2,2,2,0,4,4,4,,,,,,,,,,,,,,,,,,,,,,,,,,,295.4743769000006,296.47663960000045,295.4743769000006,296.47663960000045,295.4743769000006,296.47663960000045,295.4743769000006,296.47663960000045,right,1,0.016715699999622302,295.4743769000006,None,295.4743769000006,None,295.4743769000006,295.97509140000057,295.4743769000006,295.97509140000057,295.4743769000006,295.97509140000057,295.4743769000006,295.97509140000057,295.4743769000006,None,,,,,,,,,,,,,,,,,,,,,,,,,,,,,,,,,,,,,,,,,,12010,001,2024_Jun_15_1940,nback,2021.2.3,59.546174783716324,
2-back,instructions\back-2.png,conditions\2back-p.xlsx,instructions\2-BACK.png,"(25, 15)",practice,2,1,stim\yellow.png,stim\gray.png,stim\gray.png,stim\gray.png,down,1,0,1,0,0,2,2,2,0,5,5,5,,,,,,,,,,,,,,,,,,,,,,,,,,,296.97677869999916,297.9792649000001,296.97677869999916,297.9792649000001,296.97677869999916,297.9792649000001,296.97677869999916,297.9792649000001,down,1,0.0019640000009530922,296.97677869999916,None,296.97677869999916,None,296.97677869999916,297.4787645000006,296.97677869999916,297.4787645000006,296.97677869999916,297.4787645000006,296.97677869999916,297.4787645000006,296.97677869999916,None,,,,,,,,,,,,,,,,,,,,,,,,,,,,,,,,,,,,,,,,,,12010,001,2024_Jun_15_1940,nback,2021.2.3,59.546174783716324,
2-back,instructions\back-2.png,conditions\2back-p.xlsx,instructions\2-BACK.png,"(25, 15)",practice,2,4,stim\gray.png,stim\gray.png,stim\gray.png,stim\yellow.png,left,1,0,1,0,0,2,2,2,0,6,6,6,,,,,,,,,,,,,,,,,,,,,,,,,,,298.4623758000007,299.4638934000004,298.4623758000007,299.4638934000004,298.4623758000007,299.4638934000004,298.4623758000007,299.4638934000004,left,1,0.012568799998916802,298.4623758000007,None,298.4623758000007,None,298.4623758000007,298.9632651999991,298.4623758000007,298.9632651999991,298.4623758000007,298.9632651999991,298.4623758000007,298.9632651999991,298.4623758000007,None,,,,,,,,,,,,,,,,,,,,,,,,,,,,,,,,,,,,,,,,,,12010,001,2024_Jun_15_1940,nback,2021.2.3,59.546174783716324,
2-back,instructions\back-2.png,conditions\2back-p.xlsx,instructions\2-BACK.png,"(25, 15)",practice,2,3,stim\gray.png,stim\gray.png,stim\yellow.png,stim\gray.png,up,1,0,1,0,0,2,2,2,0,7,7,7,,,,,,,,,,,,,,,,,,,,,,,,,,,299.96432469999945,300.96690150000086,299.96432469999945,300.96690150000086,299.96432469999945,300.96690150000086,299.96432469999945,300.96690150000086,up,1,0.0064610999997967156,299.96432469999945,None,299.96432469999945,None,299.96432469999945,300.46531530000084,299.96432469999945,300.46531530000084,299.96432469999945,300.46531530000084,299.96432469999945,300.46531530000084,299.96432469999945,None,,,,,,,,,,,,,,,,,,,,,,,,,,,,,,,,,,,,,,,,,,12010,001,2024_Jun_15_1940,nback,2021.2.3,59.546174783716324,
2-back,instructions\back-2.png,conditions\2back-p.xlsx,instructions\2-BACK.png,"(25, 15)",practice,2,3,stim\gray.png,stim\gray.png,stim\yellow.png,stim\gray.png,down,1,0,1,0,0,2,2,2,0,8,8,8,,,,,,,,,,,,,,,,,,,,,,,,,,,301.4666681000008,302.46824130000005,301.4666681000008,302.46824130000005,301.4666681000008,302.46824130000005,301.4666681000008,302.46824130000005,down,1,0.03215950000048906,301.4666681000008,None,301.4666681000008,None,301.4666681000008,301.9677440000005,301.4666681000008,301.9677440000005,301.4666681000008,301.9677440000005,301.4666681000008,301.9677440000005,301.4666681000008,None,,,,,,,,,,,,,,,,,,,,,,,,,,,,,,,,,,,,,,,,,,12010,001,2024_Jun_15_1940,nback,2021.2.3,59.546174783716324,
2-back,instructions\back-2.png,conditions\2back-p.xlsx,instructions\2-BACK.png,"(25, 15)",practice,2,4,stim\gray.png,stim\gray.png,stim\gray.png,stim\yellow.png,right,1,0,1,0,0,2,2,2,0,9,9,9,,,,,,,,,,,,,,,,,,,,,,,,,,,302.96903420000035,303.9706359999991,302.96903420000035,303.9706359999991,302.96903420000035,303.9706359999991,302.96903420000035,303.9706359999991,None,0,,302.96903420000035,None,302.96903420000035,None,302.96903420000035,303.4698868000005,302.96903420000035,303.4698868000005,302.96903420000035,303.4698868000005,302.96903420000035,303.4698868000005,302.96903420000035,None,,,,,,,,,,,,,,,,,,,,,,,,,,,,,,,,,,,,,,,,,,12010,001,2024_Jun_15_1940,nback,2021.2.3,59.546174783716324,
2-back,instructions\back-2.png,conditions\2back-p.xlsx,instructions\2-BACK.png,"(25, 15)",practice,2,1,stim\yellow.png,stim\gray.png,stim\gray.png,stim\gray.png,right,1,0,1,0,0,2,2,2,0,10,10,10,,,,,,,,,,,,,,,,,,,,,,,,,,,304.4712480999997,305.4725731000008,304.4712480999997,305.4725731000008,304.4712480999997,305.4725731000008,304.4712480999997,305.4725731000008,right,1,0.059794199998577824,304.4712480999997,None,304.4712480999997,None,304.4712480999997,304.97320090000085,304.4712480999997,304.97320090000085,304.4712480999997,304.97320090000085,304.4712480999997,304.97320090000085,304.4712480999997,None,,,,,,,,,,,,,,,,,,,,,,,,,,,,,,,,,,,,,,,,,,12010,001,2024_Jun_15_1940,nback,2021.2.3,59.546174783716324,
2-back,instructions\back-2.png,conditions\2back-p.xlsx,instructions\2-BACK.png,"(25, 15)",practice,2,2,stim\gray.png,stim\yellow.png,stim\gray.png,stim\gray.png,down,1,0,1,0,0,2,2,2,0,11,11,11,,,,,,,,,,,,,,,,,,,,,,,,,,,305.9737931999998,306.9751232000008,305.9737931999998,306.9751232000008,305.9737931999998,306.9751232000008,305.9737931999998,306.9751232000008,down,1,0.01365310000073805,305.9737931999998,None,305.9737931999998,None,305.9737931999998,306.47429420000026,305.9737931999998,306.47429420000026,305.9737931999998,306.47429420000026,305.9737931999998,306.47429420000026,305.9737931999998,None,,,,,,,,,,,,,,,,,,,,,,,,,,,,,,,,,,,,,,,,,,12010,001,2024_Jun_15_1940,nback,2021.2.3,59.546174783716324,
2-back,instructions\back-2.png,conditions\2back-p.xlsx,instructions\2-BACK.png,"(25, 15)",practice,2,4,stim\gray.png,stim\gray.png,stim\gray.png,stim\yellow.png,up,1,0,1,0,0,2,2,2,0,12,12,12,,,,,,,,,,,,,,,,,,,,,,,,,,,307.47610169999916,308.4786245999994,307.47610169999916,308.4786245999994,307.47610169999916,308.4786245999994,307.47610169999916,308.4786245999994,up,1,0.014954299998862552,307.47610169999916,None,307.47610169999916,None,307.47610169999916,307.97790970000005,307.47610169999916,307.97790970000005,307.47610169999916,307.97790970000005,307.47610169999916,307.97790970000005,307.47610169999916,None,,,,,,,,,,,,,,,,,,,,,,,,,,,,,,,,,,,,,,,,,,12010,001,2024_Jun_15_1940,nback,2021.2.3,59.546174783716324,
2-back,instructions\back-2.png,conditions\2back-p.xlsx,instructions\2-BACK.png,"(25, 15)",practice,2,3,stim\gray.png,stim\gray.png,stim\yellow.png,stim\gray.png,left,1,0,1,0,0,2,2,2,0,13,13,13,,,,,,,,,,,,,,,,,,,,,,,,,,,308.96131220000007,309.9632850000007,308.96131220000007,309.9632850000007,308.96131220000007,309.9632850000007,308.96131220000007,309.9632850000007,left,1,0.0340014000012161,308.96131220000007,None,308.96131220000007,None,308.96131220000007,309.46217069999966,308.96131220000007,309.46217069999966,308.96131220000007,309.46217069999966,308.96131220000007,309.46217069999966,308.96131220000007,None,,,,,,,,,,,,,,,,,,,,,,,,,,,,,,,,,,,,,,,,,,12010,001,2024_Jun_15_1940,nback,2021.2.3,59.546174783716324,
2-back,instructions\back-2.png,conditions\2back-p.xlsx,instructions\2-BACK.png,"(25, 15)",practice,2,1,stim\yellow.png,stim\gray.png,stim\gray.png,stim\gray.png,down,1,0,1,0,0,2,2,2,0,14,14,14,,,,,,,,,,,,,,,,,,,,,,,,,,,310.4637518999998,311.4651423999994,310.4637518999998,311.4651423999994,310.4637518999998,311.4651423999994,310.4637518999998,311.4651423999994,down,1,0.07539560000077472,310.4637518999998,None,310.4637518999998,None,310.4637518999998,310.9657216000005,310.4637518999998,310.9657216000005,310.4637518999998,310.9657216000005,310.4637518999998,310.9657216000005,310.4637518999998,None,,,,,,,,,,,,,,,,,,,,,,,,,,,,,,,,,,,,,,,,,,12010,001,2024_Jun_15_1940,nback,2021.2.3,59.546174783716324,
2-back,instructions\back-2.png,conditions\2back-p.xlsx,instructions\2-BACK.png,"(25, 15)",practice,2,2,stim\gray.png,stim\yellow.png,stim\gray.png,stim\gray.png,right,1,0,1,0,0,2,2,2,0,15,15,15,,,,,,,,,,,,,,,,,,,,,,,,,,,311.96591139999964,312.96751099999983,311.96591139999964,312.96751099999983,311.96591139999964,312.96751099999983,311.96591139999964,312.96751099999983,right,1,0.06926910000038333,311.96591139999964,None,311.96591139999964,None,311.96591139999964,312.46757049999997,311.96591139999964,312.46757049999997,311.96591139999964,312.46757049999997,311.96591139999964,312.46757049999997,311.96591139999964,None,,,,,,,,,,,,,,,,,,,,,,,,,,,,,,,,,,,,,,,,,,12010,001,2024_Jun_15_1940,nback,2021.2.3,59.546174783716324,
2-back,instructions\back-2.png,conditions\2back-p.xlsx,instructions\2-BACK.png,"(25, 15)",practice,2,3,stim\gray.png,stim\gray.png,stim\yellow.png,stim\gray.png,up,1,0,1,0,0,2,2,2,0,16,16,16,,,,,,,,,,,,,,,,,,,,,,,,,,,313.46834089999993,314.4695830999999,313.46834089999993,314.4695830999999,313.46834089999993,314.4695830999999,313.46834089999993,314.4695830999999,up,1,0.06334659999993164,313.46834089999993,None,313.46834089999993,None,313.46834089999993,313.96943139999985,313.46834089999993,313.96943139999985,313.46834089999993,313.96943139999985,313.46834089999993,313.96943139999985,313.46834089999993,None,,,,,,,,,,,,,,,,,,,,,,,,,,,,,,,,,,,,,,,,,,12010,001,2024_Jun_15_1940,nback,2021.2.3,59.546174783716324,
2-back,instructions\back-2.png,conditions\2back-p.xlsx,instructions\2-BACK.png,"(25, 15)",practice,2,1,stim\yellow.png,stim\gray.png,stim\gray.png,stim\gray.png,left,1,0,1,0,0,2,2,2,0,17,17,17,,,,,,,,,,,,,,,,,,,,,,,,,,,314.97048579999955,315.97310299999936,314.97048579999955,315.97310299999936,314.97048579999955,315.97310299999936,314.97048579999955,315.97310299999936,left,1,0.08078690000002098,314.97048579999955,None,314.97048579999955,None,314.97048579999955,315.47218469999916,314.97048579999955,315.47218469999916,314.97048579999955,315.47218469999916,314.97048579999955,315.47218469999916,314.97048579999955,None,,,,,,,,,,,,,,,,,,,,,,,,,,,,,,,,,,,,,,,,,,12010,001,2024_Jun_15_1940,nback,2021.2.3,59.546174783716324,
2-back,instructions\back-2.png,conditions\2back-p.xlsx,instructions\2-BACK.png,"(25, 15)",practice,2,4,stim\gray.png,stim\gray.png,stim\gray.png,stim\yellow.png,right,1,0,1,0,0,2,2,2,0,18,18,18,,,,,,,,,,,,,,,,,,,,,,,,,,,316.47258860000056,317.4744677000008,316.47258860000056,317.4744677000008,316.47258860000056,317.4744677000008,316.47258860000056,317.4744677000008,None,0,,316.47258860000056,None,316.47258860000056,None,316.47258860000056,316.97410880000007,316.47258860000056,316.97410880000007,316.47258860000056,316.97410880000007,316.47258860000056,316.97410880000007,316.47258860000056,None,,,,,,,,,,,,,,,,,,,,,,,,,,,,,,,,,,,,,,,,,,12010,001,2024_Jun_15_1940,nback,2021.2.3,59.546174783716324,
2-back,instructions\back-2.png,conditions\2back-p.xlsx,instructions\2-BACK.png,"(25, 15)",practice,2,2,stim\gray.png,stim\yellow.png,stim\gray.png,stim\gray.png,up,1,0,1,0,0,2,2,2,0,19,19,19,,,,,,,,,,,,,,,,,,,,,,,,,,,317.9749994999993,318.9764798999995,317.9749994999993,318.9764798999995,317.9749994999993,318.9764798999995,317.9749994999993,318.9764798999995,up,1,0.012555999999676715,317.9749994999993,None,317.9749994999993,None,317.9749994999993,318.4758881000007,317.9749994999993,318.4758881000007,317.9749994999993,318.4758881000007,317.9749994999993,318.4758881000007,317.9749994999993,None,,,,,,,,,,,,,,,,,,,,,,,,,,,,,,,,,,,,,,,,,,12010,001,2024_Jun_15_1940,nback,2021.2.3,59.546174783716324,
2-back,instructions\back-2.png,conditions\2back-p.xlsx,instructions\2-BACK.png,"(25, 15)",,,,,,,,,1,0,1,0,0,2,2,2,,,,,,,,,,,,,,,,,,,,,,,,,,,,,,,,,,,,,,,,,,,,,,,,,,,,,,,,,,,,,,,,,,,,,,,,,,,,,,,,,,,,,,,,,,,,,,,,,12010,001,2024_Jun_15_1940,nback,2021.2.3,59.546174783716324,
,,,,,,,,,,,,,1,0,1,0,,,,,,,,,,,,,,,,,,,,,,,,,,,,,,,,,,,,,,,,,,,,,,,,,,,,,,,,,,,,319.4772989999992,None,space,3.2622566999998526,319.4772989999992,None,,,,,,,,,,,,,,,,,,,,,,,,,,,,,,,,,,,,12010,001,2024_Jun_15_1940,nback,2021.2.3,59.546174783716324,
,,,,,,,,,,,,,,,,,,,,,,,,,,,,,,,,,,,,,,,,,,,,,,,,,,,,,,,,,,,,,,,,,,,,,,,,,,,,,,,,,,322.7655182999997,None,space,24.89529399999992,322.7655182999997,None,,,,,,,,,,,,,,,,,,,,,,,,,,,,,,12010,001,2024_Jun_15_1940,nback,2021.2.3,59.546174783716324,
2-back,instructions\back-2.png,conditions\20back-e.xlsx,,,experiment,2,2,stim\gray.png,stim\yellow.png,stim\gray.png,stim\gray.png,None,,,,,,,,,,,,,0,0,0,2,0,0,0,0,,,,,,,,,,,,,,,347.81972790000054,352.3277793999996,352.2945375999998,None,,,,,,,,,,,,,,,,,,,,,,,,,,,,,,,,,,,,,,None,1,352.7107107999991,None,352.7107107999991,None,352.7107107999991,353.7142859000005,352.7107107999991,353.7142859000005,352.7107107999991,353.7142859000005,352.7107107999991,353.7142859000005,352.7107107999991,353.21264319999955,352.7107107999991,353.21264319999955,352.7107107999991,353.21264319999955,352.7107107999991,353.21264319999955,352.7107107999991,None,,,,,,12010,001,2024_Jun_15_1940,nback,2021.2.3,59.546174783716324,
2-back,instructions\back-2.png,conditions\20back-e.xlsx,,,experiment,2,1,stim\yellow.png,stim\gray.png,stim\gray.png,stim\gray.png,None,,,,,,,,,,,,,0,0,0,2,0,1,1,1,,,,,,,,,,,,,,,,,,,,,,,,,,,,,,,,,,,,,,,,,,,,,,,,,,,,,,,,None,1,354.19741390000036,None,354.19741390000036,None,354.19741390000036,355.1976387000004,354.19741390000036,355.1976387000004,354.19741390000036,355.1976387000004,354.19741390000036,355.1976387000004,354.19741390000036,354.69711089999964,354.19741390000036,354.69711089999964,354.19741390000036,354.69711089999964,354.19741390000036,354.69711089999964,354.19741390000036,None,,,,,,12010,001,2024_Jun_15_1940,nback,2021.2.3,59.546174783716324,
2-back,instructions\back-2.png,conditions\20back-e.xlsx,,,experiment,2,4,stim\gray.png,stim\gray.png,stim\gray.png,stim\yellow.png,left,,,,,,,,,,,,,0,0,0,2,0,2,2,2,,,,,,,,,,,,,,,,,,,,,,,,,,,,,,,,,,,,,,,,,,,,,,,,,,,,,,,,up,0,355.6985895000007,None,355.6985895000007,None,355.6985895000007,356.7011035000005,355.6985895000007,356.7011035000005,355.6985895000007,356.7011035000005,355.6985895000007,356.7011035000005,355.6985895000007,356.2002908000004,355.6985895000007,356.2002908000004,355.6985895000007,356.2002908000004,355.6985895000007,356.2002908000004,355.6985895000007,None,1.4422472000005655,,,,,12010,001,2024_Jun_15_1940,nback,2021.2.3,59.546174783716324,
2-back,instructions\back-2.png,conditions\20back-e.xlsx,,,experiment,2,3,stim\gray.png,stim\gray.png,stim\yellow.png,stim\gray.png,up,,,,,,,,,,,,,0,0,0,2,0,3,3,3,,,,,,,,,,,,,,,,,,,,,,,,,,,,,,,,,,,,,,,,,,,,,,,,,,,,,,,,None,0,357.2007566000002,None,357.2007566000002,None,357.2007566000002,358.2030373000007,357.2007566000002,358.2030373000007,357.2007566000002,358.2030373000007,357.2007566000002,358.2030373000007,357.2007566000002,357.70170419999977,357.2007566000002,357.70170419999977,357.2007566000002,357.70170419999977,357.2007566000002,357.70170419999977,357.2007566000002,None,,,,,,12010,001,2024_Jun_15_1940,nback,2021.2.3,59.546174783716324,
2-back,instructions\back-2.png,conditions\20back-e.xlsx,,,experiment,2,1,stim\yellow.png,stim\gray.png,stim\gray.png,stim\gray.png,down,,,,,,,,,,,,,0,0,0,2,0,4,4,4,,,,,,,,,,,,,,,,,,,,,,,,,,,,,,,,,,,,,,,,,,,,,,,,,,,,,,,,down,1,358.70316600000024,None,358.70316600000024,None,358.70316600000024,359.7045386,358.70316600000024,359.7045386,358.70316600000024,359.7045386,358.70316600000024,359.7045386,358.70316600000024,359.20503499999995,358.70316600000024,359.20503499999995,358.70316600000024,359.20503499999995,358.70316600000024,359.20503499999995,358.70316600000024,None,0.029617400001370697,,,,,12010,001,2024_Jun_15_1940,nback,2021.2.3,59.546174783716324,
2-back,instructions\back-2.png,conditions\20back-e.xlsx,,,experiment,2,2,stim\gray.png,stim\yellow.png,stim\gray.png,stim\gray.png,right,,,,,,,,,,,,,0,0,0,2,0,5,5,5,,,,,,,,,,,,,,,,,,,,,,,,,,,,,,,,,,,,,,,,,,,,,,,,,,,,,,,,right,1,360.20530880000024,None,360.20530880000024,None,360.20530880000024,361.2077667000003,360.20530880000024,361.2077667000003,360.20530880000024,361.2077667000003,360.20530880000024,361.2077667000003,360.20530880000024,360.70615570000064,360.20530880000024,360.70615570000064,360.20530880000024,360.70615570000064,360.20530880000024,360.70615570000064,360.20530880000024,None,0.11118290000013076,,,,,12010,001,2024_Jun_15_1940,nback,2021.2.3,59.546174783716324,
2-back,instructions\back-2.png,conditions\20back-e.xlsx,,,experiment,2,3,stim\gray.png,stim\gray.png,stim\yellow.png,stim\gray.png,up,,,,,,,,,,,,,0,0,0,2,0,6,6,6,,,,,,,,,,,,,,,,,,,,,,,,,,,,,,,,,,,,,,,,,,,,,,,,,,,,,,,,up,1,361.6909623999991,None,361.6909623999991,None,361.6909623999991,362.69392160000007,361.6909623999991,362.69392160000007,361.6909623999991,362.69392160000007,361.6909623999991,362.69392160000007,361.6909623999991,362.19224210000084,361.6909623999991,362.19224210000084,361.6909623999991,362.19224210000084,361.6909623999991,362.19224210000084,361.6909623999991,None,0.0018789000005199341,,,,,12010,001,2024_Jun_15_1940,nback,2021.2.3,59.546174783716324,
2-back,instructions\back-2.png,conditions\20back-e.xlsx,,,experiment,2,4,stim\gray.png,stim\gray.png,stim\gray.png,stim\yellow.png,left,,,,,,,,,,,,,0,0,0,2,0,7,7,7,,,,,,,,,,,,,,,,,,,,,,,,,,,,,,,,,,,,,,,,,,,,,,,,,,,,,,,,left,1,363.1933309999995,None,363.1933309999995,None,363.1933309999995,364.19567799999913,363.1933309999995,364.19567799999913,363.1933309999995,364.19567799999913,363.1933309999995,364.19567799999913,363.1933309999995,363.6937267000003,363.1933309999995,363.6937267000003,363.1933309999995,363.6937267000003,363.1933309999995,363.6937267000003,363.1933309999995,None,0.051424500001303386,,,,,12010,001,2024_Jun_15_1940,nback,2021.2.3,59.546174783716324,
2-back,instructions\back-2.png,conditions\20back-e.xlsx,,,experiment,2,3,stim\gray.png,stim\gray.png,stim\yellow.png,stim\gray.png,right,,,,,,,,,,,,,0,0,0,2,0,8,8,8,,,,,,,,,,,,,,,,,,,,,,,,,,,,,,,,,,,,,,,,,,,,,,,,,,,,,,,,right,1,364.69553879999967,None,364.69553879999967,None,364.69553879999967,365.69706979999955,364.69553879999967,365.69706979999955,364.69553879999967,365.69706979999955,364.69553879999967,365.69706979999955,364.69553879999967,365.1962773000005,364.69553879999967,365.1962773000005,364.69553879999967,365.1962773000005,364.69553879999967,365.1962773000005,364.69553879999967,None,0.05324589999872842,,,,,12010,001,2024_Jun_15_1940,nback,2021.2.3,59.546174783716324,
2-back,instructions\back-2.png,conditions\20back-e.xlsx,,,experiment,2,4,stim\gray.png,stim\gray.png,stim\gray.png,stim\yellow.png,down,,,,,,,,,,,,,0,0,0,2,0,9,9,9,,,,,,,,,,,,,,,,,,,,,,,,,,,,,,,,,,,,,,,,,,,,,,,,,,,,,,,,right,0,366.19761650000055,None,366.19761650000055,None,366.19761650000055,367.19916420000027,366.19761650000055,367.19916420000027,366.19761650000055,367.19916420000027,366.19761650000055,367.19916420000027,366.19761650000055,366.69858660000045,366.19761650000055,366.69858660000045,366.19761650000055,366.69858660000045,366.19761650000055,366.69858660000045,366.19761650000055,None,1.4313858000004984,,,,,12010,001,2024_Jun_15_1940,nback,2021.2.3,59.546174783716324,
2-back,instructions\back-2.png,conditions\20back-e.xlsx,,,experiment,2,1,stim\yellow.png,stim\gray.png,stim\gray.png,stim\gray.png,right,,,,,,,,,,,,,0,0,0,2,0,10,10,10,,,,,,,,,,,,,,,,,,,,,,,,,,,,,,,,,,,,,,,,,,,,,,,,,,,,,,,,down,0,367.70020120000027,None,367.70020120000027,None,367.70020120000027,368.7022714000004,367.70020120000027,368.7022714000004,367.70020120000027,368.7022714000004,367.70020120000027,368.7022714000004,367.70020120000027,368.20160040000064,367.70020120000027,368.20160040000064,367.70020120000027,368.20160040000064,367.70020120000027,368.20160040000064,367.70020120000027,None,1.4488691000005929,,,,,12010,001,2024_Jun_15_1940,nback,2021.2.3,59.546174783716324,
2-back,instructions\back-2.png,conditions\20back-e.xlsx,,,experiment,2,2,stim\gray.png,stim\yellow.png,stim\gray.png,stim\gray.png,down,,,,,,,,,,,,,0,0,0,2,0,11,11,11,,,,,,,,,,,,,,,,,,,,,,,,,,,,,,,,,,,,,,,,,,,,,,,,,,,,,,,,None,0,369.20345779999934,None,369.20345779999934,None,369.20345779999934,370.20385350000015,369.20345779999934,370.20385350000015,369.20345779999934,370.20385350000015,369.20345779999934,370.20385350000015,369.20345779999934,369.7041870000003,369.20345779999934,369.7041870000003,369.20345779999934,369.7041870000003,369.20345779999934,369.7041870000003,369.20345779999934,None,,,,,,12010,001,2024_Jun_15_1940,nback,2021.2.3,59.546174783716324,
2-back,instructions\back-2.png,conditions\20back-e.xlsx,,,experiment,2,3,stim\gray.png,stim\gray.png,stim\yellow.png,stim\gray.png,up,,,,,,,,,,,,,0,0,0,2,0,12,12,12,,,,,,,,,,,,,,,,,,,,,,,,,,,,,,,,,,,,,,,,,,,,,,,,,,,,,,,,up,1,370.70453949999956,None,370.70453949999956,None,370.70453949999956,371.70607330000075,370.70453949999956,371.70607330000075,370.70453949999956,371.70607330000075,370.70453949999956,371.70607330000075,370.70453949999956,371.20650710000064,370.70453949999956,371.20650710000064,370.70453949999956,371.20650710000064,370.70453949999956,371.20650710000064,370.70453949999956,None,0.08509129999947618,,,,,12010,001,2024_Jun_15_1940,nback,2021.2.3,59.546174783716324,
2-back,instructions\back-2.png,conditions\20back-e.xlsx,,,experiment,2,1,stim\yellow.png,stim\gray.png,stim\gray.png,stim\gray.png,left,,,,,,,,,,,,,0,0,0,2,0,13,13,13,,,,,,,,,,,,,,,,,,,,,,,,,,,,,,,,,,,,,,,,,,,,,,,,,,,,,,,,left,1,372.19100809999964,None,372.19100809999964,None,372.19100809999964,373.19225070000084,372.19100809999964,373.19225070000084,372.19100809999964,373.19225070000084,372.19100809999964,373.19225070000084,372.19100809999964,372.69164080000064,372.19100809999964,372.69164080000064,372.19100809999964,372.69164080000064,372.19100809999964,372.69164080000064,372.19100809999964,None,0.09466269999938959,,,,,12010,001,2024_Jun_15_1940,nback,2021.2.3,59.546174783716324,
