backseq,backinstr,backfile,instruction,size_in,Trialtype,back,number,P1,P2,P3,P4,corrAns,trials_practice.thisRepN,trials_practice.thisTrialN,trials_practice.thisN,trials_practice.thisIndex,trials.thisRepN,trials.thisTrialN,trials.thisN,trials.thisIndex,trials_3.thisRepN,trials_3.thisTrialN,trials_3.thisN,trials_3.thisIndex,trials_2.thisRepN,trials_2.thisTrialN,trials_2.thisN,trials_2.thisIndex,trials_4.thisRepN,trials_4.thisTrialN,trials_4.thisN,trials_4.thisIndex,image.started,image.stopped,image_2.started,image_2.stopped,key_resp.keys,key_resp.rt,key_resp.started,key_resp.stopped,image_3.started,image_3.stopped,key_resp_2.keys,key_resp_2.rt,key_resp_2.started,key_resp_2.stopped,image_4.started,image_4.stopped,text.started,text.stopped,H1.started,H1.stopped,H2.started,H2.stopped,H3.started,H3.stopped,H4.started,H4.stopped,key_resp_3.keys,key_resp_3.corr,key_resp_3.started,key_resp_3.stopped,text_4.started,text_4.stopped,F1.started,F1.stopped,F2.started,F2.stopped,F3.started,F3.stopped,F4.started,F4.stopped,image_7.started,image_7.stopped,key_resp_3.rt,text_5.started,text_5.stopped,key_resp_6.keys,key_resp_6.rt,key_resp_6.started,key_resp_6.stopped,image_5.started,image_5.stopped,key_resp_4.keys,key_resp_4.rt,key_resp_4.started,key_resp_4.stopped,key_resp_5.keys,key_resp_5.corr,key_resp_5.rt,key_resp_5.started,key_resp_5.stopped,text_3.started,text_3.stopped,H1_2.started,H1_2.stopped,H2_2.started,H2_2.stopped,H3_2.started,H3_2.stopped,H4_2.started,H4_2.stopped,F1_2.started,F1_2.stopped,F2_2.started,F2_2.stopped,F3_2.started,F3_2.stopped,F4_2.started,F4_2.stopped,image_8.started,image_8.stopped,text_2.started,text_2.stopped,image_6.started,image_6.stopped,participant,session,date,expName,psychopyVersion,frameRate,
,,,,,,,,,,,,,,,,,,,,,,,,,,,,,,,,,11.871724099997664,None,12.840225100007956,None,space,1.1926740999915637,12.840225100007956,None,,,,,,,,,,,,,,,,,,,,,,,,,,,,,,,,,,,,,,,,,,,,,,,,,,,,,,,,,,,,,,,,,,,,,,,,,,,,,12015,001,2024_Jun_22_1914,nback,2021.2.3,59.76196808099381,
0-back,instructions\back-0.png,conditions\0back-p.xlsx,instructions\0-BACK.png,"(15, 8)",practice,0,1,stim\yellow.png,stim\gray.png,stim\gray.png,stim\gray.png,up,0,0,0,0,0,0,0,0,0,0,0,0,,,,,,,,,,,,,,,,,14.108120699995197,None,space,10.954236800011131,14.108120699995197,None,25.259069000007003,29.76547759999812,29.714983400001074,None,30.182847699994454,31.183837400007178,30.182847699994454,31.183837400007178,30.182847699994454,31.183837400007178,30.182847699994454,31.183837400007178,None,0,30.182847699994454,None,30.182847699994454,None,30.182847699994454,30.68317489999754,30.182847699994454,30.68317489999754,30.182847699994454,30.68317489999754,30.182847699994454,30.68317489999754,30.182847699994454,None,,,,,,,,,,,,,,,,,,,,,,,,,,,,,,,,,,,,,,,,,,,12015,001,2024_Jun_22_1914,nback,2021.2.3,59.76196808099381,
0-back,instructions\back-0.png,conditions\0back-p.xlsx,instructions\0-BACK.png,"(15, 8)",practice,0,2,stim\gray.png,stim\yellow.png,stim\gray.png,stim\gray.png,left,0,0,0,0,0,0,0,0,0,1,1,1,,,,,,,,,,,,,,,,,,,,,,,,,,,31.601006299999426,32.602945999999065,31.601006299999426,32.602945999999065,31.601006299999426,32.602945999999065,31.601006299999426,32.602945999999065,up,0,31.601006299999426,None,31.601006299999426,None,31.601006299999426,32.10205090000818,31.601006299999426,32.10205090000818,31.601006299999426,32.10205090000818,31.601006299999426,32.10205090000818,31.601006299999426,None,1.0974156000011135,,,,,,,,,,,,,,,,,,,,,,,,,,,,,,,,,,,,,,,,,,12015,001,2024_Jun_22_1914,nback,2021.2.3,59.76196808099381,
0-back,instructions\back-0.png,conditions\0back-p.xlsx,instructions\0-BACK.png,"(15, 8)",practice,0,3,stim\gray.png,stim\gray.png,stim\yellow.png,stim\gray.png,right,0,0,0,0,0,0,0,0,0,2,2,2,,,,,,,,,,,,,,,,,,,,,,,,,,,33.10340970000834,34.10497070000565,33.10340970000834,34.10497070000565,33.10340970000834,34.10497070000565,33.10340970000834,34.10497070000565,None,0,33.10340970000834,None,33.10340970000834,None,33.10340970000834,33.60398200000054,33.10340970000834,33.60398200000054,33.10340970000834,33.60398200000054,33.10340970000834,33.60398200000054,33.10340970000834,None,,,,,,,,,,,,,,,,,,,,,,,,,,,,,,,,,,,,,,,,,,,12015,001,2024_Jun_22_1914,nback,2021.2.3,59.76196808099381,
0-back,instructions\back-0.png,conditions\0back-p.xlsx,instructions\0-BACK.png,"(15, 8)",practice,0,4,stim\gray.png,stim\gray.png,stim\gray.png,stim\yellow.png,down,0,0,0,0,0,0,0,0,0,3,3,3,,,,,,,,,,,,,,,,,,,,,,,,,,,34.6054998000036,35.60696459999599,34.6054998000036,35.60696459999599,34.6054998000036,35.60696459999599,34.6054998000036,35.60696459999599,None,0,34.6054998000036,None,34.6054998000036,None,34.6054998000036,35.10636059999524,34.6054998000036,35.10636059999524,34.6054998000036,35.10636059999524,34.6054998000036,35.10636059999524,34.6054998000036,None,,,,,,,,,,,,,,,,,,,,,,,,,,,,,,,,,,,,,,,,,,,12015,001,2024_Jun_22_1914,nback,2021.2.3,59.76196808099381,
0-back,instructions\back-0.png,conditions\0back-p.xlsx,instructions\0-BACK.png,"(15, 8)",practice,0,2,stim\gray.png,stim\yellow.png,stim\gray.png,stim\gray.png,left,0,0,0,0,0,0,0,0,0,4,4,4,,,,,,,,,,,,,,,,,,,,,,,,,,,36.10789410000143,37.10960019999766,36.10789410000143,37.10960019999766,36.10789410000143,37.10960019999766,36.10789410000143,37.10960019999766,left,1,36.10789410000143,None,36.10789410000143,None,36.10789410000143,36.60908510000445,36.10789410000143,36.60908510000445,36.10789410000143,36.60908510000445,36.10789410000143,36.60908510000445,36.10789410000143,None,0.8152216999878874,,,,,,,,,,,,,,,,,,,,,,,,,,,,,,,,,,,,,,,,,,12015,001,2024_Jun_22_1914,nback,2021.2.3,59.76196808099381,
0-back,instructions\back-0.png,conditions\0back-p.xlsx,instructions\0-BACK.png,"(15, 8)",practice,0,1,stim\yellow.png,stim\gray.png,stim\gray.png,stim\gray.png,up,0,0,0,0,0,0,0,0,0,5,5,5,,,,,,,,,,,,,,,,,,,,,,,,,,,37.60993249999592,38.61182239999471,37.60993249999592,38.61182239999471,37.60993249999592,38.61182239999471,37.60993249999592,38.61182239999471,up,1,37.60993249999592,None,37.60993249999592,None,37.60993249999592,38.110862200002884,37.60993249999592,38.110862200002884,37.60993249999592,38.110862200002884,37.60993249999592,38.110862200002884,37.60993249999592,None,0.3285589000006439,,,,,,,,,,,,,,,,,,,,,,,,,,,,,,,,,,,,,,,,,,12015,001,2024_Jun_22_1914,nback,2021.2.3,59.76196808099381,
0-back,instructions\back-0.png,conditions\0back-p.xlsx,instructions\0-BACK.png,"(15, 8)",practice,0,4,stim\gray.png,stim\gray.png,stim\gray.png,stim\yellow.png,down,0,0,0,0,0,0,0,0,0,6,6,6,,,,,,,,,,,,,,,,,,,,,,,,,,,39.09554449999996,40.09749770000053,39.09554449999996,40.09749770000053,39.09554449999996,40.09749770000053,39.09554449999996,40.09749770000053,down,1,39.09554449999996,None,39.09554449999996,None,39.09554449999996,39.59693739999784,39.09554449999996,39.59693739999784,39.09554449999996,39.59693739999784,39.09554449999996,39.59693739999784,39.09554449999996,None,1.1313036999927135,,,,,,,,,,,,,,,,,,,,,,,,,,,,,,,,,,,,,,,,,,12015,001,2024_Jun_22_1914,nback,2021.2.3,59.76196808099381,
0-back,instructions\back-0.png,conditions\0back-p.xlsx,instructions\0-BACK.png,"(15, 8)",practice,0,3,stim\gray.png,stim\gray.png,stim\yellow.png,stim\gray.png,right,0,0,0,0,0,0,0,0,0,7,7,7,,,,,,,,,,,,,,,,,,,,,,,,,,,40.59783020000032,41.59983490000013,40.59783020000032,41.59983490000013,40.59783020000032,41.59983490000013,40.59783020000032,41.59983490000013,right,1,40.59783020000032,None,40.59783020000032,None,40.59783020000032,41.09869780000008,40.59783020000032,41.09869780000008,40.59783020000032,41.09869780000008,40.59783020000032,41.09869780000008,40.59783020000032,None,0.7654309000063222,,,,,,,,,,,,,,,,,,,,,,,,,,,,,,,,,,,,,,,,,,12015,001,2024_Jun_22_1914,nback,2021.2.3,59.76196808099381,
0-back,instructions\back-0.png,conditions\0back-p.xlsx,instructions\0-BACK.png,"(15, 8)",practice,0,3,stim\gray.png,stim\gray.png,stim\yellow.png,stim\gray.png,right,0,0,0,0,0,0,0,0,0,8,8,8,,,,,,,,,,,,,,,,,,,,,,,,,,,42.10021940000297,43.101774199996726,42.10021940000297,43.101774199996726,42.10021940000297,43.101774199996726,42.10021940000297,43.101774199996726,right,1,42.10021940000297,None,42.10021940000297,None,42.10021940000297,42.6009011999995,42.10021940000297,42.6009011999995,42.10021940000297,42.6009011999995,42.10021940000297,42.6009011999995,42.10021940000297,None,0.5347646000009263,,,,,,,,,,,,,,,,,,,,,,,,,,,,,,,,,,,,,,,,,,12015,001,2024_Jun_22_1914,nback,2021.2.3,59.76196808099381,
0-back,instructions\back-0.png,conditions\0back-p.xlsx,instructions\0-BACK.png,"(15, 8)",practice,0,4,stim\gray.png,stim\gray.png,stim\gray.png,stim\yellow.png,down,0,0,0,0,0,0,0,0,0,9,9,9,,,,,,,,,,,,,,,,,,,,,,,,,,,43.602547100002994,44.604147499994724,43.602547100002994,44.604147499994724,43.602547100002994,44.604147499994724,43.602547100002994,44.604147499994724,down,1,43.602547100002994,None,43.602547100002994,None,43.602547100002994,44.103126100002555,43.602547100002994,44.103126100002555,43.602547100002994,44.103126100002555,43.602547100002994,44.103126100002555,43.602547100002994,None,0.43306339999253396,,,,,,,,,,,,,,,,,,,,,,,,,,,,,,,,,,,,,,,,,,12015,001,2024_Jun_22_1914,nback,2021.2.3,59.76196808099381,
0-back,instructions\back-0.png,conditions\0back-p.xlsx,instructions\0-BACK.png,"(15, 8)",practice,0,1,stim\yellow.png,stim\gray.png,stim\gray.png,stim\gray.png,up,0,0,0,0,0,0,0,0,0,10,10,10,,,,,,,,,,,,,,,,,,,,,,,,,,,45.104707899998175,46.106436400004895,45.104707899998175,46.106436400004895,45.104707899998175,46.106436400004895,45.104707899998175,46.106436400004895,up,1,45.104707899998175,None,45.104707899998175,None,45.104707899998175,45.605845700003556,45.104707899998175,45.605845700003556,45.104707899998175,45.605845700003556,45.104707899998175,45.605845700003556,45.104707899998175,None,0.3462574000004679,,,,,,,,,,,,,,,,,,,,,,,,,,,,,,,,,,,,,,,,,,12015,001,2024_Jun_22_1914,nback,2021.2.3,59.76196808099381,
0-back,instructions\back-0.png,conditions\0back-p.xlsx,instructions\0-BACK.png,"(15, 8)",practice,0,2,stim\gray.png,stim\yellow.png,stim\gray.png,stim\gray.png,left,0,0,0,0,0,0,0,0,0,11,11,11,,,,,,,,,,,,,,,,,,,,,,,,,,,46.60684839999885,47.60843819999718,46.60684839999885,47.60843819999718,46.60684839999885,47.60843819999718,46.60684839999885,47.60843819999718,left,1,46.60684839999885,None,46.60684839999885,None,46.60684839999885,47.10819100000663,46.60684839999885,47.10819100000663,46.60684839999885,47.10819100000663,46.60684839999885,47.10819100000663,46.60684839999885,None,0.26806449999276083,,,,,,,,,,,,,,,,,,,,,,,,,,,,,,,,,,,,,,,,,,12015,001,2024_Jun_22_1914,nback,2021.2.3,59.76196808099381,
0-back,instructions\back-0.png,conditions\0back-p.xlsx,instructions\0-BACK.png,"(15, 8)",practice,0,4,stim\gray.png,stim\gray.png,stim\gray.png,stim\yellow.png,down,0,0,0,0,0,0,0,0,0,12,12,12,,,,,,,,,,,,,,,,,,,,,,,,,,,48.10906940000132,49.1110800000024,48.10906940000132,49.1110800000024,48.10906940000132,49.1110800000024,48.10906940000132,49.1110800000024,down,1,48.10906940000132,None,48.10906940000132,None,48.10906940000132,48.61010530000203,48.10906940000132,48.61010530000203,48.10906940000132,48.61010530000203,48.10906940000132,48.61010530000203,48.10906940000132,None,0.4938457000098424,,,,,,,,,,,,,,,,,,,,,,,,,,,,,,,,,,,,,,,,,,12015,001,2024_Jun_22_1914,nback,2021.2.3,59.76196808099381,
0-back,instructions\back-0.png,conditions\0back-p.xlsx,instructions\0-BACK.png,"(15, 8)",practice,0,3,stim\gray.png,stim\gray.png,stim\yellow.png,stim\gray.png,right,0,0,0,0,0,0,0,0,0,13,13,13,,,,,,,,,,,,,,,,,,,,,,,,,,,49.611501299994416,50.613328399995225,49.611501299994416,50.613328399995225,49.611501299994416,50.613328399995225,49.611501299994416,50.613328399995225,right,1,49.611501299994416,None,49.611501299994416,None,49.611501299994416,50.11216119999881,49.611501299994416,50.11216119999881,49.611501299994416,50.11216119999881,49.611501299994416,50.11216119999881,49.611501299994416,None,0.3276039999909699,,,,,,,,,,,,,,,,,,,,,,,,,,,,,,,,,,,,,,,,,,12015,001,2024_Jun_22_1914,nback,2021.2.3,59.76196808099381,
0-back,instructions\back-0.png,conditions\0back-p.xlsx,instructions\0-BACK.png,"(15, 8)",practice,0,1,stim\yellow.png,stim\gray.png,stim\gray.png,stim\gray.png,up,0,0,0,0,0,0,0,0,0,14,14,14,,,,,,,,,,,,,,,,,,,,,,,,,,,51.097051000004285,52.09902670000156,51.097051000004285,52.09902670000156,51.097051000004285,52.09902670000156,51.097051000004285,52.09902670000156,up,1,51.097051000004285,None,51.097051000004285,None,51.097051000004285,51.5980150999967,51.097051000004285,51.5980150999967,51.097051000004285,51.5980150999967,51.097051000004285,51.5980150999967,51.097051000004285,None,0.2259051000000909,,,,,,,,,,,,,,,,,,,,,,,,,,,,,,,,,,,,,,,,,,12015,001,2024_Jun_22_1914,nback,2021.2.3,59.76196808099381,
0-back,instructions\back-0.png,conditions\0back-p.xlsx,instructions\0-BACK.png,"(15, 8)",practice,0,2,stim\gray.png,stim\yellow.png,stim\gray.png,stim\gray.png,left,0,0,0,0,0,0,0,0,0,15,15,15,,,,,,,,,,,,,,,,,,,,,,,,,,,52.59955400000035,53.60087989999738,52.59955400000035,53.60087989999738,52.59955400000035,53.60087989999738,52.59955400000035,53.60087989999738,left,1,52.59955400000035,None,52.59955400000035,None,52.59955400000035,53.10027049999917,52.59955400000035,53.10027049999917,52.59955400000035,53.10027049999917,52.59955400000035,53.10027049999917,52.59955400000035,None,0.1800102999986848,,,,,,,,,,,,,,,,,,,,,,,,,,,,,,,,,,,,,,,,,,12015,001,2024_Jun_22_1914,nback,2021.2.3,59.76196808099381,
0-back,instructions\back-0.png,conditions\0back-p.xlsx,instructions\0-BACK.png,"(15, 8)",practice,0,3,stim\gray.png,stim\gray.png,stim\yellow.png,stim\gray.png,right,0,0,0,0,0,0,0,0,0,16,16,16,,,,,,,,,,,,,,,,,,,,,,,,,,,54.101772599999094,55.10387730000366,54.101772599999094,55.10387730000366,54.101772599999094,55.10387730000366,54.101772599999094,55.10387730000366,right,1,54.101772599999094,None,54.101772599999094,None,54.101772599999094,54.60270040000614,54.101772599999094,54.60270040000614,54.101772599999094,54.60270040000614,54.101772599999094,54.60270040000614,54.101772599999094,None,0.637472100002924,,,,,,,,,,,,,,,,,,,,,,,,,,,,,,,,,,,,,,,,,,12015,001,2024_Jun_22_1914,nback,2021.2.3,59.76196808099381,
0-back,instructions\back-0.png,conditions\0back-p.xlsx,instructions\0-BACK.png,"(15, 8)",practice,0,1,stim\yellow.png,stim\gray.png,stim\gray.png,stim\gray.png,up,0,0,0,0,0,0,0,0,0,17,17,17,,,,,,,,,,,,,,,,,,,,,,,,,,,55.60407580000174,56.605880500006606,55.60407580000174,56.605880500006606,55.60407580000174,56.605880500006606,55.60407580000174,56.605880500006606,up,1,55.60407580000174,None,55.60407580000174,None,55.60407580000174,56.105197900003986,55.60407580000174,56.105197900003986,55.60407580000174,56.105197900003986,55.60407580000174,56.105197900003986,55.60407580000174,None,0.3589877000049455,,,,,,,,,,,,,,,,,,,,,,,,,,,,,,,,,,,,,,,,,,12015,001,2024_Jun_22_1914,nback,2021.2.3,59.76196808099381,
0-back,instructions\back-0.png,conditions\0back-p.xlsx,instructions\0-BACK.png,"(15, 8)",practice,0,4,stim\gray.png,stim\gray.png,stim\gray.png,stim\yellow.png,down,0,0,0,0,0,0,0,0,0,18,18,18,,,,,,,,,,,,,,,,,,,,,,,,,,,57.10614129999885,58.10823510000773,57.10614129999885,58.10823510000773,57.10614129999885,58.10823510000773,57.10614129999885,58.10823510000773,down,1,57.10614129999885,None,57.10614129999885,None,57.10614129999885,57.60753249999834,57.10614129999885,57.60753249999834,57.10614129999885,57.60753249999834,57.10614129999885,57.60753249999834,57.10614129999885,None,0.4334926000010455,,,,,,,,,,,,,,,,,,,,,,,,,,,,,,,,,,,,,,,,,,12015,001,2024_Jun_22_1914,nback,2021.2.3,59.76196808099381,
0-back,instructions\back-0.png,conditions\0back-p.xlsx,instructions\0-BACK.png,"(15, 8)",practice,0,2,stim\gray.png,stim\yellow.png,stim\gray.png,stim\gray.png,left,0,0,0,0,0,0,0,0,0,19,19,19,,,,,,,,,,,,,,,,,,,,,,,,,,,58.60866779999924,59.61032029999478,58.60866779999924,59.61032029999478,58.60866779999924,59.61032029999478,58.60866779999924,59.61032029999478,left,1,58.60866779999924,None,58.60866779999924,None,58.60866779999924,59.109098200002336,58.60866779999924,59.109098200002336,58.60866779999924,59.109098200002336,58.60866779999924,59.109098200002336,58.60866779999924,None,0.29903059999924153,,,,,,,,,,,,,,,,,,,,,,,,,,,,,,,,,,,,,,,,,,12015,001,2024_Jun_22_1914,nback,2021.2.3,59.76196808099381,
0-back,instructions\back-0.png,conditions\0back-p.xlsx,instructions\0-BACK.png,"(15, 8)",,,,,,,,,0,0,0,0,0,0,0,0,,,,,,,,,,,,,,,,,,,,,,,,,,,,,,,,,,,,,,,,,,,,,,,,,,,,,,,,,,,,,,,,,,,,,,,,,,,,,,,,,,,,,,,,,,,,,,,,,12015,001,2024_Jun_22_1914,nback,2021.2.3,59.76196808099381,
1-back,instructions\back-1.png,conditions\1back-p.xlsx,instructions\1-BACK.png,"(25, 15)",practice,1,1,stim\yellow.png,stim\gray.png,stim\gray.png,stim\gray.png,None,0,0,0,0,0,1,1,1,0,0,0,0,,,,,,,,,,,,,,,,,60.2614370000083,None,space,21.85361470001226,60.2614370000083,None,82.26075840000703,86.76960100000724,86.73490419999871,None,87.16849619999994,88.17027060000692,87.16849619999994,88.17027060000692,87.16849619999994,88.17027060000692,87.16849619999994,88.17027060000692,None,1,87.16849619999994,None,87.16849619999994,None,87.16849619999994,87.66909569999552,87.16849619999994,87.66909569999552,87.16849619999994,87.66909569999552,87.16849619999994,87.66909569999552,87.16849619999994,None,,,,,,,,,,,,,,,,,,,,,,,,,,,,,,,,,,,,,,,,,,,12015,001,2024_Jun_22_1914,nback,2021.2.3,59.76196808099381,
1-back,instructions\back-1.png,conditions\1back-p.xlsx,instructions\1-BACK.png,"(25, 15)",practice,1,2,stim\gray.png,stim\yellow.png,stim\gray.png,stim\gray.png,up,0,0,0,0,0,1,1,1,0,1,1,1,,,,,,,,,,,,,,,,,,,,,,,,,,,88.65394230000675,89.65566319999925,88.65394230000675,89.65566319999925,88.65394230000675,89.65566319999925,88.65394230000675,89.65566319999925,up,1,88.65394230000675,None,88.65394230000675,None,88.65394230000675,89.15461739999591,88.65394230000675,89.15461739999591,88.65394230000675,89.15461739999591,88.65394230000675,89.15461739999591,88.65394230000675,None,0.40693490000558086,,,,,,,,,,,,,,,,,,,,,,,,,,,,,,,,,,,,,,,,,,12015,001,2024_Jun_22_1914,nback,2021.2.3,59.76196808099381,
1-back,instructions\back-1.png,conditions\1back-p.xlsx,instructions\1-BACK.png,"(25, 15)",practice,1,3,stim\gray.png,stim\gray.png,stim\yellow.png,stim\gray.png,left,0,0,0,0,0,1,1,1,0,2,2,2,,,,,,,,,,,,,,,,,,,,,,,,,,,90.15602650000073,91.15788490000705,90.15602650000073,91.15788490000705,90.15602650000073,91.15788490000705,90.15602650000073,91.15788490000705,left,1,90.15602650000073,None,90.15602650000073,None,90.15602650000073,90.6568197000015,90.15602650000073,90.6568197000015,90.15602650000073,90.6568197000015,90.15602650000073,90.6568197000015,90.15602650000073,None,0.472205700003542,,,,,,,,,,,,,,,,,,,,,,,,,,,,,,,,,,,,,,,,,,12015,001,2024_Jun_22_1914,nback,2021.2.3,59.76196808099381,
1-back,instructions\back-1.png,conditions\1back-p.xlsx,instructions\1-BACK.png,"(25, 15)",practice,1,4,stim\gray.png,stim\gray.png,stim\gray.png,stim\yellow.png,right,0,0,0,0,0,1,1,1,0,3,3,3,,,,,,,,,,,,,,,,,,,,,,,,,,,91.65841920000094,92.66047960000287,91.65841920000094,92.66047960000287,91.65841920000094,92.66047960000287,91.65841920000094,92.66047960000287,right,1,91.65841920000094,None,91.65841920000094,None,91.65841920000094,92.16025270000682,91.65841920000094,92.16025270000682,91.65841920000094,92.16025270000682,91.65841920000094,92.16025270000682,91.65841920000094,None,0.2824069999915082,,,,,,,,,,,,,,,,,,,,,,,,,,,,,,,,,,,,,,,,,,12015,001,2024_Jun_22_1914,nback,2021.2.3,59.76196808099381,
1-back,instructions\back-1.png,conditions\1back-p.xlsx,instructions\1-BACK.png,"(25, 15)",practice,1,2,stim\gray.png,stim\yellow.png,stim\gray.png,stim\gray.png,down,0,0,0,0,0,1,1,1,0,4,4,4,,,,,,,,,,,,,,,,,,,,,,,,,,,93.16077930000029,94.16215760000341,93.16077930000029,94.16215760000341,93.16077930000029,94.16215760000341,93.16077930000029,94.16215760000341,down,1,93.16077930000029,None,93.16077930000029,None,93.16077930000029,93.6616653999954,93.16077930000029,93.6616653999954,93.16077930000029,93.6616653999954,93.16077930000029,93.6616653999954,93.16077930000029,None,1.1639935000130208,,,,,,,,,,,,,,,,,,,,,,,,,,,,,,,,,,,,,,,,,,12015,001,2024_Jun_22_1914,nback,2021.2.3,59.76196808099381,
1-back,instructions\back-1.png,conditions\1back-p.xlsx,instructions\1-BACK.png,"(25, 15)",practice,1,1,stim\yellow.png,stim\gray.png,stim\gray.png,stim\gray.png,left,0,0,0,0,0,1,1,1,0,5,5,5,,,,,,,,,,,,,,,,,,,,,,,,,,,94.66267230000813,95.66461429999617,94.66267230000813,95.66461429999617,94.66267230000813,95.66461429999617,94.66267230000813,95.66461429999617,None,0,94.66267230000813,None,94.66267230000813,None,94.66267230000813,95.16375550000521,94.66267230000813,95.16375550000521,94.66267230000813,95.16375550000521,94.66267230000813,95.16375550000521,94.66267230000813,None,,,,,,,,,,,,,,,,,,,,,,,,,,,,,,,,,,,,,,,,,,,12015,001,2024_Jun_22_1914,nback,2021.2.3,59.76196808099381,
1-back,instructions\back-1.png,conditions\1back-p.xlsx,instructions\1-BACK.png,"(25, 15)",practice,1,4,stim\gray.png,stim\gray.png,stim\gray.png,stim\yellow.png,up,0,0,0,0,0,1,1,1,0,6,6,6,,,,,,,,,,,,,,,,,,,,,,,,,,,96.14843460000702,97.15007740000146,96.14843460000702,97.15007740000146,96.14843460000702,97.15007740000146,96.14843460000702,97.15007740000146,None,0,96.14843460000702,None,96.14843460000702,None,96.14843460000702,96.64959790000285,96.14843460000702,96.64959790000285,96.14843460000702,96.64959790000285,96.14843460000702,96.64959790000285,96.14843460000702,None,,,,,,,,,,,,,,,,,,,,,,,,,,,,,,,,,,,,,,,,,,,12015,001,2024_Jun_22_1914,nback,2021.2.3,59.76196808099381,
1-back,instructions\back-1.png,conditions\1back-p.xlsx,instructions\1-BACK.png,"(25, 15)",practice,1,3,stim\gray.png,stim\gray.png,stim\yellow.png,stim\gray.png,down,0,0,0,0,0,1,1,1,0,7,7,7,,,,,,,,,,,,,,,,,,,,,,,,,,,97.65097089999472,98.65270079999755,97.65097089999472,98.65270079999755,97.65097089999472,98.65270079999755,97.65097089999472,98.65270079999755,None,0,97.65097089999472,None,97.65097089999472,None,97.65097089999472,98.15132170000288,97.65097089999472,98.15132170000288,97.65097089999472,98.15132170000288,97.65097089999472,98.15132170000288,97.65097089999472,None,,,,,,,,,,,,,,,,,,,,,,,,,,,,,,,,,,,,,,,,,,,12015,001,2024_Jun_22_1914,nback,2021.2.3,59.76196808099381,
1-back,instructions\back-1.png,conditions\1back-p.xlsx,instructions\1-BACK.png,"(25, 15)",practice,1,3,stim\gray.png,stim\gray.png,stim\yellow.png,stim\gray.png,right,0,0,0,0,0,1,1,1,0,8,8,8,,,,,,,,,,,,,,,,,,,,,,,,,,,99.15301049999835,100.15455669999938,99.15301049999835,100.15455669999938,99.15301049999835,100.15455669999938,99.15301049999835,100.15455669999938,right,1,99.15301049999835,None,99.15301049999835,None,99.15301049999835,99.65377770000487,99.15301049999835,99.65377770000487,99.15301049999835,99.65377770000487,99.15301049999835,99.65377770000487,99.15301049999835,None,1.2195963999984087,,,,,,,,,,,,,,,,,,,,,,,,,,,,,,,,,,,,,,,,,,12015,001,2024_Jun_22_1914,nback,2021.2.3,59.76196808099381,
1-back,instructions\back-1.png,conditions\1back-p.xlsx,instructions\1-BACK.png,"(25, 15)",practice,1,4,stim\gray.png,stim\gray.png,stim\gray.png,stim\yellow.png,right,0,0,0,0,0,1,1,1,0,9,9,9,,,,,,,,,,,,,,,,,,,,,,,,,,,100.65529520000564,101.65679199999431,100.65529520000564,101.65679199999431,100.65529520000564,101.65679199999431,100.65529520000564,101.65679199999431,None,0,100.65529520000564,None,100.65529520000564,None,100.65529520000564,101.15673309999693,100.65529520000564,101.15673309999693,100.65529520000564,101.15673309999693,100.65529520000564,101.15673309999693,100.65529520000564,None,,,,,,,,,,,,,,,,,,,,,,,,,,,,,,,,,,,,,,,,,,,12015,001,2024_Jun_22_1914,nback,2021.2.3,59.76196808099381,
1-back,instructions\back-1.png,conditions\1back-p.xlsx,instructions\1-BACK.png,"(25, 15)",practice,1,1,stim\yellow.png,stim\gray.png,stim\gray.png,stim\gray.png,down,0,0,0,0,0,1,1,1,0,10,10,10,,,,,,,,,,,,,,,,,,,,,,,,,,,102.15773170000466,103.15907439999864,102.15773170000466,103.15907439999864,102.15773170000466,103.15907439999864,102.15773170000466,103.15907439999864,None,0,102.15773170000466,None,102.15773170000466,None,102.15773170000466,102.65902690000075,102.15773170000466,102.65902690000075,102.15773170000466,102.65902690000075,102.15773170000466,102.65902690000075,102.15773170000466,None,,,,,,,,,,,,,,,,,,,,,,,,,,,,,,,,,,,,,,,,,,,12015,001,2024_Jun_22_1914,nback,2021.2.3,59.76196808099381,
1-back,instructions\back-1.png,conditions\1back-p.xlsx,instructions\1-BACK.png,"(25, 15)",practice,1,2,stim\gray.png,stim\yellow.png,stim\gray.png,stim\gray.png,up,0,0,0,0,0,1,1,1,0,11,11,11,,,,,,,,,,,,,,,,,,,,,,,,,,,103.65969240000413,104.66184200000134,103.65969240000413,104.66184200000134,103.65969240000413,104.66184200000134,103.65969240000413,104.66184200000134,left,0,103.65969240000413,None,103.65969240000413,None,103.65969240000413,104.16085529999691,103.65969240000413,104.16085529999691,103.65969240000413,104.16085529999691,103.65969240000413,104.16085529999691,103.65969240000413,None,0.5768452999909641,,,,,,,,,,,,,,,,,,,,,,,,,,,,,,,,,,,,,,,,,,12015,001,2024_Jun_22_1914,nback,2021.2.3,59.76196808099381,
1-back,instructions\back-1.png,conditions\1back-p.xlsx,instructions\1-BACK.png,"(25, 15)",practice,1,4,stim\gray.png,stim\gray.png,stim\gray.png,stim\yellow.png,left,0,0,0,0,0,1,1,1,0,12,12,12,,,,,,,,,,,,,,,,,,,,,,,,,,,105.16204789999756,106.16430020000553,105.16204789999756,106.16430020000553,105.16204789999756,106.16430020000553,105.16204789999756,106.16430020000553,left,1,105.16204789999756,None,105.16204789999756,None,105.16204789999756,105.66283909999765,105.16204789999756,105.66283909999765,105.16204789999756,105.66283909999765,105.16204789999756,105.66283909999765,105.16204789999756,None,1.4105649999983143,,,,,,,,,,,,,,,,,,,,,,,,,,,,,,,,,,,,,,,,,,12015,001,2024_Jun_22_1914,nback,2021.2.3,59.76196808099381,
1-back,instructions\back-1.png,conditions\1back-p.xlsx,instructions\1-BACK.png,"(25, 15)",practice,1,3,stim\gray.png,stim\gray.png,stim\yellow.png,stim\gray.png,down,0,0,0,0,0,1,1,1,0,13,13,13,,,,,,,,,,,,,,,,,,,,,,,,,,,106.66434469999513,107.66592369999853,106.66434469999513,107.66592369999853,106.66434469999513,107.66592369999853,106.66434469999513,107.66592369999853,down,1,106.66434469999513,None,106.66434469999513,None,106.66434469999513,107.1654256000038,106.66434469999513,107.1654256000038,106.66434469999513,107.1654256000038,106.66434469999513,107.1654256000038,106.66434469999513,None,0.892259300002479,,,,,,,,,,,,,,,,,,,,,,,,,,,,,,,,,,,,,,,,,,12015,001,2024_Jun_22_1914,nback,2021.2.3,59.76196808099381,
1-back,instructions\back-1.png,conditions\1back-p.xlsx,instructions\1-BACK.png,"(25, 15)",practice,1,1,stim\yellow.png,stim\gray.png,stim\gray.png,stim\gray.png,right,0,0,0,0,0,1,1,1,0,14,14,14,,,,,,,,,,,,,,,,,,,,,,,,,,,108.14991110000119,109.15159310000308,108.14991110000119,109.15159310000308,108.14991110000119,109.15159310000308,108.14991110000119,109.15159310000308,right,1,108.14991110000119,None,108.14991110000119,None,108.14991110000119,108.65065049999976,108.14991110000119,108.65065049999976,108.14991110000119,108.65065049999976,108.14991110000119,108.65065049999976,108.14991110000119,None,0.5828333999961615,,,,,,,,,,,,,,,,,,,,,,,,,,,,,,,,,,,,,,,,,,12015,001,2024_Jun_22_1914,nback,2021.2.3,59.76196808099381,
1-back,instructions\back-1.png,conditions\1back-p.xlsx,instructions\1-BACK.png,"(25, 15)",practice,1,2,stim\gray.png,stim\yellow.png,stim\gray.png,stim\gray.png,up,0,0,0,0,0,1,1,1,0,15,15,15,,,,,,,,,,,,,,,,,,,,,,,,,,,109.65223279999918,110.65380919999734,109.65223279999918,110.65380919999734,109.65223279999918,110.65380919999734,109.65223279999918,110.65380919999734,up,1,109.65223279999918,None,109.65223279999918,None,109.65223279999918,110.15293929999461,109.65223279999918,110.15293929999461,109.65223279999918,110.15293929999461,109.65223279999918,110.15293929999461,109.65223279999918,None,0.5444571999978507,,,,,,,,,,,,,,,,,,,,,,,,,,,,,,,,,,,,,,,,,,12015,001,2024_Jun_22_1914,nback,2021.2.3,59.76196808099381,
1-back,instructions\back-1.png,conditions\1back-p.xlsx,instructions\1-BACK.png,"(25, 15)",practice,1,3,stim\gray.png,stim\gray.png,stim\yellow.png,stim\gray.png,left,0,0,0,0,0,1,1,1,0,16,16,16,,,,,,,,,,,,,,,,,,,,,,,,,,,111.15490280000085,112.15598530000716,111.15490280000085,112.15598530000716,111.15490280000085,112.15598530000716,111.15490280000085,112.15598530000716,left,1,111.15490280000085,None,111.15490280000085,None,111.15490280000085,111.65523499999836,111.15490280000085,111.65523499999836,111.15490280000085,111.65523499999836,111.15490280000085,111.65523499999836,111.15490280000085,None,0.8900738000083948,,,,,,,,,,,,,,,,,,,,,,,,,,,,,,,,,,,,,,,,,,12015,001,2024_Jun_22_1914,nback,2021.2.3,59.76196808099381,
1-back,instructions\back-1.png,conditions\1back-p.xlsx,instructions\1-BACK.png,"(25, 15)",practice,1,1,stim\yellow.png,stim\gray.png,stim\gray.png,stim\gray.png,right,0,0,0,0,0,1,1,1,0,17,17,17,,,,,,,,,,,,,,,,,,,,,,,,,,,112.65674150000268,113.65863269999682,112.65674150000268,113.65863269999682,112.65674150000268,113.65863269999682,112.65674150000268,113.65863269999682,right,1,112.65674150000268,None,112.65674150000268,None,112.65674150000268,113.1576328999945,112.65674150000268,113.1576328999945,112.65674150000268,113.1576328999945,112.65674150000268,113.1576328999945,112.65674150000268,None,0.36433510000642855,,,,,,,,,,,,,,,,,,,,,,,,,,,,,,,,,,,,,,,,,,12015,001,2024_Jun_22_1914,nback,2021.2.3,59.76196808099381,
1-back,instructions\back-1.png,conditions\1back-p.xlsx,instructions\1-BACK.png,"(25, 15)",practice,1,4,stim\gray.png,stim\gray.png,stim\gray.png,stim\yellow.png,up,0,0,0,0,0,1,1,1,0,18,18,18,,,,,,,,,,,,,,,,,,,,,,,,,,,114.15884370000276,115.16102499999397,114.15884370000276,115.16102499999397,114.15884370000276,115.16102499999397,114.15884370000276,115.16102499999397,down,0,114.15884370000276,None,114.15884370000276,None,114.15884370000276,114.66000180000265,114.15884370000276,114.66000180000265,114.15884370000276,114.66000180000265,114.15884370000276,114.66000180000265,114.15884370000276,None,0.990100099996198,,,,,,,,,,,,,,,,,,,,,,,,,,,,,,,,,,,,,,,,,,12015,001,2024_Jun_22_1914,nback,2021.2.3,59.76196808099381,
1-back,instructions\back-1.png,conditions\1back-p.xlsx,instructions\1-BACK.png,"(25, 15)",practice,1,2,stim\gray.png,stim\yellow.png,stim\gray.png,stim\gray.png,down,0,0,0,0,0,1,1,1,0,19,19,19,,,,,,,,,,,,,,,,,,,,,,,,,,,115.66141539999808,116.66282599999977,115.66141539999808,116.66282599999977,115.66141539999808,116.66282599999977,115.66141539999808,116.66282599999977,None,0,115.66141539999808,None,115.66141539999808,None,115.66141539999808,116.16233390000707,115.66141539999808,116.16233390000707,115.66141539999808,116.16233390000707,115.66141539999808,116.16233390000707,115.66141539999808,None,,,,,,,,,,,,,,,,,,,,,,,,,,,,,,,,,,,,,,,,,,,12015,001,2024_Jun_22_1914,nback,2021.2.3,59.76196808099381,
1-back,instructions\back-1.png,conditions\1back-p.xlsx,instructions\1-BACK.png,"(25, 15)",,,,,,,,,0,0,0,0,0,1,1,1,,,,,,,,,,,,,,,,,,,,,,,,,,,,,,,,,,,,,,,,,,,,,,,,,,,,,,,,,,,,,,,,,,,,,,,,,,,,,,,,,,,,,,,,,,,,,,,,,12015,001,2024_Jun_22_1914,nback,2021.2.3,59.76196808099381,
2-back,instructions\back-2.png,conditions\2back-p.xlsx,instructions\2-BACK.png,"(25, 15)",practice,2,1,stim\yellow.png,stim\gray.png,stim\gray.png,stim\gray.png,None,0,0,0,0,0,2,2,2,0,0,0,0,,,,,,,,,,,,,,,,,117.29705510000349,None,space,19.910851099994034,117.29705510000349,None,137.34406149999995,141.8510668999952,141.83587730000727,None,142.25235819999943,143.2530329000001,142.25235819999943,143.2530329000001,142.25235819999943,143.2530329000001,142.25235819999943,143.2530329000001,None,1,142.25235819999943,None,142.25235819999943,None,142.25235819999943,142.75283840000338,142.25235819999943,142.75283840000338,142.25235819999943,142.75283840000338,142.25235819999943,142.75283840000338,142.25235819999943,None,,,,,,,,,,,,,,,,,,,,,,,,,,,,,,,,,,,,,,,,,,,12015,001,2024_Jun_22_1914,nback,2021.2.3,59.76196808099381,
2-back,instructions\back-2.png,conditions\2back-p.xlsx,instructions\2-BACK.png,"(25, 15)",practice,2,2,stim\gray.png,stim\yellow.png,stim\gray.png,stim\gray.png,None,0,0,0,0,0,2,2,2,0,1,1,1,,,,,,,,,,,,,,,,,,,,,,,,,,,143.73713310000312,144.7388093000045,143.73713310000312,144.7388093000045,143.73713310000312,144.7388093000045,143.73713310000312,144.7388093000045,None,1,143.73713310000312,None,143.73713310000312,None,143.73713310000312,144.23907110000437,143.73713310000312,144.23907110000437,143.73713310000312,144.23907110000437,143.73713310000312,144.23907110000437,143.73713310000312,None,,,,,,,,,,,,,,,,,,,,,,,,,,,,,,,,,,,,,,,,,,,12015,001,2024_Jun_22_1914,nback,2021.2.3,59.76196808099381,
2-back,instructions\back-2.png,conditions\2back-p.xlsx,instructions\2-BACK.png,"(25, 15)",practice,2,3,stim\gray.png,stim\gray.png,stim\yellow.png,stim\gray.png,up,0,0,0,0,0,2,2,2,0,2,2,2,,,,,,,,,,,,,,,,,,,,,,,,,,,145.2393649000005,146.24119719999726,145.2393649000005,146.24119719999726,145.2393649000005,146.24119719999726,145.2393649000005,146.24119719999726,up,1,145.2393649000005,None,145.2393649000005,None,145.2393649000005,145.74049820000073,145.2393649000005,145.74049820000073,145.2393649000005,145.74049820000073,145.2393649000005,145.74049820000073,145.2393649000005,None,0.3424330999987433,,,,,,,,,,,,,,,,,,,,,,,,,,,,,,,,,,,,,,,,,,12015,001,2024_Jun_22_1914,nback,2021.2.3,59.76196808099381,
2-back,instructions\back-2.png,conditions\2back-p.xlsx,instructions\2-BACK.png,"(25, 15)",practice,2,4,stim\gray.png,stim\gray.png,stim\gray.png,stim\yellow.png,left,0,0,0,0,0,2,2,2,0,3,3,3,,,,,,,,,,,,,,,,,,,,,,,,,,,146.7417329000018,147.74330800000462,146.7417329000018,147.74330800000462,146.7417329000018,147.74330800000462,146.7417329000018,147.74330800000462,left,1,146.7417329000018,None,146.7417329000018,None,146.7417329000018,147.24280979999457,146.7417329000018,147.24280979999457,146.7417329000018,147.24280979999457,146.7417329000018,147.24280979999457,146.7417329000018,None,0.384732399994391,,,,,,,,,,,,,,,,,,,,,,,,,,,,,,,,,,,,,,,,,,12015,001,2024_Jun_22_1914,nback,2021.2.3,59.76196808099381,
2-back,instructions\back-2.png,conditions\2back-p.xlsx,instructions\2-BACK.png,"(25, 15)",practice,2,2,stim\gray.png,stim\yellow.png,stim\gray.png,stim\gray.png,right,0,0,0,0,0,2,2,2,0,4,4,4,,,,,,,,,,,,,,,,,,,,,,,,,,,148.2438026000018,149.2457551999978,148.2438026000018,149.2457551999978,148.2438026000018,149.2457551999978,148.2438026000018,149.2457551999978,right,1,148.2438026000018,None,148.2438026000018,None,148.2438026000018,148.74490330000117,148.2438026000018,148.74490330000117,148.2438026000018,148.74490330000117,148.2438026000018,148.74490330000117,148.2438026000018,None,0.1539807000081055,,,,,,,,,,,,,,,,,,,,,,,,,,,,,,,,,,,,,,,,,,12015,001,2024_Jun_22_1914,nback,2021.2.3,59.76196808099381,
2-back,instructions\back-2.png,conditions\2back-p.xlsx,instructions\2-BACK.png,"(25, 15)",practice,2,1,stim\yellow.png,stim\gray.png,stim\gray.png,stim\gray.png,down,0,0,0,0,0,2,2,2,0,5,5,5,,,,,,,,,,,,,,,,,,,,,,,,,,,149.7462727999955,150.74777400000312,149.7462727999955,150.74777400000312,149.7462727999955,150.74777400000312,149.7462727999955,150.74777400000312,up,0,149.7462727999955,None,149.7462727999955,None,149.7462727999955,150.24697580000793,149.7462727999955,150.24697580000793,149.7462727999955,150.24697580000793,149.7462727999955,150.24697580000793,149.7462727999955,None,0.6596764999994775,,,,,,,,,,,,,,,,,,,,,,,,,,,,,,,,,,,,,,,,,,12015,001,2024_Jun_22_1914,nback,2021.2.3,59.76196808099381,
2-back,instructions\back-2.png,conditions\2back-p.xlsx,instructions\2-BACK.png,"(25, 15)",practice,2,4,stim\gray.png,stim\gray.png,stim\gray.png,stim\yellow.png,left,0,0,0,0,0,2,2,2,0,6,6,6,,,,,,,,,,,,,,,,,,,,,,,,,,,151.23180140000477,152.23346329999913,151.23180140000477,152.23346329999913,151.23180140000477,152.23346329999913,151.23180140000477,152.23346329999913,up,0,151.23180140000477,None,151.23180140000477,None,151.23180140000477,151.73266449999937,151.23180140000477,151.73266449999937,151.23180140000477,151.73266449999937,151.23180140000477,151.73266449999937,151.23180140000477,None,1.3101722999999765,,,,,,,,,,,,,,,,,,,,,,,,,,,,,,,,,,,,,,,,,,12015,001,2024_Jun_22_1914,nback,2021.2.3,59.76196808099381,
2-back,instructions\back-2.png,conditions\2back-p.xlsx,instructions\2-BACK.png,"(25, 15)",practice,2,3,stim\gray.png,stim\gray.png,stim\yellow.png,stim\gray.png,up,0,0,0,0,0,2,2,2,0,7,7,7,,,,,,,,,,,,,,,,,,,,,,,,,,,152.7340153999976,153.73588730000483,152.7340153999976,153.73588730000483,152.7340153999976,153.73588730000483,152.7340153999976,153.73588730000483,None,0,152.7340153999976,None,152.7340153999976,None,152.7340153999976,153.23484469999676,152.7340153999976,153.23484469999676,152.7340153999976,153.23484469999676,152.7340153999976,153.23484469999676,152.7340153999976,None,,,,,,,,,,,,,,,,,,,,,,,,,,,,,,,,,,,,,,,,,,,12015,001,2024_Jun_22_1914,nback,2021.2.3,59.76196808099381,
2-back,instructions\back-2.png,conditions\2back-p.xlsx,instructions\2-BACK.png,"(25, 15)",practice,2,3,stim\gray.png,stim\gray.png,stim\yellow.png,stim\gray.png,down,0,0,0,0,0,2,2,2,0,8,8,8,,,,,,,,,,,,,,,,,,,,,,,,,,,154.23631540000497,155.23813700000755,154.23631540000497,155.23813700000755,154.23631540000497,155.23813700000755,154.23631540000497,155.23813700000755,up,0,154.23631540000497,None,154.23631540000497,None,154.23631540000497,154.73697359999642,154.23631540000497,154.73697359999642,154.23631540000497,154.73697359999642,154.23631540000497,154.73697359999642,154.23631540000497,None,0.22578160000557546,,,,,,,,,,,,,,,,,,,,,,,,,,,,,,,,,,,,,,,,,,12015,001,2024_Jun_22_1914,nback,2021.2.3,59.76196808099381,
2-back,instructions\back-2.png,conditions\2back-p.xlsx,instructions\2-BACK.png,"(25, 15)",practice,2,4,stim\gray.png,stim\gray.png,stim\gray.png,stim\yellow.png,right,0,0,0,0,0,2,2,2,0,9,9,9,,,,,,,,,,,,,,,,,,,,,,,,,,,155.7386312000017,156.74045589999878,155.7386312000017,156.74045589999878,155.7386312000017,156.74045589999878,155.7386312000017,156.74045589999878,None,0,155.7386312000017,None,155.7386312000017,None,155.7386312000017,156.2393265999999,155.7386312000017,156.2393265999999,155.7386312000017,156.2393265999999,155.7386312000017,156.2393265999999,155.7386312000017,None,,,,,,,,,,,,,,,,,,,,,,,,,,,,,,,,,,,,,,,,,,,12015,001,2024_Jun_22_1914,nback,2021.2.3,59.76196808099381,
2-back,instructions\back-2.png,conditions\2back-p.xlsx,instructions\2-BACK.png,"(25, 15)",practice,2,1,stim\yellow.png,stim\gray.png,stim\gray.png,stim\gray.png,right,0,0,0,0,0,2,2,2,0,10,10,10,,,,,,,,,,,,,,,,,,,,,,,,,,,157.24078989999543,158.24295960000018,157.24078989999543,158.24295960000018,157.24078989999543,158.24295960000018,157.24078989999543,158.24295960000018,right,1,157.24078989999543,None,157.24078989999543,None,157.24078989999543,157.74227709999832,157.24078989999543,157.74227709999832,157.24078989999543,157.74227709999832,157.24078989999543,157.74227709999832,157.24078989999543,None,0.6934401000034995,,,,,,,,,,,,,,,,,,,,,,,,,,,,,,,,,,,,,,,,,,12015,001,2024_Jun_22_1914,nback,2021.2.3,59.76196808099381,
2-back,instructions\back-2.png,conditions\2back-p.xlsx,instructions\2-BACK.png,"(25, 15)",practice,2,2,stim\gray.png,stim\yellow.png,stim\gray.png,stim\gray.png,down,0,0,0,0,0,2,2,2,0,11,11,11,,,,,,,,,,,,,,,,,,,,,,,,,,,158.74335400000564,159.74520970000594,158.74335400000564,159.74520970000594,158.74335400000564,159.74520970000594,158.74335400000564,159.74520970000594,None,0,158.74335400000564,None,158.74335400000564,None,158.74335400000564,159.2438378000079,158.74335400000564,159.2438378000079,158.74335400000564,159.2438378000079,158.74335400000564,159.2438378000079,158.74335400000564,None,,,,,,,,,,,,,,,,,,,,,,,,,,,,,,,,,,,,,,,,,,,12015,001,2024_Jun_22_1914,nback,2021.2.3,59.76196808099381,
2-back,instructions\back-2.png,conditions\2back-p.xlsx,instructions\2-BACK.png,"(25, 15)",practice,2,4,stim\gray.png,stim\gray.png,stim\gray.png,stim\yellow.png,up,0,0,0,0,0,2,2,2,0,12,12,12,,,,,,,,,,,,,,,,,,,,,,,,,,,160.24534750000748,161.2469887000043,160.24534750000748,161.2469887000043,160.24534750000748,161.2469887000043,160.24534750000748,161.2469887000043,right,0,160.24534750000748,None,160.24534750000748,None,160.24534750000748,160.74617700000817,160.24534750000748,160.74617700000817,160.24534750000748,160.74617700000817,160.24534750000748,160.74617700000817,160.24534750000748,None,0.20128029999614228,,,,,,,,,,,,,,,,,,,,,,,,,,,,,,,,,,,,,,,,,,12015,001,2024_Jun_22_1914,nback,2021.2.3,59.76196808099381,
2-back,instructions\back-2.png,conditions\2back-p.xlsx,instructions\2-BACK.png,"(25, 15)",practice,2,3,stim\gray.png,stim\gray.png,stim\yellow.png,stim\gray.png,left,0,0,0,0,0,2,2,2,0,13,13,13,,,,,,,,,,,,,,,,,,,,,,,,,,,161.73092420000467,162.7326452999987,161.73092420000467,162.7326452999987,161.73092420000467,162.7326452999987,161.73092420000467,162.7326452999987,left,1,161.73092420000467,None,161.73092420000467,None,161.73092420000467,162.23193249999895,161.73092420000467,162.23193249999895,161.73092420000467,162.23193249999895,161.73092420000467,162.23193249999895,161.73092420000467,None,0.7240227000002051,,,,,,,,,,,,,,,,,,,,,,,,,,,,,,,,,,,,,,,,,,12015,001,2024_Jun_22_1914,nback,2021.2.3,59.76196808099381,
2-back,instructions\back-2.png,conditions\2back-p.xlsx,instructions\2-BACK.png,"(25, 15)",practice,2,1,stim\yellow.png,stim\gray.png,stim\gray.png,stim\gray.png,down,0,0,0,0,0,2,2,2,0,14,14,14,,,,,,,,,,,,,,,,,,,,,,,,,,,163.23324509999657,164.2347224999976,163.23324509999657,164.2347224999976,163.23324509999657,164.2347224999976,163.23324509999657,164.2347224999976,down,1,163.23324509999657,None,163.23324509999657,None,163.23324509999657,163.73401840000588,163.23324509999657,163.73401840000588,163.23324509999657,163.73401840000588,163.23324509999657,163.73401840000588,163.23324509999657,None,1.3975300999882165,,,,,,,,,,,,,,,,,,,,,,,,,,,,,,,,,,,,,,,,,,12015,001,2024_Jun_22_1914,nback,2021.2.3,59.76196808099381,
2-back,instructions\back-2.png,conditions\2back-p.xlsx,instructions\2-BACK.png,"(25, 15)",practice,2,2,stim\gray.png,stim\yellow.png,stim\gray.png,stim\gray.png,right,0,0,0,0,0,2,2,2,0,15,15,15,,,,,,,,,,,,,,,,,,,,,,,,,,,164.7353870000079,165.73768619999464,164.7353870000079,165.73768619999464,164.7353870000079,165.73768619999464,164.7353870000079,165.73768619999464,None,0,164.7353870000079,None,164.7353870000079,None,164.7353870000079,165.2367693999986,164.7353870000079,165.2367693999986,164.7353870000079,165.2367693999986,164.7353870000079,165.2367693999986,164.7353870000079,None,,,,,,,,,,,,,,,,,,,,,,,,,,,,,,,,,,,,,,,,,,,12015,001,2024_Jun_22_1914,nback,2021.2.3,59.76196808099381,
2-back,instructions\back-2.png,conditions\2back-p.xlsx,instructions\2-BACK.png,"(25, 15)",practice,2,3,stim\gray.png,stim\gray.png,stim\yellow.png,stim\gray.png,up,0,0,0,0,0,2,2,2,0,16,16,16,,,,,,,,,,,,,,,,,,,,,,,,,,,166.2377281999943,167.23930319999636,166.2377281999943,167.23930319999636,166.2377281999943,167.23930319999636,166.2377281999943,167.23930319999636,up,1,166.2377281999943,None,166.2377281999943,None,166.2377281999943,166.73889910000435,166.2377281999943,166.73889910000435,166.2377281999943,166.73889910000435,166.2377281999943,166.73889910000435,166.2377281999943,None,1.3527580999943893,,,,,,,,,,,,,,,,,,,,,,,,,,,,,,,,,,,,,,,,,,12015,001,2024_Jun_22_1914,nback,2021.2.3,59.76196808099381,
2-back,instructions\back-2.png,conditions\2back-p.xlsx,instructions\2-BACK.png,"(25, 15)",practice,2,1,stim\yellow.png,stim\gray.png,stim\gray.png,stim\gray.png,left,0,0,0,0,0,2,2,2,0,17,17,17,,,,,,,,,,,,,,,,,,,,,,,,,,,167.74015189999773,168.74180089999572,167.74015189999773,168.74180089999572,167.74015189999773,168.74180089999572,167.74015189999773,168.74180089999572,None,0,167.74015189999773,None,167.74015189999773,None,167.74015189999773,168.2405138000031,167.74015189999773,168.2405138000031,167.74015189999773,168.2405138000031,167.74015189999773,168.2405138000031,167.74015189999773,None,,,,,,,,,,,,,,,,,,,,,,,,,,,,,,,,,,,,,,,,,,,12015,001,2024_Jun_22_1914,nback,2021.2.3,59.76196808099381,
2-back,instructions\back-2.png,conditions\2back-p.xlsx,instructions\2-BACK.png,"(25, 15)",practice,2,4,stim\gray.png,stim\gray.png,stim\gray.png,stim\yellow.png,right,0,0,0,0,0,2,2,2,0,18,18,18,,,,,,,,,,,,,,,,,,,,,,,,,,,169.24228340000263,170.24369230000593,169.24228340000263,170.24369230000593,169.24228340000263,170.24369230000593,169.24228340000263,170.24369230000593,None,0,169.24228340000263,None,169.24228340000263,None,169.24228340000263,169.74345470000117,169.24228340000263,169.74345470000117,169.24228340000263,169.74345470000117,169.24228340000263,169.74345470000117,169.24228340000263,None,,,,,,,,,,,,,,,,,,,,,,,,,,,,,,,,,,,,,,,,,,,12015,001,2024_Jun_22_1914,nback,2021.2.3,59.76196808099381,
2-back,instructions\back-2.png,conditions\2back-p.xlsx,instructions\2-BACK.png,"(25, 15)",practice,2,2,stim\gray.png,stim\yellow.png,stim\gray.png,stim\gray.png,up,0,0,0,0,0,2,2,2,0,19,19,19,,,,,,,,,,,,,,,,,,,,,,,,,,,170.7452176000079,171.74632429999474,170.7452176000079,171.74632429999474,170.7452176000079,171.74632429999474,170.7452176000079,171.74632429999474,left,0,170.7452176000079,None,170.7452176000079,None,170.7452176000079,171.24539179999556,170.7452176000079,171.24539179999556,170.7452176000079,171.24539179999556,170.7452176000079,171.24539179999556,170.7452176000079,None,0.5497406999929808,,,,,,,,,,,,,,,,,,,,,,,,,,,,,,,,,,,,,,,,,,12015,001,2024_Jun_22_1914,nback,2021.2.3,59.76196808099381,
2-back,instructions\back-2.png,conditions\2back-p.xlsx,instructions\2-BACK.png,"(25, 15)",,,,,,,,,0,0,0,0,0,2,2,2,,,,,,,,,,,,,,,,,,,,,,,,,,,,,,,,,,,,,,,,,,,,,,,,,,,,,,,,,,,,,,,,,,,,,,,,,,,,,,,,,,,,,,,,,,,,,,,,,12015,001,2024_Jun_22_1914,nback,2021.2.3,59.76196808099381,
,,,,,,,,,,,,,0,0,0,0,,,,,,,,,,,,,,,,,,,,,,,,,,,,,,,,,,,,,,,,,,,,,,,,,,,,,,,,,,,,172.24733990000095,None,space,9.824880900006974,172.24733990000095,None,,,,,,,,,,,,,,,,,,,,,,,,,,,,,,,,,,,,12015,001,2024_Jun_22_1914,nback,2021.2.3,59.76196808099381,
,,,,,,,,,,,,,,,,,,,,,,,,,,,,,,,,,,,,,,,,,,,,,,,,,,,,,,,,,,,,,,,,,,,,,,,,,,,,,,,,,,182.09531940000306,None,space,36.096676600005594,182.09531940000306,None,,,,,,,,,,,,,,,,,,,,,,,,,,,,,,12015,001,2024_Jun_22_1914,nback,2021.2.3,59.76196808099381,
1-back,instructions\back-1.png,conditions\10back-e.xlsx,,,experiment,1,3,stim\gray.png,stim\gray.png,stim\yellow.png,stim\gray.png,None,,,,,,,,,,,,,0,0,0,1,0,0,0,0,,,,,,,,,,,,,,,218.33235910000803,222.8417061000073,222.82415470000706,None,,,,,,,,,,,,,,,,,,,,,,,,,,,,,,,,,,,,,,right,0,1.2076671000104398,223.24052629999642,None,223.24052629999642,None,223.24052629999642,224.24215289999847,223.24052629999642,224.24215289999847,223.24052629999642,224.24215289999847,223.24052629999642,224.24215289999847,223.24052629999642,223.74286790000042,223.24052629999642,223.74286790000042,223.24052629999642,223.74286790000042,223.24052629999642,223.74286790000042,223.24052629999642,None,,,,,12015,001,2024_Jun_22_1914,nback,2021.2.3,59.76196808099381,
1-back,instructions\back-1.png,conditions\10back-e.xlsx,,,experiment,1,4,stim\gray.png,stim\gray.png,stim\gray.png,stim\yellow.png,right,,,,,,,,,,,,,0,0,0,1,0,1,1,1,,,,,,,,,,,,,,,,,,,,,,,,,,,,,,,,,,,,,,,,,,,,,,,,,,,,,,,,None,0,,224.72606509999605,None,224.72606509999605,None,224.72606509999605,225.72793069999898,224.72606509999605,225.72793069999898,224.72606509999605,225.72793069999898,224.72606509999605,225.72793069999898,224.72606509999605,225.22688980000385,224.72606509999605,225.22688980000385,224.72606509999605,225.22688980000385,224.72606509999605,225.22688980000385,224.72606509999605,None,,,,,12015,001,2024_Jun_22_1914,nback,2021.2.3,59.76196808099381,
1-back,instructions\back-1.png,conditions\10back-e.xlsx,,,experiment,1,4,stim\gray.png,stim\gray.png,stim\gray.png,stim\yellow.png,down,,,,,,,,,,,,,0,0,0,1,0,2,2,2,,,,,,,,,,,,,,,,,,,,,,,,,,,,,,,,,,,,,,,,,,,,,,,,,,,,,,,,right,0,0.7244423999945866,226.2281667000061,None,226.2281667000061,None,226.2281667000061,227.23033900000155,226.2281667000061,227.23033900000155,226.2281667000061,227.23033900000155,226.2281667000061,227.23033900000155,226.2281667000061,226.72901160000765,226.2281667000061,226.72901160000765,226.2281667000061,226.72901160000765,226.2281667000061,226.72901160000765,226.2281667000061,None,,,,,12015,001,2024_Jun_22_1914,nback,2021.2.3,59.76196808099381,
1-back,instructions\back-1.png,conditions\10back-e.xlsx,,,experiment,1,2,stim\gray.png,stim\yellow.png,stim\gray.png,stim\gray.png,down,,,,,,,,,,,,,0,0,0,1,0,3,3,3,,,,,,,,,,,,,,,,,,,,,,,,,,,,,,,,,,,,,,,,,,,,,,,,,,,,,,,,down,1,0.6216885000030743,227.73096129999612,None,227.73096129999612,None,227.73096129999612,228.7322972999973,227.73096129999612,228.7322972999973,227.73096129999612,228.7322972999973,227.73096129999612,228.7322972999973,227.73096129999612,228.2317749000067,227.73096129999612,228.2317749000067,227.73096129999612,228.2317749000067,227.73096129999612,228.2317749000067,227.73096129999612,None,,,,,12015,001,2024_Jun_22_1914,nback,2021.2.3,59.76196808099381,
1-back,instructions\back-1.png,conditions\10back-e.xlsx,,,experiment,1,1,stim\yellow.png,stim\gray.png,stim\gray.png,stim\gray.png,left,,,,,,,,,,,,,0,0,0,1,0,4,4,4,,,,,,,,,,,,,,,,,,,,,,,,,,,,,,,,,,,,,,,,,,,,,,,,,,,,,,,,left,1,0.4230428999871947,229.2332965999958,None,229.2332965999958,None,229.2332965999958,230.2344441000023,229.2332965999958,230.2344441000023,229.2332965999958,230.2344441000023,229.2332965999958,230.2344441000023,229.2332965999958,229.73377010000695,229.2332965999958,229.73377010000695,229.2332965999958,229.73377010000695,229.2332965999958,229.73377010000695,229.2332965999958,None,,,,,12015,001,2024_Jun_22_1914,nback,2021.2.3,59.76196808099381,
1-back,instructions\back-1.png,conditions\10back-e.xlsx,,,experiment,1,2,stim\gray.png,stim\yellow.png,stim\gray.png,stim\gray.png,up,,,,,,,,,,,,,0,0,0,1,0,5,5,5,,,,,,,,,,,,,,,,,,,,,,,,,,,,,,,,,,,,,,,,,,,,,,,,,,,,,,,,left,0,0.8891677999927197,230.7355857000075,None,230.7355857000075,None,230.7355857000075,231.73691249999683,230.7355857000075,231.73691249999683,230.7355857000075,231.73691249999683,230.7355857000075,231.73691249999683,230.7355857000075,231.23584890000348,230.7355857000075,231.23584890000348,230.7355857000075,231.23584890000348,230.7355857000075,231.23584890000348,230.7355857000075,None,,,,,12015,001,2024_Jun_22_1914,nback,2021.2.3,59.76196808099381,
1-back,instructions\back-1.png,conditions\10back-e.xlsx,,,experiment,1,3,stim\gray.png,stim\gray.png,stim\yellow.png,stim\gray.png,left,,,,,,,,,,,,,0,0,0,1,0,6,6,6,,,,,,,,,,,,,,,,,,,,,,,,,,,,,,,,,,,,,,,,,,,,,,,,,,,,,,,,up,0,0.8037662999995518,232.22082050000608,None,232.22082050000608,None,232.22082050000608,233.22308959999646,232.22082050000608,233.22308959999646,232.22082050000608,233.22308959999646,232.22082050000608,233.22308959999646,232.22082050000608,232.72155190000194,232.22082050000608,232.72155190000194,232.22082050000608,232.72155190000194,232.22082050000608,232.72155190000194,232.22082050000608,None,,,,,12015,001,2024_Jun_22_1914,nback,2021.2.3,59.76196808099381,
1-back,instructions\back-1.png,conditions\10back-e.xlsx,,,experiment,1,4,stim\gray.png,stim\gray.png,stim\gray.png,stim\yellow.png,right,,,,,,,,,,,,,0,0,0,1,0,7,7,7,,,,,,,,,,,,,,,,,,,,,,,,,,,,,,,,,,,,,,,,,,,,,,,,,,,,,,,,right,1,0.8616947999980766,233.7227855999954,None,233.7227855999954,None,233.7227855999954,234.7250808999961,233.7227855999954,234.7250808999961,233.7227855999954,234.7250808999961,233.7227855999954,234.7250808999961,233.7227855999954,234.2237543999945,233.7227855999954,234.2237543999945,233.7227855999954,234.2237543999945,233.7227855999954,234.2237543999945,233.7227855999954,None,,,,,12015,001,2024_Jun_22_1914,nback,2021.2.3,59.76196808099381,
1-back,instructions\back-1.png,conditions\10back-e.xlsx,,,experiment,1,1,stim\yellow.png,stim\gray.png,stim\gray.png,stim\gray.png,down,,,,,,,,,,,,,0,0,0,1,0,8,8,8,,,,,,,,,,,,,,,,,,,,,,,,,,,,,,,,,,,,,,,,,,,,,,,,,,,,,,,,down,1,0.8079163999937009,235.2251729999989,None,235.2251729999989,None,235.2251729999989,236.22746900000493,235.2251729999989,236.22746900000493,235.2251729999989,236.22746900000493,235.2251729999989,236.22746900000493,235.2251729999989,235.72672079999757,235.2251729999989,235.72672079999757,235.2251729999989,235.72672079999757,235.2251729999989,235.72672079999757,235.2251729999989,None,,,,,12015,001,2024_Jun_22_1914,nback,2021.2.3,59.76196808099381,
1-back,instructions\back-1.png,conditions\10back-e.xlsx,,,experiment,1,3,stim\gray.png,stim\gray.png,stim\yellow.png,stim\gray.png,up,,,,,,,,,,,,,0,0,0,1,0,9,9,9,,,,,,,,,,,,,,,,,,,,,,,,,,,,,,,,,,,,,,,,,,,,,,,,,,,,,,,,up,1,0.9047348000021884,236.7278529000032,None,236.7278529000032,None,236.7278529000032,237.72938299999805,236.7278529000032,237.72938299999805,236.7278529000032,237.72938299999805,236.7278529000032,237.72938299999805,236.7278529000032,237.2290623000008,236.7278529000032,237.2290623000008,236.7278529000032,237.2290623000008,236.7278529000032,237.2290623000008,236.7278529000032,None,,,,,12015,001,2024_Jun_22_1914,nback,2021.2.3,59.76196808099381,
1-back,instructions\back-1.png,conditions\10back-e.xlsx,,,experiment,1,1,stim\yellow.png,stim\gray.png,stim\gray.png,stim\gray.png,right,,,,,,,,,,,,,0,0,0,1,0,10,10,10,,,,,,,,,,,,,,,,,,,,,,,,,,,,,,,,,,,,,,,,,,,,,,,,,,,,,,,,up,0,0.6267313999996986,238.23030740000831,None,238.23030740000831,None,238.23030740000831,239.231277400002,238.23030740000831,239.231277400002,238.23030740000831,239.231277400002,238.23030740000831,239.231277400002,238.23030740000831,238.73073399999703,238.23030740000831,238.73073399999703,238.23030740000831,238.73073399999703,238.23030740000831,238.73073399999703,238.23030740000831,None,,,,,12015,001,2024_Jun_22_1914,nback,2021.2.3,59.76196808099381,
1-back,instructions\back-1.png,conditions\10back-e.xlsx,,,experiment,1,2,stim\gray.png,stim\yellow.png,stim\gray.png,stim\gray.png,up,,,,,,,,,,,,,0,0,0,1,0,11,11,11,,,,,,,,,,,,,,,,,,,,,,,,,,,,,,,,,,,,,,,,,,,,,,,,,,,,,,,,up,1,1.0607190000009723,239.7321576999966,None,239.7321576999966,None,239.7321576999966,240.73357959999703,239.7321576999966,240.73357959999703,239.7321576999966,240.73357959999703,239.7321576999966,240.73357959999703,239.7321576999966,240.2332552000007,239.7321576999966,240.2332552000007,239.7321576999966,240.2332552000007,239.7321576999966,240.2332552000007,239.7321576999966,None,,,,,12015,001,2024_Jun_22_1914,nback,2021.2.3,59.76196808099381,
1-back,instructions\back-1.png,conditions\10back-e.xlsx,,,experiment,1,4,stim\gray.png,stim\gray.png,stim\gray.png,stim\yellow.png,left,,,,,,,,,,,,,0,0,0,1,0,12,12,12,,,,,,,,,,,,,,,,,,,,,,,,,,,,,,,,,,,,,,,,,,,,,,,,,,,,,,,,left,1,0.43052259999967646,241.23439149999467,None,241.23439149999467,None,241.23439149999467,242.2359129999968,241.23439149999467,242.2359129999968,241.23439149999467,242.2359129999968,241.23439149999467,242.2359129999968,241.23439149999467,241.7357750999945,241.23439149999467,241.7357750999945,241.23439149999467,241.7357750999945,241.23439149999467,241.7357750999945,241.23439149999467,None,,,,,12015,001,2024_Jun_22_1914,nback,2021.2.3,59.76196808099381,
1-back,instructions\back-1.png,conditions\10back-e.xlsx,,,experiment,1,3,stim\gray.png,stim\gray.png,stim\yellow.png,stim\gray.png,down,,,,,,,,,,,,,0,0,0,1,0,13,13,13,,,,,,,,,,,,,,,,,,,,,,,,,,,,,,,,,,,,,,,,,,,,,,,,,,,,,,,,down,1,0.41734790000191424,242.71989300000132,None,242.71989300000132,None,242.71989300000132,243.7215256000054,242.71989300000132,243.7215256000054,242.71989300000132,243.7215256000054,242.71989300000132,243.7215256000054,242.71989300000132,243.2208382999961,242.71989300000132,243.2208382999961,242.71989300000132,243.2208382999961,242.71989300000132,243.2208382999961,242.71989300000132,None,,,,,12015,001,2024_Jun_22_1914,nback,2021.2.3,59.76196808099381,
1-back,instructions\back-1.png,conditions\10back-e.xlsx,,,experiment,1,1,stim\yellow.png,stim\gray.png,stim\gray.png,stim\gray.png,right,,,,,,,,,,,,,0,0,0,1,0,14,14,14,,,,,,,,,,,,,,,,,,,,,,,,,,,,,,,,,,,,,,,,,,,,,,,,,,,,,,,,right,1,0.2507409999961965,244.22235140000703,None,244.22235140000703,None,244.22235140000703,245.22405869999784,244.22235140000703,245.22405869999784,244.22235140000703,245.22405869999784,244.22235140000703,245.22405869999784,244.22235140000703,244.72321880000527,244.22235140000703,244.72321880000527,244.22235140000703,244.72321880000527,244.22235140000703,244.72321880000527,244.22235140000703,None,,,,,12015,001,2024_Jun_22_1914,nback,2021.2.3,59.76196808099381,
1-back,instructions\back-1.png,conditions\10back-e.xlsx,,,experiment,1,2,stim\gray.png,stim\yellow.png,stim\gray.png,stim\gray.png,up,,,,,,,,,,,,,0,0,0,1,0,15,15,15,,,,,,,,,,,,,,,,,,,,,,,,,,,,,,,,,,,,,,,,,,,,,,,,,,,,,,,,up,1,0.4443950999993831,245.72454939999443,None,245.72454939999443,None,245.72454939999443,246.7258889999939,245.72454939999443,246.7258889999939,245.72454939999443,246.7258889999939,245.72454939999443,246.7258889999939,245.72454939999443,246.2256195999944,245.72454939999443,246.2256195999944,245.72454939999443,246.2256195999944,245.72454939999443,246.2256195999944,245.72454939999443,None,,,,,12015,001,2024_Jun_22_1914,nback,2021.2.3,59.76196808099381,
1-back,instructions\back-1.png,conditions\10back-e.xlsx,,,experiment,1,3,stim\gray.png,stim\gray.png,stim\yellow.png,stim\gray.png,left,,,,,,,,,,,,,0,0,0,1,0,16,16,16,,,,,,,,,,,,,,,,,,,,,,,,,,,,,,,,,,,,,,,,,,,,,,,,,,,,,,,,left,1,1.150221000003512,247.22684319999826,None,247.22684319999826,None,247.22684319999826,248.22850719999406,247.22684319999826,248.22850719999406,247.22684319999826,248.22850719999406,247.22684319999826,248.22850719999406,247.22684319999826,247.72803480000584,247.22684319999826,247.72803480000584,247.22684319999826,247.72803480000584,247.22684319999826,247.72803480000584,247.22684319999826,None,,,,,12015,001,2024_Jun_22_1914,nback,2021.2.3,59.76196808099381,
1-back,instructions\back-1.png,conditions\10back-e.xlsx,,,experiment,1,2,stim\gray.png,stim\yellow.png,stim\gray.png,stim\gray.png,right,,,,,,,,,,,,,0,0,0,1,0,17,17,17,,,,,,,,,,,,,,,,,,,,,,,,,,,,,,,,,,,,,,,,,,,,,,,,,,,,,,,,right,1,0.6082925000082469,248.7290631000069,None,248.7290631000069,None,248.7290631000069,249.730747900001,248.7290631000069,249.730747900001,248.7290631000069,249.730747900001,248.7290631000069,249.730747900001,248.7290631000069,249.22980289999396,248.7290631000069,249.22980289999396,248.7290631000069,249.22980289999396,248.7290631000069,249.22980289999396,248.7290631000069,None,,,,,12015,001,2024_Jun_22_1914,nback,2021.2.3,59.76196808099381,
1-back,instructions\back-1.png,conditions\10back-e.xlsx,,,experiment,1,1,stim\yellow.png,stim\gray.png,stim\gray.png,stim\gray.png,left,,,,,,,,,,,,,0,0,0,1,0,18,18,18,,,,,,,,,,,,,,,,,,,,,,,,,,,,,,,,,,,,,,,,,,,,,,,,,,,,,,,,left,1,0.32991149999725167,250.23121640000318,None,250.23121640000318,None,250.23121640000318,251.23325010000553,250.23121640000318,251.23325010000553,250.23121640000318,251.23325010000553,250.23121640000318,251.23325010000553,250.23121640000318,250.7323200999963,250.23121640000318,250.7323200999963,250.23121640000318,250.7323200999963,250.23121640000318,250.7323200999963,250.23121640000318,None,,,,,12015,001,2024_Jun_22_1914,nback,2021.2.3,59.76196808099381,
1-back,instructions\back-1.png,conditions\10back-e.xlsx,,,experiment,1,4,stim\gray.png,stim\gray.png,stim\gray.png,stim\yellow.png,up,,,,,,,,,,,,,0,0,0,1,0,19,19,19,,,,,,,,,,,,,,,,,,,,,,,,,,,,,,,,,,,,,,,,,,,,,,,,,,,,,,,,up,1,0.8516533999936655,251.7336565000005,None,251.7336565000005,None,251.7336565000005,252.73512820000178,251.7336565000005,252.73512820000178,251.7336565000005,252.73512820000178,251.7336565000005,252.73512820000178,251.7336565000005,252.23424940000405,251.7336565000005,252.23424940000405,251.7336565000005,252.23424940000405,251.7336565000005,252.23424940000405,251.7336565000005,None,,,,,12015,001,2024_Jun_22_1914,nback,2021.2.3,59.76196808099381,
1-back,instructions\back-1.png,conditions\10back-e.xlsx,,,,,,,,,,,,,,,,,,,,,,,0,0,0,1,,,,,,,,,,,,,,,,,,,,,,,,,,,,,,,,,,,,,,,,,,,,,,,,,,,,,,,,,,,,,,,,,,,,,,,,,,,,,,,,,,,,,253.2364843999967,None,,,12015,001,2024_Jun_22_1914,nback,2021.2.3,59.76196808099381,
2-back,instructions\back-2.png,conditions\21back-e.xlsx,,,experiment,2,3,stim\gray.png,stim\gray.png,stim\yellow.png,stim\gray.png,None,,,,,,,,,,,,,0,1,1,3,0,0,0,0,,,,,,,,,,,,,,,254.33743600000162,258.84570930000336,258.81217760000436,None,,,,,,,,,,,,,,,,,,,,,,,,,,,,,,,,,,,,,,None,1,,259.2451460000011,None,259.2451460000011,None,259.2451460000011,260.24688200000674,259.2451460000011,260.24688200000674,259.2451460000011,260.24688200000674,259.2451460000011,260.24688200000674,259.2451460000011,259.7458154000051,259.2451460000011,259.7458154000051,259.2451460000011,259.7458154000051,259.2451460000011,259.7458154000051,259.2451460000011,None,,,,,12015,001,2024_Jun_22_1914,nback,2021.2.3,59.76196808099381,
2-back,instructions\back-2.png,conditions\21back-e.xlsx,,,experiment,2,4,stim\gray.png,stim\gray.png,stim\gray.png,stim\yellow.png,None,,,,,,,,,,,,,0,1,1,3,0,1,1,1,,,,,,,,,,,,,,,,,,,,,,,,,,,,,,,,,,,,,,,,,,,,,,,,,,,,,,,,None,1,,260.73080160000245,None,260.73080160000245,None,260.73080160000245,261.7337350000016,260.73080160000245,261.7337350000016,260.73080160000245,261.7337350000016,260.73080160000245,261.7337350000016,260.73080160000245,261.2317511000001,260.73080160000245,261.2317511000001,260.73080160000245,261.2317511000001,260.73080160000245,261.2317511000001,260.73080160000245,None,,,,,12015,001,2024_Jun_22_1914,nback,2021.2.3,59.76196808099381,
2-back,instructions\back-2.png,conditions\21back-e.xlsx,,,experiment,2,1,stim\yellow.png,stim\gray.png,stim\gray.png,stim\gray.png,right,,,,,,,,,,,,,0,1,1,3,0,2,2,2,,,,,,,,,,,,,,,,,,,,,,,,,,,,,,,,,,,,,,,,,,,,,,,,,,,,,,,,right,1,0.32855750000453554,262.2327825999964,None,262.2327825999964,None,262.2327825999964,263.23449509999773,262.2327825999964,263.23449509999773,262.2327825999964,263.23449509999773,262.2327825999964,263.23449509999773,262.2327825999964,262.7338993000012,262.2327825999964,262.7338993000012,262.2327825999964,262.7338993000012,262.2327825999964,262.7338993000012,262.2327825999964,None,,,,,12015,001,2024_Jun_22_1914,nback,2021.2.3,59.76196808099381,
2-back,instructions\back-2.png,conditions\21back-e.xlsx,,,experiment,2,2,stim\gray.png,stim\yellow.png,stim\gray.png,stim\gray.png,down,,,,,,,,,,,,,0,1,1,3,0,3,3,3,,,,,,,,,,,,,,,,,,,,,,,,,,,,,,,,,,,,,,,,,,,,,,,,,,,,,,,,None,0,,263.7350437999994,None,263.7350437999994,None,263.7350437999994,264.7367820000072,263.7350437999994,264.7367820000072,263.7350437999994,264.7367820000072,263.7350437999994,264.7367820000072,263.7350437999994,264.23597639999934,263.7350437999994,264.23597639999934,263.7350437999994,264.23597639999934,263.7350437999994,264.23597639999934,263.7350437999994,None,,,,,12015,001,2024_Jun_22_1914,nback,2021.2.3,59.76196808099381,
2-back,instructions\back-2.png,conditions\21back-e.xlsx,,,experiment,2,1,stim\yellow.png,stim\gray.png,stim\gray.png,stim\gray.png,up,,,,,,,,,,,,,0,1,1,3,0,4,4,4,,,,,,,,,,,,,,,,,,,,,,,,,,,,,,,,,,,,,,,,,,,,,,,,,,,,,,,,None,0,,265.2207044999959,None,265.2207044999959,None,265.2207044999959,266.22218189999694,265.2207044999959,266.22218189999694,265.2207044999959,266.22218189999694,265.2207044999959,266.22218189999694,265.2207044999959,265.7214653999981,265.2207044999959,265.7214653999981,265.2207044999959,265.7214653999981,265.2207044999959,265.7214653999981,265.2207044999959,None,,,,,12015,001,2024_Jun_22_1914,nback,2021.2.3,59.76196808099381,
2-back,instructions\back-2.png,conditions\21back-e.xlsx,,,experiment,2,2,stim\gray.png,stim\yellow.png,stim\gray.png,stim\gray.png,left,,,,,,,,,,,,,0,1,1,3,0,5,5,5,,,,,,,,,,,,,,,,,,,,,,,,,,,,,,,,,,,,,,,,,,,,,,,,,,,,,,,,left,1,0.3833735000080196,266.722760699995,None,266.722760699995,None,266.722760699995,267.7243426000059,266.722760699995,267.7243426000059,266.722760699995,267.7243426000059,266.722760699995,267.7243426000059,266.722760699995,267.2247400000051,266.722760699995,267.2247400000051,266.722760699995,267.2247400000051,266.722760699995,267.2247400000051,266.722760699995,None,,,,,12015,001,2024_Jun_22_1914,nback,2021.2.3,59.76196808099381,
2-back,instructions\back-2.png,conditions\21back-e.xlsx,,,experiment,2,3,stim\gray.png,stim\gray.png,stim\yellow.png,stim\gray.png,up,,,,,,,,,,,,,0,1,1,3,0,6,6,6,,,,,,,,,,,,,,,,,,,,,,,,,,,,,,,,,,,,,,,,,,,,,,,,,,,,,,,,None,0,,268.2250705000042,None,268.2250705000042,None,268.2250705000042,269.22670850000577,268.2250705000042,269.22670850000577,268.2250705000042,269.22670850000577,268.2250705000042,269.22670850000577,268.2250705000042,268.7261079000018,268.2250705000042,268.7261079000018,268.2250705000042,268.7261079000018,268.2250705000042,268.7261079000018,268.2250705000042,None,,,,,12015,001,2024_Jun_22_1914,nback,2021.2.3,59.76196808099381,
2-back,instructions\back-2.png,conditions\21back-e.xlsx,,,experiment,2,4,stim\gray.png,stim\gray.png,stim\gray.png,stim\yellow.png,left,,,,,,,,,,,,,0,1,1,3,0,7,7,7,,,,,,,,,,,,,,,,,,,,,,,,,,,,,,,,,,,,,,,,,,,,,,,,,,,,,,,,up,0,0.18633369999588467,269.72735669999383,None,269.72735669999383,None,269.72735669999383,270.729646199994,269.72735669999383,270.729646199994,269.72735669999383,270.729646199994,269.72735669999383,270.729646199994,269.72735669999383,270.2284539999964,269.72735669999383,270.2284539999964,269.72735669999383,270.2284539999964,269.72735669999383,270.2284539999964,269.72735669999383,None,,,,,12015,001,2024_Jun_22_1914,nback,2021.2.3,59.76196808099381,
2-back,instructions\back-2.png,conditions\21back-e.xlsx,,,experiment,2,3,stim\gray.png,stim\gray.png,stim\yellow.png,stim\gray.png,right,,,,,,,,,,,,,0,1,1,3,0,8,8,8,,,,,,,,,,,,,,,,,,,,,,,,,,,,,,,,,,,,,,,,,,,,,,,,,,,,,,,,None,0,,271.2297058999975,None,271.2297058999975,None,271.2297058999975,272.2315176999982,271.2297058999975,272.2315176999982,271.2297058999975,272.2315176999982,271.2297058999975,272.2315176999982,271.2297058999975,271.73047439999937,271.2297058999975,271.73047439999937,271.2297058999975,271.73047439999937,271.2297058999975,271.73047439999937,271.2297058999975,None,,,,,12015,001,2024_Jun_22_1914,nback,2021.2.3,59.76196808099381,
2-back,instructions\back-2.png,conditions\21back-e.xlsx,,,experiment,2,1,stim\yellow.png,stim\gray.png,stim\gray.png,stim\gray.png,down,,,,,,,,,,,,,0,1,1,3,0,9,9,9,,,,,,,,,,,,,,,,,,,,,,,,,,,,,,,,,,,,,,,,,,,,,,,,,,,,,,,,down,1,1.2132990999962203,272.73252190000494,None,272.73252190000494,None,272.73252190000494,273.73371800000314,272.73252190000494,273.73371800000314,272.73252190000494,273.73371800000314,272.73252190000494,273.73371800000314,272.73252190000494,273.23297759999696,272.73252190000494,273.23297759999696,272.73252190000494,273.23297759999696,272.73252190000494,273.23297759999696,272.73252190000494,None,,,,,12015,001,2024_Jun_22_1914,nback,2021.2.3,59.76196808099381,
2-back,instructions\back-2.png,conditions\21back-e.xlsx,,,experiment,2,4,stim\gray.png,stim\gray.png,stim\gray.png,stim\yellow.png,right,,,,,,,,,,,,,0,1,1,3,0,10,10,10,,,,,,,,,,,,,,,,,,,,,,,,,,,,,,,,,,,,,,,,,,,,,,,,,,,,,,,,None,0,,274.2344466000068,None,274.2344466000068,None,274.2344466000068,275.23616369999945,274.2344466000068,275.23616369999945,274.2344466000068,275.23616369999945,274.2344466000068,275.23616369999945,274.2344466000068,274.7353765000007,274.2344466000068,274.7353765000007,274.2344466000068,274.7353765000007,274.2344466000068,274.7353765000007,274.2344466000068,None,,,,,12015,001,2024_Jun_22_1914,nback,2021.2.3,59.76196808099381,
2-back,instructions\back-2.png,conditions\21back-e.xlsx,,,experiment,2,2,stim\gray.png,stim\yellow.png,stim\gray.png,stim\gray.png,up,,,,,,,,,,,,,0,1,1,3,0,11,11,11,,,,,,,,,,,,,,,,,,,,,,,,,,,,,,,,,,,,,,,,,,,,,,,,,,,,,,,,None,0,,275.71964009999647,None,275.71964009999647,None,275.71964009999647,276.7213769000082,275.71964009999647,276.7213769000082,275.71964009999647,276.7213769000082,275.71964009999647,276.7213769000082,275.71964009999647,276.2212620000064,275.71964009999647,276.2212620000064,275.71964009999647,276.2212620000064,275.71964009999647,276.2212620000064,275.71964009999647,None,,,,,12015,001,2024_Jun_22_1914,nback,2021.2.3,59.76196808099381,
2-back,instructions\back-2.png,conditions\21back-e.xlsx,,,experiment,2,4,stim\gray.png,stim\gray.png,stim\gray.png,stim\yellow.png,down,,,,,,,,,,,,,0,1,1,3,0,12,12,12,,,,,,,,,,,,,,,,,,,,,,,,,,,,,,,,,,,,,,,,,,,,,,,,,,,,,,,,down,1,0.5001862999924924,277.2220063999994,None,277.2220063999994,None,277.2220063999994,278.2240651000029,277.2220063999994,278.2240651000029,277.2220063999994,278.2240651000029,277.2220063999994,278.2240651000029,277.2220063999994,277.7231996000046,277.2220063999994,277.7231996000046,277.2220063999994,277.7231996000046,277.2220063999994,277.7231996000046,277.2220063999994,None,,,,,12015,001,2024_Jun_22_1914,nback,2021.2.3,59.76196808099381,
2-back,instructions\back-2.png,conditions\21back-e.xlsx,,,experiment,2,3,stim\gray.png,stim\gray.png,stim\yellow.png,stim\gray.png,left,,,,,,,,,,,,,0,1,1,3,0,13,13,13,,,,,,,,,,,,,,,,,,,,,,,,,,,,,,,,,,,,,,,,,,,,,,,,,,,,,,,,None,0,,278.7243778999982,None,278.7243778999982,None,278.7243778999982,279.7265389999957,278.7243778999982,279.7265389999957,278.7243778999982,279.7265389999957,278.7243778999982,279.7265389999957,278.7243778999982,279.22498850000557,278.7243778999982,279.22498850000557,278.7243778999982,279.22498850000557,278.7243778999982,279.22498850000557,278.7243778999982,None,,,,,12015,001,2024_Jun_22_1914,nback,2021.2.3,59.76196808099381,
2-back,instructions\back-2.png,conditions\21back-e.xlsx,,,experiment,2,1,stim\yellow.png,stim\gray.png,stim\gray.png,stim\gray.png,down,,,,,,,,,,,,,0,1,1,3,0,14,14,14,,,,,,,,,,,,,,,,,,,,,,,,,,,,,,,,,,,,,,,,,,,,,,,,,,,,,,,,right,0,0.40034259999811184,280.22635860000446,None,280.22635860000446,None,280.22635860000446,281.22790630000236,280.22635860000446,281.22790630000236,280.22635860000446,281.22790630000236,280.22635860000446,281.22790630000236,280.22635860000446,280.7273381999985,280.22635860000446,280.7273381999985,280.22635860000446,280.7273381999985,280.22635860000446,280.7273381999985,280.22635860000446,None,,,,,12015,001,2024_Jun_22_1914,nback,2021.2.3,59.76196808099381,
2-back,instructions\back-2.png,conditions\21back-e.xlsx,,,experiment,2,2,stim\gray.png,stim\yellow.png,stim\gray.png,stim\gray.png,right,,,,,,,,,,,,,0,1,1,3,0,15,15,15,,,,,,,,,,,,,,,,,,,,,,,,,,,,,,,,,,,,,,,,,,,,,,,,,,,,,,,,down,0,1.3772210000024643,281.7289893999987,None,281.7289893999987,None,281.7289893999987,282.73082270000305,281.7289893999987,282.73082270000305,281.7289893999987,282.73082270000305,281.7289893999987,282.73082270000305,281.7289893999987,282.22998489999736,281.7289893999987,282.22998489999736,281.7289893999987,282.22998489999736,281.7289893999987,282.22998489999736,281.7289893999987,None,,,,,12015,001,2024_Jun_22_1914,nback,2021.2.3,59.76196808099381,
2-back,instructions\back-2.png,conditions\21back-e.xlsx,,,experiment,2,2,stim\gray.png,stim\yellow.png,stim\gray.png,stim\gray.png,up,,,,,,,,,,,,,0,1,1,3,0,16,16,16,,,,,,,,,,,,,,,,,,,,,,,,,,,,,,,,,,,,,,,,,,,,,,,,,,,,,,,,None,0,,283.2312765999959,None,283.2312765999959,None,283.2312765999959,284.2329408000078,283.2312765999959,284.2329408000078,283.2312765999959,284.2329408000078,283.2312765999959,284.2329408000078,283.2312765999959,283.73191990000487,283.2312765999959,283.73191990000487,283.2312765999959,283.73191990000487,283.2312765999959,283.73191990000487,283.2312765999959,None,,,,,12015,001,2024_Jun_22_1914,nback,2021.2.3,59.76196808099381,
2-back,instructions\back-2.png,conditions\21back-e.xlsx,,,experiment,2,1,stim\yellow.png,stim\gray.png,stim\gray.png,stim\gray.png,left,,,,,,,,,,,,,0,1,1,3,0,17,17,17,,,,,,,,,,,,,,,,,,,,,,,,,,,,,,,,,,,,,,,,,,,,,,,,,,,,,,,,None,0,,284.7334686999966,None,284.7334686999966,None,284.7334686999966,285.7355577999988,284.7334686999966,285.7355577999988,284.7334686999966,285.7355577999988,284.7334686999966,285.7355577999988,284.7334686999966,285.23451160000695,284.7334686999966,285.23451160000695,284.7334686999966,285.23451160000695,284.7334686999966,285.23451160000695,284.7334686999966,None,,,,,12015,001,2024_Jun_22_1914,nback,2021.2.3,59.76196808099381,
2-back,instructions\back-2.png,conditions\21back-e.xlsx,,,experiment,2,4,stim\gray.png,stim\gray.png,stim\gray.png,stim\yellow.png,left,,,,,,,,,,,,,0,1,1,3,0,18,18,18,,,,,,,,,,,,,,,,,,,,,,,,,,,,,,,,,,,,,,,,,,,,,,,,,,,,,,,,left,1,0.3430999999982305,286.21906269999454,None,286.21906269999454,None,286.21906269999454,287.2205721000064,286.21906269999454,287.2205721000064,286.21906269999454,287.2205721000064,286.21906269999454,287.2205721000064,286.21906269999454,286.72036639999715,286.21906269999454,286.72036639999715,286.21906269999454,286.72036639999715,286.21906269999454,286.72036639999715,286.21906269999454,None,,,,,12015,001,2024_Jun_22_1914,nback,2021.2.3,59.76196808099381,
2-back,instructions\back-2.png,conditions\21back-e.xlsx,,,experiment,2,3,stim\gray.png,stim\gray.png,stim\yellow.png,stim\gray.png,up,,,,,,,,,,,,,0,1,1,3,0,19,19,19,,,,,,,,,,,,,,,,,,,,,,,,,,,,,,,,,,,,,,,,,,,,,,,,,,,,,,,,down,0,1.425413100005244,287.72138620000624,None,287.72138620000624,None,287.72138620000624,288.7227447000041,287.72138620000624,288.7227447000041,287.72138620000624,288.7227447000041,287.72138620000624,288.7227447000041,287.72138620000624,288.2221903000027,287.72138620000624,288.2221903000027,287.72138620000624,288.2221903000027,287.72138620000624,288.2221903000027,287.72138620000624,None,,,,,12015,001,2024_Jun_22_1914,nback,2021.2.3,59.76196808099381,
2-back,instructions\back-2.png,conditions\21back-e.xlsx,,,,,,,,,,,,,,,,,,,,,,,0,1,1,3,,,,,,,,,,,,,,,,,,,,,,,,,,,,,,,,,,,,,,,,,,,,,,,,,,,,,,,,,,,,,,,,,,,,,,,,,,,,,,,,,,,,,289.2240407000063,None,,,12015,001,2024_Jun_22_1914,nback,2021.2.3,59.76196808099381,
1-back,instructions\back-1.png,conditions\11back-e.xlsx,,,experiment,1,3,stim\gray.png,stim\gray.png,stim\yellow.png,stim\gray.png,None,,,,,,,,,,,,,0,2,2,5,0,0,0,0,,,,,,,,,,,,,,,290.3424493000057,294.8489983000036,294.8162566999963,None,,,,,,,,,,,,,,,,,,,,,,,,,,,,,,,,,,,,,,right,0,1.0731954999937443,295.2495912000013,None,295.2495912000013,None,295.2495912000013,296.25145569999586,295.2495912000013,296.25145569999586,295.2495912000013,296.25145569999586,295.2495912000013,296.25145569999586,295.2495912000013,295.75021769999876,295.2495912000013,295.75021769999876,295.2495912000013,295.75021769999876,295.2495912000013,295.75021769999876,295.2495912000013,None,,,,,12015,001,2024_Jun_22_1914,nback,2021.2.3,59.76196808099381,
1-back,instructions\back-1.png,conditions\11back-e.xlsx,,,experiment,1,1,stim\yellow.png,stim\gray.png,stim\gray.png,stim\gray.png,right,,,,,,,,,,,,,0,2,2,5,0,1,1,1,,,,,,,,,,,,,,,,,,,,,,,,,,,,,,,,,,,,,,,,,,,,,,,,,,,,,,,,None,0,,296.73529589999816,None,296.73529589999816,None,296.73529589999816,297.7363808000082,296.73529589999816,297.7363808000082,296.73529589999816,297.7363808000082,296.73529589999816,297.7363808000082,296.73529589999816,297.2358077999961,296.73529589999816,297.2358077999961,296.73529589999816,297.2358077999961,296.73529589999816,297.2358077999961,296.73529589999816,None,,,,,12015,001,2024_Jun_22_1914,nback,2021.2.3,59.76196808099381,
1-back,instructions\back-1.png,conditions\11back-e.xlsx,,,experiment,1,4,stim\gray.png,stim\gray.png,stim\gray.png,stim\yellow.png,up,,,,,,,,,,,,,0,2,2,5,0,2,2,2,,,,,,,,,,,,,,,,,,,,,,,,,,,,,,,,,,,,,,,,,,,,,,,,,,,,,,,,right,0,0.02219869999680668,298.2205513000081,None,298.2205513000081,None,298.2205513000081,299.22225540000363,298.2205513000081,299.22225540000363,298.2205513000081,299.22225540000363,298.2205513000081,299.22225540000363,298.2205513000081,298.72156520000135,298.2205513000081,298.72156520000135,298.2205513000081,298.72156520000135,298.2205513000081,298.72156520000135,298.2205513000081,None,,,,,12015,001,2024_Jun_22_1914,nback,2021.2.3,59.76196808099381,
1-back,instructions\back-1.png,conditions\11back-e.xlsx,,,experiment,1,2,stim\gray.png,stim\yellow.png,stim\gray.png,stim\gray.png,down,,,,,,,,,,,,,0,2,2,5,0,3,3,3,,,,,,,,,,,,,,,,,,,,,,,,,,,,,,,,,,,,,,,,,,,,,,,,,,,,,,,,up,0,1.4321734999975888,299.7227133999986,None,299.7227133999986,None,299.7227133999986,300.72448040000745,299.7227133999986,300.72448040000745,299.7227133999986,300.72448040000745,299.7227133999986,300.72448040000745,299.7227133999986,300.22364409999864,299.7227133999986,300.22364409999864,299.7227133999986,300.22364409999864,299.7227133999986,300.22364409999864,299.7227133999986,None,,,,,12015,001,2024_Jun_22_1914,nback,2021.2.3,59.76196808099381,
1-back,instructions\back-1.png,conditions\11back-e.xlsx,,,experiment,1,1,stim\yellow.png,stim\gray.png,stim\gray.png,stim\gray.png,left,,,,,,,,,,,,,0,2,2,5,0,4,4,4,,,,,,,,,,,,,,,,,,,,,,,,,,,,,,,,,,,,,,,,,,,,,,,,,,,,,,,,left,1,1.258042600005865,301.22497500000463,None,301.22497500000463,None,301.22497500000463,302.2267601000058,301.22497500000463,302.2267601000058,301.22497500000463,302.2267601000058,301.22497500000463,302.2267601000058,301.22497500000463,301.7260619000008,301.22497500000463,301.7260619000008,301.22497500000463,301.7260619000008,301.22497500000463,301.7260619000008,301.22497500000463,None,,,,,12015,001,2024_Jun_22_1914,nback,2021.2.3,59.76196808099381,
1-back,instructions\back-1.png,conditions\11back-e.xlsx,,,experiment,1,2,stim\gray.png,stim\yellow.png,stim\gray.png,stim\gray.png,up,,,,,,,,,,,,,0,2,2,5,0,5,5,5,,,,,,,,,,,,,,,,,,,,,,,,,,,,,,,,,,,,,,,,,,,,,,,,,,,,,,,,None,0,,302.7275021999958,None,302.7275021999958,None,302.7275021999958,303.7300277000031,302.7275021999958,303.7300277000031,302.7275021999958,303.7300277000031,302.7275021999958,303.7300277000031,302.7275021999958,303.22827010000765,302.7275021999958,303.22827010000765,302.7275021999958,303.22827010000765,302.7275021999958,303.22827010000765,302.7275021999958,None,,,,,12015,001,2024_Jun_22_1914,nback,2021.2.3,59.76196808099381,
1-back,instructions\back-1.png,conditions\11back-e.xlsx,,,experiment,1,3,stim\gray.png,stim\gray.png,stim\yellow.png,stim\gray.png,left,,,,,,,,,,,,,0,2,2,5,0,6,6,6,,,,,,,,,,,,,,,,,,,,,,,,,,,,,,,,,,,,,,,,,,,,,,,,,,,,,,,,left,1,0.5413799999951152,304.22950810000475,None,304.22950810000475,None,304.22950810000475,305.23112549999496,304.22950810000475,305.23112549999496,304.22950810000475,305.23112549999496,304.22950810000475,305.23112549999496,304.22950810000475,304.7307865000039,304.22950810000475,304.7307865000039,304.22950810000475,304.7307865000039,304.22950810000475,304.7307865000039,304.22950810000475,None,,,,,12015,001,2024_Jun_22_1914,nback,2021.2.3,59.76196808099381,
1-back,instructions\back-1.png,conditions\11back-e.xlsx,,,experiment,1,4,stim\gray.png,stim\gray.png,stim\gray.png,stim\yellow.png,right,,,,,,,,,,,,,0,2,2,5,0,7,7,7,,,,,,,,,,,,,,,,,,,,,,,,,,,,,,,,,,,,,,,,,,,,,,,,,,,,,,,,down,0,0.9829543999949237,305.7318296000012,None,305.7318296000012,None,305.7318296000012,306.7332116000034,305.7318296000012,306.7332116000034,305.7318296000012,306.7332116000034,305.7318296000012,306.7332116000034,305.7318296000012,306.2327857000055,305.7318296000012,306.2327857000055,305.7318296000012,306.2327857000055,305.7318296000012,306.2327857000055,305.7318296000012,None,,,,,12015,001,2024_Jun_22_1914,nback,2021.2.3,59.76196808099381,
1-back,instructions\back-1.png,conditions\11back-e.xlsx,,,experiment,1,4,stim\gray.png,stim\gray.png,stim\gray.png,stim\yellow.png,down,,,,,,,,,,,,,0,2,2,5,0,8,8,8,,,,,,,,,,,,,,,,,,,,,,,,,,,,,,,,,,,,,,,,,,,,,,,,,,,,,,,,down,1,1.3043515000026673,307.2344757999963,None,307.2344757999963,None,307.2344757999963,308.2357161999971,307.2344757999963,308.2357161999971,307.2344757999963,308.2357161999971,307.2344757999963,308.2357161999971,307.2344757999963,307.7351268000057,307.2344757999963,307.7351268000057,307.2344757999963,307.7351268000057,307.2344757999963,307.7351268000057,307.2344757999963,None,,,,,12015,001,2024_Jun_22_1914,nback,2021.2.3,59.76196808099381,
1-back,instructions\back-1.png,conditions\11back-e.xlsx,,,experiment,1,3,stim\gray.png,stim\gray.png,stim\yellow.png,stim\gray.png,down,,,,,,,,,,,,,0,2,2,5,0,9,9,9,,,,,,,,,,,,,,,,,,,,,,,,,,,,,,,,,,,,,,,,,,,,,,,,,,,,,,,,down,1,1.2843547000084072,308.7199791000021,None,308.7199791000021,None,308.7199791000021,309.72193960000004,308.7199791000021,309.72193960000004,308.7199791000021,309.72193960000004,308.7199791000021,309.72193960000004,308.7199791000021,309.2208441999974,308.7199791000021,309.2208441999974,308.7199791000021,309.2208441999974,308.7199791000021,309.2208441999974,308.7199791000021,None,,,,,12015,001,2024_Jun_22_1914,nback,2021.2.3,59.76196808099381,
1-back,instructions\back-1.png,conditions\11back-e.xlsx,,,experiment,1,1,stim\yellow.png,stim\gray.png,stim\gray.png,stim\gray.png,right,,,,,,,,,,,,,0,2,2,5,0,10,10,10,,,,,,,,,,,,,,,,,,,,,,,,,,,,,,,,,,,,,,,,,,,,,,,,,,,,,,,,None,0,,310.22180529999605,None,310.22180529999605,None,310.22180529999605,311.22344760000124,310.22180529999605,311.22344760000124,310.22180529999605,311.22344760000124,310.22180529999605,311.22344760000124,310.22180529999605,310.7227416999958,310.22180529999605,310.7227416999958,310.22180529999605,310.7227416999958,310.22180529999605,310.7227416999958,310.22180529999605,None,,,,,12015,001,2024_Jun_22_1914,nback,2021.2.3,59.76196808099381,
1-back,instructions\back-1.png,conditions\11back-e.xlsx,,,experiment,1,2,stim\gray.png,stim\yellow.png,stim\gray.png,stim\gray.png,up,,,,,,,,,,,,,0,2,2,5,0,11,11,11,,,,,,,,,,,,,,,,,,,,,,,,,,,,,,,,,,,,,,,,,,,,,,,,,,,,,,,,right,0,0.05466639999940526,311.7244093000045,None,311.7244093000045,None,311.7244093000045,312.7264107999945,311.7244093000045,312.7264107999945,311.7244093000045,312.7264107999945,311.7244093000045,312.7264107999945,311.7244093000045,312.22543030000816,311.7244093000045,312.22543030000816,311.7244093000045,312.22543030000816,311.7244093000045,312.22543030000816,311.7244093000045,None,,,,,12015,001,2024_Jun_22_1914,nback,2021.2.3,59.76196808099381,
1-back,instructions\back-1.png,conditions\11back-e.xlsx,,,experiment,1,3,stim\gray.png,stim\gray.png,stim\yellow.png,stim\gray.png,left,,,,,,,,,,,,,0,2,2,5,0,12,12,12,,,,,,,,,,,,,,,,,,,,,,,,,,,,,,,,,,,,,,,,,,,,,,,,,,,,,,,,up,0,0.20826460000535008,313.22671050000645,None,313.22671050000645,None,313.22671050000645,314.22789219999686,313.22671050000645,314.22789219999686,313.22671050000645,314.22789219999686,313.22671050000645,314.22789219999686,313.22671050000645,313.72721349999483,313.22671050000645,313.72721349999483,313.22671050000645,313.72721349999483,313.22671050000645,313.72721349999483,313.22671050000645,None,,,,,12015,001,2024_Jun_22_1914,nback,2021.2.3,59.76196808099381,
1-back,instructions\back-1.png,conditions\11back-e.xlsx,,,experiment,1,4,stim\gray.png,stim\gray.png,stim\gray.png,stim\yellow.png,right,,,,,,,,,,,,,0,2,2,5,0,13,13,13,,,,,,,,,,,,,,,,,,,,,,,,,,,,,,,,,,,,,,,,,,,,,,,,,,,,,,,,None,0,,314.72877889999654,None,314.72877889999654,None,314.72877889999654,315.7303960999998,314.72877889999654,315.7303960999998,314.72877889999654,315.7303960999998,314.72877889999654,315.7303960999998,314.72877889999654,315.22961809999833,314.72877889999654,315.22961809999833,314.72877889999654,315.22961809999833,314.72877889999654,315.22961809999833,314.72877889999654,None,,,,,12015,001,2024_Jun_22_1914,nback,2021.2.3,59.76196808099381,
1-back,instructions\back-1.png,conditions\11back-e.xlsx,,,experiment,1,1,stim\yellow.png,stim\gray.png,stim\gray.png,stim\gray.png,down,,,,,,,,,,,,,0,2,2,5,0,14,14,14,,,,,,,,,,,,,,,,,,,,,,,,,,,,,,,,,,,,,,,,,,,,,,,,,,,,,,,,up,0,0.6843205000041053,316.2311417000019,None,316.2311417000019,None,316.2311417000019,317.2328256000037,316.2311417000019,317.2328256000037,316.2311417000019,317.2328256000037,316.2311417000019,317.2328256000037,316.2311417000019,316.7322376999946,316.2311417000019,316.7322376999946,316.2311417000019,316.7322376999946,316.2311417000019,316.7322376999946,316.2311417000019,None,,,,,12015,001,2024_Jun_22_1914,nback,2021.2.3,59.76196808099381,
1-back,instructions\back-1.png,conditions\11back-e.xlsx,,,experiment,1,2,stim\gray.png,stim\yellow.png,stim\gray.png,stim\gray.png,up,,,,,,,,,,,,,0,2,2,5,0,15,15,15,,,,,,,,,,,,,,,,,,,,,,,,,,,,,,,,,,,,,,,,,,,,,,,,,,,,,,,,None,0,,317.73331470000267,None,317.73331470000267,None,317.73331470000267,318.73533759999555,317.73331470000267,318.73533759999555,317.73331470000267,318.73533759999555,317.73331470000267,318.73533759999555,317.73331470000267,318.2343789000006,317.73331470000267,318.2343789000006,317.73331470000267,318.2343789000006,317.73331470000267,318.2343789000006,317.73331470000267,None,,,,,12015,001,2024_Jun_22_1914,nback,2021.2.3,59.76196808099381,
1-back,instructions\back-1.png,conditions\11back-e.xlsx,,,experiment,1,2,stim\gray.png,stim\yellow.png,stim\gray.png,stim\gray.png,left,,,,,,,,,,,,,0,2,2,5,0,16,16,16,,,,,,,,,,,,,,,,,,,,,,,,,,,,,,,,,,,,,,,,,,,,,,,,,,,,,,,,left,1,0.9034059999976307,319.23582980000356,None,319.23582980000356,None,319.23582980000356,320.2372045999946,319.23582980000356,320.2372045999946,319.23582980000356,320.2372045999946,319.23582980000356,320.2372045999946,319.23582980000356,319.73606189999555,319.23582980000356,319.73606189999555,319.23582980000356,319.73606189999555,319.23582980000356,319.73606189999555,319.23582980000356,None,,,,,12015,001,2024_Jun_22_1914,nback,2021.2.3,59.76196808099381,
1-back,instructions\back-1.png,conditions\11back-e.xlsx,,,experiment,1,1,stim\yellow.png,stim\gray.png,stim\gray.png,stim\gray.png,left,,,,,,,,,,,,,0,2,2,5,0,17,17,17,,,,,,,,,,,,,,,,,,,,,,,,,,,,,,,,,,,,,,,,,,,,,,,,,,,,,,,,left,1,1.0986155000136932,320.72102189999714,None,320.72102189999714,None,320.72102189999714,321.7227911999944,320.72102189999714,321.7227911999944,320.72102189999714,321.7227911999944,320.72102189999714,321.7227911999944,320.72102189999714,321.2218266999989,320.72102189999714,321.2218266999989,320.72102189999714,321.2218266999989,320.72102189999714,321.2218266999989,320.72102189999714,None,,,,,12015,001,2024_Jun_22_1914,nback,2021.2.3,59.76196808099381,
1-back,instructions\back-1.png,conditions\11back-e.xlsx,,,experiment,1,4,stim\gray.png,stim\gray.png,stim\gray.png,stim\yellow.png,up,,,,,,,,,,,,,0,2,2,5,0,18,18,18,,,,,,,,,,,,,,,,,,,,,,,,,,,,,,,,,,,,,,,,,,,,,,,,,,,,,,,,up,1,1.364555799998925,322.22329249999893,None,322.22329249999893,None,322.22329249999893,323.2257684000069,322.22329249999893,323.2257684000069,322.22329249999893,323.2257684000069,322.22329249999893,323.2257684000069,322.22329249999893,322.7245045000018,322.22329249999893,322.7245045000018,322.22329249999893,322.7245045000018,322.22329249999893,322.7245045000018,322.22329249999893,None,,,,,12015,001,2024_Jun_22_1914,nback,2021.2.3,59.76196808099381,
1-back,instructions\back-1.png,conditions\11back-e.xlsx,,,experiment,1,3,stim\gray.png,stim\gray.png,stim\yellow.png,stim\gray.png,down,,,,,,,,,,,,,0,2,2,5,0,19,19,19,,,,,,,,,,,,,,,,,,,,,,,,,,,,,,,,,,,,,,,,,,,,,,,,,,,,,,,,down,1,0.7897470000025351,323.72564849999617,None,323.72564849999617,None,323.72564849999617,324.72850290000497,323.72564849999617,324.72850290000497,323.72564849999617,324.72850290000497,323.72564849999617,324.72850290000497,323.72564849999617,324.2268359000009,323.72564849999617,324.2268359000009,323.72564849999617,324.2268359000009,323.72564849999617,324.2268359000009,323.72564849999617,None,,,,,12015,001,2024_Jun_22_1914,nback,2021.2.3,59.76196808099381,
1-back,instructions\back-1.png,conditions\11back-e.xlsx,,,,,,,,,,,,,,,,,,,,,,,0,2,2,5,,,,,,,,,,,,,,,,,,,,,,,,,,,,,,,,,,,,,,,,,,,,,,,,,,,,,,,,,,,,,,,,,,,,,,,,,,,,,,,,,,,,,325.2280776999978,None,,,12015,001,2024_Jun_22_1914,nback,2021.2.3,59.76196808099381,
0-back,instructions\back-0.png,conditions\00back-e.xlsx,,,experiment,0,3,stim\gray.png,stim\gray.png,stim\yellow.png,stim\gray.png,right,,,,,,,,,,,,,0,3,3,0,0,0,0,0,,,,,,,,,,,,,,,326.3480272000015,330.8531124000001,330.8201393000054,None,,,,,,,,,,,,,,,,,,,,,,,,,,,,,,,,,,,,,,right,1,0.9907546000031289,331.23752460000105,None,331.23752460000105,None,331.23752460000105,332.23868429999857,331.23752460000105,332.23868429999857,331.23752460000105,332.23868429999857,331.23752460000105,332.23868429999857,331.23752460000105,331.7380759999942,331.23752460000105,331.7380759999942,331.23752460000105,331.7380759999942,331.23752460000105,331.7380759999942,331.23752460000105,None,,,,,12015,001,2024_Jun_22_1914,nback,2021.2.3,59.76196808099381,
0-back,instructions\back-0.png,conditions\00back-e.xlsx,,,experiment,0,4,stim\gray.png,stim\gray.png,stim\gray.png,stim\yellow.png,down,,,,,,,,,,,,,0,3,3,0,0,1,1,1,,,,,,,,,,,,,,,,,,,,,,,,,,,,,,,,,,,,,,,,,,,,,,,,,,,,,,,,down,1,0.7693408000050113,332.72250540000095,None,332.72250540000095,None,332.72250540000095,333.7245175999997,332.72250540000095,333.7245175999997,332.72250540000095,333.7245175999997,332.72250540000095,333.7245175999997,332.72250540000095,333.22383940000145,332.72250540000095,333.22383940000145,332.72250540000095,333.22383940000145,332.72250540000095,333.22383940000145,332.72250540000095,None,,,,,12015,001,2024_Jun_22_1914,nback,2021.2.3,59.76196808099381,
0-back,instructions\back-0.png,conditions\00back-e.xlsx,,,experiment,0,1,stim\yellow.png,stim\gray.png,stim\gray.png,stim\gray.png,up,,,,,,,,,,,,,0,3,3,0,0,2,2,2,,,,,,,,,,,,,,,,,,,,,,,,,,,,,,,,,,,,,,,,,,,,,,,,,,,,,,,,up,1,0.68299929999921,334.2246193000028,None,334.2246193000028,None,334.2246193000028,335.22720979999576,334.2246193000028,335.22720979999576,334.2246193000028,335.22720979999576,334.2246193000028,335.22720979999576,334.2246193000028,334.7275701000035,334.2246193000028,334.7275701000035,334.2246193000028,334.7275701000035,334.2246193000028,334.7275701000035,334.2246193000028,None,,,,,12015,001,2024_Jun_22_1914,nback,2021.2.3,59.76196808099381,
0-back,instructions\back-0.png,conditions\00back-e.xlsx,,,experiment,0,2,stim\gray.png,stim\yellow.png,stim\gray.png,stim\gray.png,left,,,,,,,,,,,,,0,3,3,0,0,3,3,3,,,,,,,,,,,,,,,,,,,,,,,,,,,,,,,,,,,,,,,,,,,,,,,,,,,,,,,,left,1,0.37244490000011865,335.7274647000013,None,335.7274647000013,None,335.7274647000013,336.7291191999975,335.7274647000013,336.7291191999975,335.7274647000013,336.7291191999975,335.7274647000013,336.7291191999975,335.7274647000013,336.2281840000069,335.7274647000013,336.2281840000069,335.7274647000013,336.2281840000069,335.7274647000013,336.2281840000069,335.7274647000013,None,,,,,12015,001,2024_Jun_22_1914,nback,2021.2.3,59.76196808099381,
0-back,instructions\back-0.png,conditions\00back-e.xlsx,,,experiment,0,2,stim\gray.png,stim\yellow.png,stim\gray.png,stim\gray.png,left,,,,,,,,,,,,,0,3,3,0,0,4,4,4,,,,,,,,,,,,,,,,,,,,,,,,,,,,,,,,,,,,,,,,,,,,,,,,,,,,,,,,left,1,0.4067678999999771,337.22959250000713,None,337.22959250000713,None,337.22959250000713,338.2312387999991,337.22959250000713,338.2312387999991,337.22959250000713,338.2312387999991,337.22959250000713,338.2312387999991,337.22959250000713,337.7308040000062,337.22959250000713,337.7308040000062,337.22959250000713,337.7308040000062,337.22959250000713,337.7308040000062,337.22959250000713,None,,,,,12015,001,2024_Jun_22_1914,nback,2021.2.3,59.76196808099381,
0-back,instructions\back-0.png,conditions\00back-e.xlsx,,,experiment,0,1,stim\yellow.png,stim\gray.png,stim\gray.png,stim\gray.png,up,,,,,,,,,,,,,0,3,3,0,0,5,5,5,,,,,,,,,,,,,,,,,,,,,,,,,,,,,,,,,,,,,,,,,,,,,,,,,,,,,,,,up,1,0.3355812999943737,338.73197180000716,None,338.73197180000716,None,338.73197180000716,339.7331672,338.73197180000716,339.7331672,338.73197180000716,339.7331672,338.73197180000716,339.7331672,338.73197180000716,339.232342400006,338.73197180000716,339.232342400006,338.73197180000716,339.232342400006,338.73197180000716,339.232342400006,338.73197180000716,None,,,,,12015,001,2024_Jun_22_1914,nback,2021.2.3,59.76196808099381,
0-back,instructions\back-0.png,conditions\00back-e.xlsx,,,experiment,0,4,stim\gray.png,stim\gray.png,stim\gray.png,stim\yellow.png,down,,,,,,,,,,,,,0,3,3,0,0,6,6,6,,,,,,,,,,,,,,,,,,,,,,,,,,,,,,,,,,,,,,,,,,,,,,,,,,,,,,,,down,1,0.3212900999933481,340.2345595999941,None,340.2345595999941,None,340.2345595999941,341.23573410000245,340.2345595999941,341.23573410000245,340.2345595999941,341.23573410000245,340.2345595999941,341.23573410000245,340.2345595999941,340.73496180000075,340.2345595999941,340.73496180000075,340.2345595999941,340.73496180000075,340.2345595999941,340.73496180000075,340.2345595999941,None,,,,,12015,001,2024_Jun_22_1914,nback,2021.2.3,59.76196808099381,
0-back,instructions\back-0.png,conditions\00back-e.xlsx,,,experiment,0,3,stim\gray.png,stim\gray.png,stim\yellow.png,stim\gray.png,right,,,,,,,,,,,,,0,3,3,0,0,7,7,7,,,,,,,,,,,,,,,,,,,,,,,,,,,,,,,,,,,,,,,,,,,,,,,,,,,,,,,,right,1,0.3403748999990057,341.7195958999946,None,341.7195958999946,None,341.7195958999946,342.7210594000062,341.7195958999946,342.7210594000062,341.7195958999946,342.7210594000062,341.7195958999946,342.7210594000062,341.7195958999946,342.2203057000006,341.7195958999946,342.2203057000006,341.7195958999946,342.2203057000006,341.7195958999946,342.2203057000006,341.7195958999946,None,,,,,12015,001,2024_Jun_22_1914,nback,2021.2.3,59.76196808099381,
0-back,instructions\back-0.png,conditions\00back-e.xlsx,,,experiment,0,4,stim\gray.png,stim\gray.png,stim\gray.png,stim\yellow.png,down,,,,,,,,,,,,,0,3,3,0,0,8,8,8,,,,,,,,,,,,,,,,,,,,,,,,,,,,,,,,,,,,,,,,,,,,,,,,,,,,,,,,down,1,0.39839229999051895,343.2217571000074,None,343.2217571000074,None,343.2217571000074,344.2235698000004,343.2217571000074,344.2235698000004,343.2217571000074,344.2235698000004,343.2217571000074,344.2235698000004,343.2217571000074,343.72256429999834,343.2217571000074,343.72256429999834,343.2217571000074,343.72256429999834,343.2217571000074,343.72256429999834,343.2217571000074,None,,,,,12015,001,2024_Jun_22_1914,nback,2021.2.3,59.76196808099381,
0-back,instructions\back-0.png,conditions\00back-e.xlsx,,,experiment,0,3,stim\gray.png,stim\gray.png,stim\yellow.png,stim\gray.png,right,,,,,,,,,,,,,0,3,3,0,0,9,9,9,,,,,,,,,,,,,,,,,,,,,,,,,,,,,,,,,,,,,,,,,,,,,,,,,,,,,,,,right,1,0.44833980000112206,344.72393459999876,None,344.72393459999876,None,344.72393459999876,345.72612300000037,344.72393459999876,345.72612300000037,344.72393459999876,345.72612300000037,344.72393459999876,345.72612300000037,344.72393459999876,345.2248343999963,344.72393459999876,345.2248343999963,344.72393459999876,345.2248343999963,344.72393459999876,345.2248343999963,344.72393459999876,None,,,,,12015,001,2024_Jun_22_1914,nback,2021.2.3,59.76196808099381,
0-back,instructions\back-0.png,conditions\00back-e.xlsx,,,experiment,0,1,stim\yellow.png,stim\gray.png,stim\gray.png,stim\gray.png,up,,,,,,,,,,,,,0,3,3,0,0,10,10,10,,,,,,,,,,,,,,,,,,,,,,,,,,,,,,,,,,,,,,,,,,,,,,,,,,,,,,,,up,1,0.36967519999598153,346.22636749999947,None,346.22636749999947,None,346.22636749999947,347.22839420000673,346.22636749999947,347.22839420000673,346.22636749999947,347.22839420000673,346.22636749999947,347.22839420000673,346.22636749999947,346.7273528000078,346.22636749999947,346.7273528000078,346.22636749999947,346.7273528000078,346.22636749999947,346.7273528000078,346.22636749999947,None,,,,,12015,001,2024_Jun_22_1914,nback,2021.2.3,59.76196808099381,
0-back,instructions\back-0.png,conditions\00back-e.xlsx,,,experiment,0,2,stim\gray.png,stim\yellow.png,stim\gray.png,stim\gray.png,left,,,,,,,,,,,,,0,3,3,0,0,11,11,11,,,,,,,,,,,,,,,,,,,,,,,,,,,,,,,,,,,,,,,,,,,,,,,,,,,,,,,,left,1,0.28461600000446197,347.72875799999747,None,347.72875799999747,None,347.72875799999747,348.7298942000052,347.72875799999747,348.7298942000052,347.72875799999747,348.7298942000052,347.72875799999747,348.7298942000052,347.72875799999747,348.2301487000077,347.72875799999747,348.2301487000077,347.72875799999747,348.2301487000077,347.72875799999747,348.2301487000077,347.72875799999747,None,,,,,12015,001,2024_Jun_22_1914,nback,2021.2.3,59.76196808099381,
0-back,instructions\back-0.png,conditions\00back-e.xlsx,,,experiment,0,3,stim\gray.png,stim\gray.png,stim\yellow.png,stim\gray.png,right,,,,,,,,,,,,,0,3,3,0,0,12,12,12,,,,,,,,,,,,,,,,,,,,,,,,,,,,,,,,,,,,,,,,,,,,,,,,,,,,,,,,right,1,0.4454735999897821,349.23103059999994,None,349.23103059999994,None,349.23103059999994,350.2330176999967,349.23103059999994,350.2330176999967,349.23103059999994,350.2330176999967,349.23103059999994,350.2330176999967,349.23103059999994,349.73187479999615,349.23103059999994,349.73187479999615,349.23103059999994,349.73187479999615,349.23103059999994,349.73187479999615,349.23103059999994,None,,,,,12015,001,2024_Jun_22_1914,nback,2021.2.3,59.76196808099381,
0-back,instructions\back-0.png,conditions\00back-e.xlsx,,,experiment,0,1,stim\yellow.png,stim\gray.png,stim\gray.png,stim\gray.png,up,,,,,,,,,,,,,0,3,3,0,0,13,13,13,,,,,,,,,,,,,,,,,,,,,,,,,,,,,,,,,,,,,,,,,,,,,,,,,,,,,,,,up,1,0.3188503999990644,350.73328539999784,None,350.73328539999784,None,350.73328539999784,351.73466590000317,350.73328539999784,351.73466590000317,350.73328539999784,351.73466590000317,350.73328539999784,351.73466590000317,350.73328539999784,351.2343946000037,350.73328539999784,351.2343946000037,350.73328539999784,351.2343946000037,350.73328539999784,351.2343946000037,350.73328539999784,None,,,,,12015,001,2024_Jun_22_1914,nback,2021.2.3,59.76196808099381,
0-back,instructions\back-0.png,conditions\00back-e.xlsx,,,experiment,0,4,stim\gray.png,stim\gray.png,stim\gray.png,stim\yellow.png,down,,,,,,,,,,,,,0,3,3,0,0,14,14,14,,,,,,,,,,,,,,,,,,,,,,,,,,,,,,,,,,,,,,,,,,,,,,,,,,,,,,,,down,1,0.3766627000004519,352.23554480000166,None,352.23554480000166,None,352.23554480000166,353.2389234000002,352.23554480000166,353.2389234000002,352.23554480000166,353.2389234000002,352.23554480000166,353.2389234000002,352.23554480000166,352.7365037999989,352.23554480000166,352.7365037999989,352.23554480000166,352.7365037999989,352.23554480000166,352.7365037999989,352.23554480000166,None,,,,,12015,001,2024_Jun_22_1914,nback,2021.2.3,59.76196808099381,
0-back,instructions\back-0.png,conditions\00back-e.xlsx,,,experiment,0,2,stim\gray.png,stim\yellow.png,stim\gray.png,stim\gray.png,left,,,,,,,,,,,,,0,3,3,0,0,15,15,15,,,,,,,,,,,,,,,,,,,,,,,,,,,,,,,,,,,,,,,,,,,,,,,,,,,,,,,,left,1,0.3000750000064727,353.72092469999916,None,353.72092469999916,None,353.72092469999916,354.72317559999647,353.72092469999916,354.72317559999647,353.72092469999916,354.72317559999647,353.72092469999916,354.72317559999647,353.72092469999916,354.22245109999494,353.72092469999916,354.22245109999494,353.72092469999916,354.22245109999494,353.72092469999916,354.22245109999494,353.72092469999916,None,,,,,12015,001,2024_Jun_22_1914,nback,2021.2.3,59.76196808099381,
0-back,instructions\back-0.png,conditions\00back-e.xlsx,,,experiment,0,1,stim\yellow.png,stim\gray.png,stim\gray.png,stim\gray.png,up,,,,,,,,,,,,,0,3,3,0,0,16,16,16,,,,,,,,,,,,,,,,,,,,,,,,,,,,,,,,,,,,,,,,,,,,,,,,,,,,,,,,up,1,0.2688035999890417,355.2235728999949,None,355.2235728999949,None,355.2235728999949,356.225053800008,355.2235728999949,356.225053800008,355.2235728999949,356.225053800008,355.2235728999949,356.225053800008,355.2235728999949,355.7240094000008,355.2235728999949,355.7240094000008,355.2235728999949,355.7240094000008,355.2235728999949,355.7240094000008,355.2235728999949,None,,,,,12015,001,2024_Jun_22_1914,nback,2021.2.3,59.76196808099381,
0-back,instructions\back-0.png,conditions\00back-e.xlsx,,,experiment,0,2,stim\gray.png,stim\yellow.png,stim\gray.png,stim\gray.png,left,,,,,,,,,,,,,0,3,3,0,0,17,17,17,,,,,,,,,,,,,,,,,,,,,,,,,,,,,,,,,,,,,,,,,,,,,,,,,,,,,,,,left,1,0.3422882999875583,356.72602149999875,None,356.72602149999875,None,356.72602149999875,357.72721890000685,356.72602149999875,357.72721890000685,356.72602149999875,357.72721890000685,356.72602149999875,357.72721890000685,356.72602149999875,357.22647130000405,356.72602149999875,357.22647130000405,356.72602149999875,357.22647130000405,356.72602149999875,357.22647130000405,356.72602149999875,None,,,,,12015,001,2024_Jun_22_1914,nback,2021.2.3,59.76196808099381,
