backseq,backinstr,backfile,instruction,size_in,Trialtype,back,number,P1,P2,P3,P4,corrAns,trials_practice.thisRepN,trials_practice.thisTrialN,trials_practice.thisN,trials_practice.thisIndex,trials.thisRepN,trials.thisTrialN,trials.thisN,trials.thisIndex,trials_3.thisRepN,trials_3.thisTrialN,trials_3.thisN,trials_3.thisIndex,trials_2.thisRepN,trials_2.thisTrialN,trials_2.thisN,trials_2.thisIndex,trials_4.thisRepN,trials_4.thisTrialN,trials_4.thisN,trials_4.thisIndex,image.started,image.stopped,image_2.started,image_2.stopped,key_resp.keys,key_resp.rt,key_resp.started,key_resp.stopped,image_3.started,image_3.stopped,key_resp_2.keys,key_resp_2.rt,key_resp_2.started,key_resp_2.stopped,image_4.started,image_4.stopped,text.started,text.stopped,H1.started,H1.stopped,H2.started,H2.stopped,H3.started,H3.stopped,H4.started,H4.stopped,key_resp_3.keys,key_resp_3.corr,key_resp_3.rt,key_resp_3.started,key_resp_3.stopped,text_4.started,text_4.stopped,F1.started,F1.stopped,F2.started,F2.stopped,F3.started,F3.stopped,F4.started,F4.stopped,image_7.started,image_7.stopped,text_5.started,text_5.stopped,key_resp_6.keys,key_resp_6.rt,key_resp_6.started,key_resp_6.stopped,image_5.started,image_5.stopped,key_resp_4.keys,key_resp_4.rt,key_resp_4.started,key_resp_4.stopped,key_resp_5.keys,key_resp_5.corr,key_resp_5.started,key_resp_5.stopped,text_3.started,text_3.stopped,H1_2.started,H1_2.stopped,H2_2.started,H2_2.stopped,H3_2.started,H3_2.stopped,H4_2.started,H4_2.stopped,F1_2.started,F1_2.stopped,F2_2.started,F2_2.stopped,F3_2.started,F3_2.stopped,F4_2.started,F4_2.stopped,image_8.started,image_8.stopped,key_resp_5.rt,text_2.started,text_2.stopped,image_6.started,image_6.stopped,participant,session,date,expName,psychopyVersion,frameRate,
,,,,,,,,,,,,,,,,,,,,,,,,,,,,,,,,,9.162747900001705,None,10.065539900009753,None,space,1.2106432000000495,10.065539900009753,None,,,,,,,,,,,,,,,,,,,,,,,,,,,,,,,,,,,,,,,,,,,,,,,,,,,,,,,,,,,,,,,,,,,,,,,,,,,,,12011,001,2024_Jun_17_0845,nback,2021.2.3,60.16260750105006,
0-back,instructions\back-0.png,conditions\0back-p.xlsx,instructions\0-BACK.png,"(15, 8)",practice,0,1,stim\yellow.png,stim\gray.png,stim\gray.png,stim\gray.png,up,0,0,0,0,0,0,0,0,0,0,0,0,,,,,,,,,,,,,,,,,11.332595799991395,None,space,3.081677200010745,11.332595799991395,None,14.586713099997723,19.09447939999518,19.028204000002006,None,19.511716700013494,20.513162299990654,19.511716700013494,20.513162299990654,19.511716700013494,20.513162299990654,19.511716700013494,20.513162299990654,up,1,0.8145629000209738,19.511716700013494,None,19.511716700013494,None,19.511716700013494,20.012550000014016,19.511716700013494,20.012550000014016,19.511716700013494,20.012550000014016,19.511716700013494,20.012550000014016,19.511716700013494,None,,,,,,,,,,,,,,,,,,,,,,,,,,,,,,,,,,,,,,,,,,12011,001,2024_Jun_17_0845,nback,2021.2.3,60.16260750105006,
0-back,instructions\back-0.png,conditions\0back-p.xlsx,instructions\0-BACK.png,"(15, 8)",practice,0,2,stim\gray.png,stim\yellow.png,stim\gray.png,stim\gray.png,left,0,0,0,0,0,0,0,0,0,1,1,1,,,,,,,,,,,,,,,,,,,,,,,,,,,20.94728620001115,21.948772800009465,20.94728620001115,21.948772800009465,20.94728620001115,21.948772800009465,20.94728620001115,21.948772800009465,left,1,0.9871945999911986,20.94728620001115,None,20.94728620001115,None,20.94728620001115,21.448730100004468,20.94728620001115,21.448730100004468,20.94728620001115,21.448730100004468,20.94728620001115,21.448730100004468,20.94728620001115,None,,,,,,,,,,,,,,,,,,,,,,,,,,,,,,,,,,,,,,,,,,12011,001,2024_Jun_17_0845,nback,2021.2.3,60.16260750105006,
0-back,instructions\back-0.png,conditions\0back-p.xlsx,instructions\0-BACK.png,"(15, 8)",practice,0,3,stim\gray.png,stim\gray.png,stim\yellow.png,stim\gray.png,right,0,0,0,0,0,0,0,0,0,2,2,2,,,,,,,,,,,,,,,,,,,,,,,,,,,22.449362899991684,23.450960999995004,22.449362899991684,23.450960999995004,22.449362899991684,23.450960999995004,22.449362899991684,23.450960999995004,right,1,0.4051292999938596,22.449362899991684,None,22.449362899991684,None,22.449362899991684,22.950246299995342,22.449362899991684,22.950246299995342,22.449362899991684,22.950246299995342,22.449362899991684,22.950246299995342,22.449362899991684,None,,,,,,,,,,,,,,,,,,,,,,,,,,,,,,,,,,,,,,,,,,12011,001,2024_Jun_17_0845,nback,2021.2.3,60.16260750105006,
0-back,instructions\back-0.png,conditions\0back-p.xlsx,instructions\0-BACK.png,"(15, 8)",practice,0,4,stim\gray.png,stim\gray.png,stim\gray.png,stim\yellow.png,down,0,0,0,0,0,0,0,0,0,3,3,3,,,,,,,,,,,,,,,,,,,,,,,,,,,23.95202860000427,24.953894500009483,23.95202860000427,24.953894500009483,23.95202860000427,24.953894500009483,23.95202860000427,24.953894500009483,down,1,0.4704708999779541,23.95202860000427,None,23.95202860000427,None,23.95202860000427,24.452411400008714,23.95202860000427,24.452411400008714,23.95202860000427,24.452411400008714,23.95202860000427,24.452411400008714,23.95202860000427,None,,,,,,,,,,,,,,,,,,,,,,,,,,,,,,,,,,,,,,,,,,12011,001,2024_Jun_17_0845,nback,2021.2.3,60.16260750105006,
0-back,instructions\back-0.png,conditions\0back-p.xlsx,instructions\0-BACK.png,"(15, 8)",practice,0,2,stim\gray.png,stim\yellow.png,stim\gray.png,stim\gray.png,left,0,0,0,0,0,0,0,0,0,4,4,4,,,,,,,,,,,,,,,,,,,,,,,,,,,25.454336399998283,26.455906299990602,25.454336399998283,26.455906299990602,25.454336399998283,26.455906299990602,25.454336399998283,26.455906299990602,left,1,0.43248139999923296,25.454336399998283,None,25.454336399998283,None,25.454336399998283,25.955003300012322,25.454336399998283,25.955003300012322,25.454336399998283,25.955003300012322,25.454336399998283,25.955003300012322,25.454336399998283,None,,,,,,,,,,,,,,,,,,,,,,,,,,,,,,,,,,,,,,,,,,12011,001,2024_Jun_17_0845,nback,2021.2.3,60.16260750105006,
0-back,instructions\back-0.png,conditions\0back-p.xlsx,instructions\0-BACK.png,"(15, 8)",practice,0,1,stim\yellow.png,stim\gray.png,stim\gray.png,stim\gray.png,up,0,0,0,0,0,0,0,0,0,5,5,5,,,,,,,,,,,,,,,,,,,,,,,,,,,26.956262399995467,27.957848699996248,26.956262399995467,27.957848699996248,26.956262399995467,27.957848699996248,26.956262399995467,27.957848699996248,up,1,0.3142486000142526,26.956262399995467,None,26.956262399995467,None,26.956262399995467,27.456979700014926,26.956262399995467,27.456979700014926,26.956262399995467,27.456979700014926,26.956262399995467,27.456979700014926,26.956262399995467,None,,,,,,,,,,,,,,,,,,,,,,,,,,,,,,,,,,,,,,,,,,12011,001,2024_Jun_17_0845,nback,2021.2.3,60.16260750105006,
0-back,instructions\back-0.png,conditions\0back-p.xlsx,instructions\0-BACK.png,"(15, 8)",practice,0,4,stim\gray.png,stim\gray.png,stim\gray.png,stim\yellow.png,down,0,0,0,0,0,0,0,0,0,6,6,6,,,,,,,,,,,,,,,,,,,,,,,,,,,28.44187820001389,29.44441480000387,28.44187820001389,29.44441480000387,28.44187820001389,29.44441480000387,28.44187820001389,29.44441480000387,down,1,0.5722488999890629,28.44187820001389,None,28.44187820001389,None,28.44187820001389,28.942648199998075,28.44187820001389,28.942648199998075,28.44187820001389,28.942648199998075,28.44187820001389,28.942648199998075,28.44187820001389,None,,,,,,,,,,,,,,,,,,,,,,,,,,,,,,,,,,,,,,,,,,12011,001,2024_Jun_17_0845,nback,2021.2.3,60.16260750105006,
0-back,instructions\back-0.png,conditions\0back-p.xlsx,instructions\0-BACK.png,"(15, 8)",practice,0,3,stim\gray.png,stim\gray.png,stim\yellow.png,stim\gray.png,right,0,0,0,0,0,0,0,0,0,7,7,7,,,,,,,,,,,,,,,,,,,,,,,,,,,29.94452610000735,30.94582409999566,29.94452610000735,30.94582409999566,29.94452610000735,30.94582409999566,29.94452610000735,30.94582409999566,right,1,0.28581500001018867,29.94452610000735,None,29.94452610000735,None,29.94452610000735,30.444854900008067,29.94452610000735,30.444854900008067,29.94452610000735,30.444854900008067,29.94452610000735,30.444854900008067,29.94452610000735,None,,,,,,,,,,,,,,,,,,,,,,,,,,,,,,,,,,,,,,,,,,12011,001,2024_Jun_17_0845,nback,2021.2.3,60.16260750105006,
0-back,instructions\back-0.png,conditions\0back-p.xlsx,instructions\0-BACK.png,"(15, 8)",practice,0,3,stim\gray.png,stim\gray.png,stim\yellow.png,stim\gray.png,right,0,0,0,0,0,0,0,0,0,8,8,8,,,,,,,,,,,,,,,,,,,,,,,,,,,31.44613890000619,32.447923400002765,31.44613890000619,32.447923400002765,31.44613890000619,32.447923400002765,31.44613890000619,32.447923400002765,right,1,0.33666190001531504,31.44613890000619,None,31.44613890000619,None,31.44613890000619,31.94721889999346,31.44613890000619,31.94721889999346,31.44613890000619,31.94721889999346,31.44613890000619,31.94721889999346,31.44613890000619,None,,,,,,,,,,,,,,,,,,,,,,,,,,,,,,,,,,,,,,,,,,12011,001,2024_Jun_17_0845,nback,2021.2.3,60.16260750105006,
0-back,instructions\back-0.png,conditions\0back-p.xlsx,instructions\0-BACK.png,"(15, 8)",practice,0,4,stim\gray.png,stim\gray.png,stim\gray.png,stim\yellow.png,down,0,0,0,0,0,0,0,0,0,9,9,9,,,,,,,,,,,,,,,,,,,,,,,,,,,32.94856140000047,33.95007489999989,32.94856140000047,33.95007489999989,32.94856140000047,33.95007489999989,32.94856140000047,33.95007489999989,down,1,0.3228211999812629,32.94856140000047,None,32.94856140000047,None,32.94856140000047,33.450979699991876,32.94856140000047,33.450979699991876,32.94856140000047,33.450979699991876,32.94856140000047,33.450979699991876,32.94856140000047,None,,,,,,,,,,,,,,,,,,,,,,,,,,,,,,,,,,,,,,,,,,12011,001,2024_Jun_17_0845,nback,2021.2.3,60.16260750105006,
0-back,instructions\back-0.png,conditions\0back-p.xlsx,instructions\0-BACK.png,"(15, 8)",practice,0,1,stim\yellow.png,stim\gray.png,stim\gray.png,stim\gray.png,up,0,0,0,0,0,0,0,0,0,10,10,10,,,,,,,,,,,,,,,,,,,,,,,,,,,34.4508419999911,35.452217300015036,34.4508419999911,35.452217300015036,34.4508419999911,35.452217300015036,34.4508419999911,35.452217300015036,up,1,0.36408979998668656,34.4508419999911,None,34.4508419999911,None,34.4508419999911,34.95174479999696,34.4508419999911,34.95174479999696,34.4508419999911,34.95174479999696,34.4508419999911,34.95174479999696,34.4508419999911,None,,,,,,,,,,,,,,,,,,,,,,,,,,,,,,,,,,,,,,,,,,12011,001,2024_Jun_17_0845,nback,2021.2.3,60.16260750105006,
0-back,instructions\back-0.png,conditions\0back-p.xlsx,instructions\0-BACK.png,"(15, 8)",practice,0,2,stim\gray.png,stim\yellow.png,stim\gray.png,stim\gray.png,left,0,0,0,0,0,0,0,0,0,11,11,11,,,,,,,,,,,,,,,,,,,,,,,,,,,35.95322779999697,36.95487519999733,35.95322779999697,36.95487519999733,35.95322779999697,36.95487519999733,35.95322779999697,36.95487519999733,left,1,0.3096077000082005,35.95322779999697,None,35.95322779999697,None,35.95322779999697,36.453933200013125,35.95322779999697,36.453933200013125,35.95322779999697,36.453933200013125,35.95322779999697,36.453933200013125,35.95322779999697,None,,,,,,,,,,,,,,,,,,,,,,,,,,,,,,,,,,,,,,,,,,12011,001,2024_Jun_17_0845,nback,2021.2.3,60.16260750105006,
0-back,instructions\back-0.png,conditions\0back-p.xlsx,instructions\0-BACK.png,"(15, 8)",practice,0,4,stim\gray.png,stim\gray.png,stim\gray.png,stim\yellow.png,down,0,0,0,0,0,0,0,0,0,12,12,12,,,,,,,,,,,,,,,,,,,,,,,,,,,37.45540279999841,38.45691330000409,37.45540279999841,38.45691330000409,37.45540279999841,38.45691330000409,37.45540279999841,38.45691330000409,down,1,0.45585299999220297,37.45540279999841,None,37.45540279999841,None,37.45540279999841,37.9561653000128,37.45540279999841,37.9561653000128,37.45540279999841,37.9561653000128,37.45540279999841,37.9561653000128,37.45540279999841,None,,,,,,,,,,,,,,,,,,,,,,,,,,,,,,,,,,,,,,,,,,12011,001,2024_Jun_17_0845,nback,2021.2.3,60.16260750105006,
0-back,instructions\back-0.png,conditions\0back-p.xlsx,instructions\0-BACK.png,"(15, 8)",practice,0,3,stim\gray.png,stim\gray.png,stim\yellow.png,stim\gray.png,right,0,0,0,0,0,0,0,0,0,13,13,13,,,,,,,,,,,,,,,,,,,,,,,,,,,38.95759959999123,39.96031970001059,38.95759959999123,39.96031970001059,38.95759959999123,39.96031970001059,38.95759959999123,39.96031970001059,right,1,0.36130110002704896,38.95759959999123,None,38.95759959999123,None,38.95759959999123,39.45847169999615,38.95759959999123,39.45847169999615,38.95759959999123,39.45847169999615,38.95759959999123,39.45847169999615,38.95759959999123,None,,,,,,,,,,,,,,,,,,,,,,,,,,,,,,,,,,,,,,,,,,12011,001,2024_Jun_17_0845,nback,2021.2.3,60.16260750105006,
0-back,instructions\back-0.png,conditions\0back-p.xlsx,instructions\0-BACK.png,"(15, 8)",practice,0,1,stim\yellow.png,stim\gray.png,stim\gray.png,stim\gray.png,up,0,0,0,0,0,0,0,0,0,14,14,14,,,,,,,,,,,,,,,,,,,,,,,,,,,40.44344599999022,41.44478660001187,40.44344599999022,41.44478660001187,40.44344599999022,41.44478660001187,40.44344599999022,41.44478660001187,up,1,0.40380929998354986,40.44344599999022,None,40.44344599999022,None,40.44344599999022,40.943994900007965,40.44344599999022,40.943994900007965,40.44344599999022,40.943994900007965,40.44344599999022,40.943994900007965,40.44344599999022,None,,,,,,,,,,,,,,,,,,,,,,,,,,,,,,,,,,,,,,,,,,12011,001,2024_Jun_17_0845,nback,2021.2.3,60.16260750105006,
0-back,instructions\back-0.png,conditions\0back-p.xlsx,instructions\0-BACK.png,"(15, 8)",practice,0,2,stim\gray.png,stim\yellow.png,stim\gray.png,stim\gray.png,left,0,0,0,0,0,0,0,0,0,15,15,15,,,,,,,,,,,,,,,,,,,,,,,,,,,41.945503299997654,42.94869680001284,41.945503299997654,42.94869680001284,41.945503299997654,42.94869680001284,41.945503299997654,42.94869680001284,left,1,0.3174189999990631,41.945503299997654,None,41.945503299997654,None,41.945503299997654,42.44646159998956,41.945503299997654,42.44646159998956,41.945503299997654,42.44646159998956,41.945503299997654,42.44646159998956,41.945503299997654,None,,,,,,,,,,,,,,,,,,,,,,,,,,,,,,,,,,,,,,,,,,12011,001,2024_Jun_17_0845,nback,2021.2.3,60.16260750105006,
0-back,instructions\back-0.png,conditions\0back-p.xlsx,instructions\0-BACK.png,"(15, 8)",practice,0,3,stim\gray.png,stim\gray.png,stim\yellow.png,stim\gray.png,right,0,0,0,0,0,0,0,0,0,16,16,16,,,,,,,,,,,,,,,,,,,,,,,,,,,43.44772759999614,44.44920040000579,43.44772759999614,44.44920040000579,43.44772759999614,44.44920040000579,43.44772759999614,44.44920040000579,right,1,0.35934709999128245,43.44772759999614,None,43.44772759999614,None,43.44772759999614,43.94859479999286,43.44772759999614,43.94859479999286,43.44772759999614,43.94859479999286,43.44772759999614,43.94859479999286,43.44772759999614,None,,,,,,,,,,,,,,,,,,,,,,,,,,,,,,,,,,,,,,,,,,12011,001,2024_Jun_17_0845,nback,2021.2.3,60.16260750105006,
0-back,instructions\back-0.png,conditions\0back-p.xlsx,instructions\0-BACK.png,"(15, 8)",practice,0,1,stim\yellow.png,stim\gray.png,stim\gray.png,stim\gray.png,up,0,0,0,0,0,0,0,0,0,17,17,17,,,,,,,,,,,,,,,,,,,,,,,,,,,44.95012819999829,45.95153190000565,44.95012819999829,45.95153190000565,44.95012819999829,45.95153190000565,44.95012819999829,45.95153190000565,up,1,0.5132103999785613,44.95012819999829,None,44.95012819999829,None,44.95012819999829,45.45083750001504,44.95012819999829,45.45083750001504,44.95012819999829,45.45083750001504,44.95012819999829,45.45083750001504,44.95012819999829,None,,,,,,,,,,,,,,,,,,,,,,,,,,,,,,,,,,,,,,,,,,12011,001,2024_Jun_17_0845,nback,2021.2.3,60.16260750105006,
0-back,instructions\back-0.png,conditions\0back-p.xlsx,instructions\0-BACK.png,"(15, 8)",practice,0,4,stim\gray.png,stim\gray.png,stim\gray.png,stim\yellow.png,down,0,0,0,0,0,0,0,0,0,18,18,18,,,,,,,,,,,,,,,,,,,,,,,,,,,46.452393199986545,47.45402989999275,46.452393199986545,47.45402989999275,46.452393199986545,47.45402989999275,46.452393199986545,47.45402989999275,down,1,0.33058080001501366,46.452393199986545,None,46.452393199986545,None,46.452393199986545,46.953430699999444,46.452393199986545,46.953430699999444,46.452393199986545,46.953430699999444,46.452393199986545,46.953430699999444,46.452393199986545,None,,,,,,,,,,,,,,,,,,,,,,,,,,,,,,,,,,,,,,,,,,12011,001,2024_Jun_17_0845,nback,2021.2.3,60.16260750105006,
0-back,instructions\back-0.png,conditions\0back-p.xlsx,instructions\0-BACK.png,"(15, 8)",practice,0,2,stim\gray.png,stim\yellow.png,stim\gray.png,stim\gray.png,left,0,0,0,0,0,0,0,0,0,19,19,19,,,,,,,,,,,,,,,,,,,,,,,,,,,47.954466299997875,48.95616080000764,47.954466299997875,48.95616080000764,47.954466299997875,48.95616080000764,47.954466299997875,48.95616080000764,left,1,0.32536409999011084,47.954466299997875,None,47.954466299997875,None,47.954466299997875,48.45542199999909,47.954466299997875,48.45542199999909,47.954466299997875,48.45542199999909,47.954466299997875,48.45542199999909,47.954466299997875,None,,,,,,,,,,,,,,,,,,,,,,,,,,,,,,,,,,,,,,,,,,12011,001,2024_Jun_17_0845,nback,2021.2.3,60.16260750105006,
0-back,instructions\back-0.png,conditions\0back-p.xlsx,instructions\0-BACK.png,"(15, 8)",,,,,,,,,0,0,0,0,0,0,0,0,,,,,,,,,,,,,,,,,,,,,,,,,,,,,,,,,,,,,,,,,,,,,,,,,,,,,,,,,,,,,,,,,,,,,,,,,,,,,,,,,,,,,,,,,,,,,,,,,12011,001,2024_Jun_17_0845,nback,2021.2.3,60.16260750105006,
1-back,instructions\back-1.png,conditions\1back-p.xlsx,instructions\1-BACK.png,"(25, 15)",practice,1,1,stim\yellow.png,stim\gray.png,stim\gray.png,stim\gray.png,None,0,0,0,0,0,1,1,1,0,0,0,0,,,,,,,,,,,,,,,,,49.573464599990984,None,space,2.6810609999811277,49.573464599990984,None,52.377923799998825,56.8858840999892,56.868161199992755,None,57.3030226000119,58.303845799993724,57.3030226000119,58.303845799993724,57.3030226000119,58.303845799993724,57.3030226000119,58.303845799993724,None,1,,57.3030226000119,None,57.3030226000119,None,57.3030226000119,57.80379730000277,57.3030226000119,57.80379730000277,57.3030226000119,57.80379730000277,57.3030226000119,57.80379730000277,57.3030226000119,None,,,,,,,,,,,,,,,,,,,,,,,,,,,,,,,,,,,,,,,,,,12011,001,2024_Jun_17_0845,nback,2021.2.3,60.16260750105006,
1-back,instructions\back-1.png,conditions\1back-p.xlsx,instructions\1-BACK.png,"(25, 15)",practice,1,2,stim\gray.png,stim\yellow.png,stim\gray.png,stim\gray.png,up,0,0,0,0,0,1,1,1,0,1,1,1,,,,,,,,,,,,,,,,,,,,,,,,,,,58.7876350999868,59.78914499998791,58.7876350999868,59.78914499998791,58.7876350999868,59.78914499998791,58.7876350999868,59.78914499998791,up,1,0.7561475999827962,58.7876350999868,None,58.7876350999868,None,58.7876350999868,59.28842040000018,58.7876350999868,59.28842040000018,58.7876350999868,59.28842040000018,58.7876350999868,59.28842040000018,58.7876350999868,None,,,,,,,,,,,,,,,,,,,,,,,,,,,,,,,,,,,,,,,,,,12011,001,2024_Jun_17_0845,nback,2021.2.3,60.16260750105006,
1-back,instructions\back-1.png,conditions\1back-p.xlsx,instructions\1-BACK.png,"(25, 15)",practice,1,3,stim\gray.png,stim\gray.png,stim\yellow.png,stim\gray.png,left,0,0,0,0,0,1,1,1,0,2,2,2,,,,,,,,,,,,,,,,,,,,,,,,,,,60.28973759998917,61.29152490000706,60.28973759998917,61.29152490000706,60.28973759998917,61.29152490000706,60.28973759998917,61.29152490000706,left,1,0.5501292000117246,60.28973759998917,None,60.28973759998917,None,60.28973759998917,60.79072889999952,60.28973759998917,60.79072889999952,60.28973759998917,60.79072889999952,60.28973759998917,60.79072889999952,60.28973759998917,None,,,,,,,,,,,,,,,,,,,,,,,,,,,,,,,,,,,,,,,,,,12011,001,2024_Jun_17_0845,nback,2021.2.3,60.16260750105006,
1-back,instructions\back-1.png,conditions\1back-p.xlsx,instructions\1-BACK.png,"(25, 15)",practice,1,4,stim\gray.png,stim\gray.png,stim\gray.png,stim\yellow.png,right,0,0,0,0,0,1,1,1,0,3,3,3,,,,,,,,,,,,,,,,,,,,,,,,,,,61.79215709998971,62.79342319999705,61.79215709998971,62.79342319999705,61.79215709998971,62.79342319999705,61.79215709998971,62.79342319999705,right,1,0.32740750000812113,61.79215709998971,None,61.79215709998971,None,61.79215709998971,62.29296570000588,61.79215709998971,62.29296570000588,61.79215709998971,62.29296570000588,61.79215709998971,62.29296570000588,61.79215709998971,None,,,,,,,,,,,,,,,,,,,,,,,,,,,,,,,,,,,,,,,,,,12011,001,2024_Jun_17_0845,nback,2021.2.3,60.16260750105006,
1-back,instructions\back-1.png,conditions\1back-p.xlsx,instructions\1-BACK.png,"(25, 15)",practice,1,2,stim\gray.png,stim\yellow.png,stim\gray.png,stim\gray.png,down,0,0,0,0,0,1,1,1,0,4,4,4,,,,,,,,,,,,,,,,,,,,,,,,,,,63.29446070000995,64.29585880000377,63.29446070000995,64.29585880000377,63.29446070000995,64.29585880000377,63.29446070000995,64.29585880000377,down,1,0.7533589999948163,63.29446070000995,None,63.29446070000995,None,63.29446070000995,63.795189099997515,63.29446070000995,63.795189099997515,63.29446070000995,63.795189099997515,63.29446070000995,63.795189099997515,63.29446070000995,None,,,,,,,,,,,,,,,,,,,,,,,,,,,,,,,,,,,,,,,,,,12011,001,2024_Jun_17_0845,nback,2021.2.3,60.16260750105006,
1-back,instructions\back-1.png,conditions\1back-p.xlsx,instructions\1-BACK.png,"(25, 15)",practice,1,1,stim\yellow.png,stim\gray.png,stim\gray.png,stim\gray.png,left,0,0,0,0,0,1,1,1,0,5,5,5,,,,,,,,,,,,,,,,,,,,,,,,,,,64.79668160001165,65.79818469999009,64.79668160001165,65.79818469999009,64.79668160001165,65.79818469999009,64.79668160001165,65.79818469999009,left,1,0.35480629999074154,64.79668160001165,None,64.79668160001165,None,64.79668160001165,65.29744900000514,64.79668160001165,65.29744900000514,64.79668160001165,65.29744900000514,64.79668160001165,65.29744900000514,64.79668160001165,None,,,,,,,,,,,,,,,,,,,,,,,,,,,,,,,,,,,,,,,,,,12011,001,2024_Jun_17_0845,nback,2021.2.3,60.16260750105006,
1-back,instructions\back-1.png,conditions\1back-p.xlsx,instructions\1-BACK.png,"(25, 15)",practice,1,4,stim\gray.png,stim\gray.png,stim\gray.png,stim\yellow.png,up,0,0,0,0,0,1,1,1,0,6,6,6,,,,,,,,,,,,,,,,,,,,,,,,,,,66.28207960000145,67.2853005999932,66.28207960000145,67.2853005999932,66.28207960000145,67.2853005999932,66.28207960000145,67.2853005999932,down,0,0.2296652999939397,66.28207960000145,None,66.28207960000145,None,66.28207960000145,66.7835267999908,66.28207960000145,66.7835267999908,66.28207960000145,66.7835267999908,66.28207960000145,66.7835267999908,66.28207960000145,None,,,,,,,,,,,,,,,,,,,,,,,,,,,,,,,,,,,,,,,,,,12011,001,2024_Jun_17_0845,nback,2021.2.3,60.16260750105006,
1-back,instructions\back-1.png,conditions\1back-p.xlsx,instructions\1-BACK.png,"(25, 15)",practice,1,3,stim\gray.png,stim\gray.png,stim\yellow.png,stim\gray.png,down,0,0,0,0,0,1,1,1,0,7,7,7,,,,,,,,,,,,,,,,,,,,,,,,,,,67.78457039999194,68.78637089999393,67.78457039999194,68.78637089999393,67.78457039999194,68.78637089999393,67.78457039999194,68.78637089999393,down,1,0.5029149000183679,67.78457039999194,None,67.78457039999194,None,67.78457039999194,68.28519769999548,67.78457039999194,68.28519769999548,67.78457039999194,68.28519769999548,67.78457039999194,68.28519769999548,67.78457039999194,None,,,,,,,,,,,,,,,,,,,,,,,,,,,,,,,,,,,,,,,,,,12011,001,2024_Jun_17_0845,nback,2021.2.3,60.16260750105006,
1-back,instructions\back-1.png,conditions\1back-p.xlsx,instructions\1-BACK.png,"(25, 15)",practice,1,3,stim\gray.png,stim\gray.png,stim\yellow.png,stim\gray.png,right,0,0,0,0,0,1,1,1,0,8,8,8,,,,,,,,,,,,,,,,,,,,,,,,,,,69.28690330000245,70.28926019999199,69.28690330000245,70.28926019999199,69.28690330000245,70.28926019999199,69.28690330000245,70.28926019999199,right,1,0.3049643999838736,69.28690330000245,None,69.28690330000245,None,69.28690330000245,69.78837319999002,69.28690330000245,69.78837319999002,69.28690330000245,69.78837319999002,69.28690330000245,69.78837319999002,69.28690330000245,None,,,,,,,,,,,,,,,,,,,,,,,,,,,,,,,,,,,,,,,,,,12011,001,2024_Jun_17_0845,nback,2021.2.3,60.16260750105006,
1-back,instructions\back-1.png,conditions\1back-p.xlsx,instructions\1-BACK.png,"(25, 15)",practice,1,4,stim\gray.png,stim\gray.png,stim\gray.png,stim\yellow.png,right,0,0,0,0,0,1,1,1,0,9,9,9,,,,,,,,,,,,,,,,,,,,,,,,,,,70.78909219999332,71.7911393000104,70.78909219999332,71.7911393000104,70.78909219999332,71.7911393000104,70.78909219999332,71.7911393000104,right,1,0.394764299999224,70.78909219999332,None,70.78909219999332,None,70.78909219999332,71.28984750001109,70.78909219999332,71.28984750001109,70.78909219999332,71.28984750001109,70.78909219999332,71.28984750001109,70.78909219999332,None,,,,,,,,,,,,,,,,,,,,,,,,,,,,,,,,,,,,,,,,,,12011,001,2024_Jun_17_0845,nback,2021.2.3,60.16260750105006,
1-back,instructions\back-1.png,conditions\1back-p.xlsx,instructions\1-BACK.png,"(25, 15)",practice,1,1,stim\yellow.png,stim\gray.png,stim\gray.png,stim\gray.png,down,0,0,0,0,0,1,1,1,0,10,10,10,,,,,,,,,,,,,,,,,,,,,,,,,,,72.2914221000101,73.29274730000179,72.2914221000101,73.29274730000179,72.2914221000101,73.29274730000179,72.2914221000101,73.29274730000179,down,1,0.3010638999985531,72.2914221000101,None,72.2914221000101,None,72.2914221000101,72.79205349998665,72.2914221000101,72.79205349998665,72.2914221000101,72.79205349998665,72.2914221000101,72.79205349998665,72.2914221000101,None,,,,,,,,,,,,,,,,,,,,,,,,,,,,,,,,,,,,,,,,,,12011,001,2024_Jun_17_0845,nback,2021.2.3,60.16260750105006,
1-back,instructions\back-1.png,conditions\1back-p.xlsx,instructions\1-BACK.png,"(25, 15)",practice,1,2,stim\gray.png,stim\yellow.png,stim\gray.png,stim\gray.png,up,0,0,0,0,0,1,1,1,0,11,11,11,,,,,,,,,,,,,,,,,,,,,,,,,,,73.79348100000061,74.7950955000124,73.79348100000061,74.7950955000124,73.79348100000061,74.7950955000124,73.79348100000061,74.7950955000124,up,1,0.35086790000787005,73.79348100000061,None,73.79348100000061,None,73.79348100000061,74.29439250001451,73.79348100000061,74.29439250001451,73.79348100000061,74.29439250001451,73.79348100000061,74.29439250001451,73.79348100000061,None,,,,,,,,,,,,,,,,,,,,,,,,,,,,,,,,,,,,,,,,,,12011,001,2024_Jun_17_0845,nback,2021.2.3,60.16260750105006,
1-back,instructions\back-1.png,conditions\1back-p.xlsx,instructions\1-BACK.png,"(25, 15)",practice,1,4,stim\gray.png,stim\gray.png,stim\gray.png,stim\yellow.png,left,0,0,0,0,0,1,1,1,0,12,12,12,,,,,,,,,,,,,,,,,,,,,,,,,,,75.29573330000858,76.29730969999218,75.29573330000858,76.29730969999218,75.29573330000858,76.29730969999218,75.29573330000858,76.29730969999218,left,1,0.25603180000325665,75.29573330000858,None,75.29573330000858,None,75.29573330000858,75.79656469999463,75.29573330000858,75.79656469999463,75.29573330000858,75.79656469999463,75.29573330000858,75.79656469999463,75.29573330000858,None,,,,,,,,,,,,,,,,,,,,,,,,,,,,,,,,,,,,,,,,,,12011,001,2024_Jun_17_0845,nback,2021.2.3,60.16260750105006,
1-back,instructions\back-1.png,conditions\1back-p.xlsx,instructions\1-BACK.png,"(25, 15)",practice,1,3,stim\gray.png,stim\gray.png,stim\yellow.png,stim\gray.png,down,0,0,0,0,0,1,1,1,0,13,13,13,,,,,,,,,,,,,,,,,,,,,,,,,,,76.78135199999087,77.78312090001418,76.78135199999087,77.78312090001418,76.78135199999087,77.78312090001418,76.78135199999087,77.78312090001418,down,1,0.27473159998771735,76.78135199999087,None,76.78135199999087,None,76.78135199999087,77.2819896999863,76.78135199999087,77.2819896999863,76.78135199999087,77.2819896999863,76.78135199999087,77.2819896999863,76.78135199999087,None,,,,,,,,,,,,,,,,,,,,,,,,,,,,,,,,,,,,,,,,,,12011,001,2024_Jun_17_0845,nback,2021.2.3,60.16260750105006,
1-back,instructions\back-1.png,conditions\1back-p.xlsx,instructions\1-BACK.png,"(25, 15)",practice,1,1,stim\yellow.png,stim\gray.png,stim\gray.png,stim\gray.png,right,0,0,0,0,0,1,1,1,0,14,14,14,,,,,,,,,,,,,,,,,,,,,,,,,,,78.28368510000291,79.2852625999949,78.28368510000291,79.2852625999949,78.28368510000291,79.2852625999949,78.28368510000291,79.2852625999949,right,1,0.2844524999964051,78.28368510000291,None,78.28368510000291,None,78.28368510000291,78.78427689999808,78.28368510000291,78.78427689999808,78.28368510000291,78.78427689999808,78.28368510000291,78.78427689999808,78.28368510000291,None,,,,,,,,,,,,,,,,,,,,,,,,,,,,,,,,,,,,,,,,,,12011,001,2024_Jun_17_0845,nback,2021.2.3,60.16260750105006,
1-back,instructions\back-1.png,conditions\1back-p.xlsx,instructions\1-BACK.png,"(25, 15)",practice,1,2,stim\gray.png,stim\yellow.png,stim\gray.png,stim\gray.png,up,0,0,0,0,0,1,1,1,0,15,15,15,,,,,,,,,,,,,,,,,,,,,,,,,,,79.7863182000001,80.78760350000812,79.7863182000001,80.78760350000812,79.7863182000001,80.78760350000812,79.7863182000001,80.78760350000812,up,1,0.246019799989881,79.7863182000001,None,79.7863182000001,None,79.7863182000001,80.2866107999871,79.7863182000001,80.2866107999871,79.7863182000001,80.2866107999871,79.7863182000001,80.2866107999871,79.7863182000001,None,,,,,,,,,,,,,,,,,,,,,,,,,,,,,,,,,,,,,,,,,,12011,001,2024_Jun_17_0845,nback,2021.2.3,60.16260750105006,
1-back,instructions\back-1.png,conditions\1back-p.xlsx,instructions\1-BACK.png,"(25, 15)",practice,1,3,stim\gray.png,stim\gray.png,stim\yellow.png,stim\gray.png,left,0,0,0,0,0,1,1,1,0,16,16,16,,,,,,,,,,,,,,,,,,,,,,,,,,,81.28825479999068,82.28974440001184,81.28825479999068,82.28974440001184,81.28825479999068,82.28974440001184,81.28825479999068,82.28974440001184,left,1,0.295773600024404,81.28825479999068,None,81.28825479999068,None,81.28825479999068,81.78887940000277,81.28825479999068,81.78887940000277,81.28825479999068,81.78887940000277,81.28825479999068,81.78887940000277,81.28825479999068,None,,,,,,,,,,,,,,,,,,,,,,,,,,,,,,,,,,,,,,,,,,12011,001,2024_Jun_17_0845,nback,2021.2.3,60.16260750105006,
1-back,instructions\back-1.png,conditions\1back-p.xlsx,instructions\1-BACK.png,"(25, 15)",practice,1,1,stim\yellow.png,stim\gray.png,stim\gray.png,stim\gray.png,right,0,0,0,0,0,1,1,1,0,17,17,17,,,,,,,,,,,,,,,,,,,,,,,,,,,82.79041919999872,83.79194679998909,82.79041919999872,83.79194679998909,82.79041919999872,83.79194679998909,82.79041919999872,83.79194679998909,right,1,0.2896797999856062,82.79041919999872,None,82.79041919999872,None,82.79041919999872,83.291701500013,82.79041919999872,83.291701500013,82.79041919999872,83.291701500013,82.79041919999872,83.291701500013,82.79041919999872,None,,,,,,,,,,,,,,,,,,,,,,,,,,,,,,,,,,,,,,,,,,12011,001,2024_Jun_17_0845,nback,2021.2.3,60.16260750105006,
1-back,instructions\back-1.png,conditions\1back-p.xlsx,instructions\1-BACK.png,"(25, 15)",practice,1,4,stim\gray.png,stim\gray.png,stim\gray.png,stim\yellow.png,up,0,0,0,0,0,1,1,1,0,18,18,18,,,,,,,,,,,,,,,,,,,,,,,,,,,84.2940685999929,85.29480319999857,84.2940685999929,85.29480319999857,84.2940685999929,85.29480319999857,84.2940685999929,85.29480319999857,up,1,0.29845709999790415,84.2940685999929,None,84.2940685999929,None,84.2940685999929,84.79349569999613,84.2940685999929,84.79349569999613,84.2940685999929,84.79349569999613,84.2940685999929,84.79349569999613,84.2940685999929,None,,,,,,,,,,,,,,,,,,,,,,,,,,,,,,,,,,,,,,,,,,12011,001,2024_Jun_17_0845,nback,2021.2.3,60.16260750105006,
1-back,instructions\back-1.png,conditions\1back-p.xlsx,instructions\1-BACK.png,"(25, 15)",practice,1,2,stim\gray.png,stim\yellow.png,stim\gray.png,stim\gray.png,down,0,0,0,0,0,1,1,1,0,19,19,19,,,,,,,,,,,,,,,,,,,,,,,,,,,85.79487569999765,86.796706299996,85.79487569999765,86.796706299996,85.79487569999765,86.796706299996,85.79487569999765,86.796706299996,right,0,0.39742319998913445,85.79487569999765,None,85.79487569999765,None,85.79487569999765,86.29577060000156,85.79487569999765,86.29577060000156,85.79487569999765,86.29577060000156,85.79487569999765,86.29577060000156,85.79487569999765,None,,,,,,,,,,,,,,,,,,,,,,,,,,,,,,,,,,,,,,,,,,12011,001,2024_Jun_17_0845,nback,2021.2.3,60.16260750105006,
1-back,instructions\back-1.png,conditions\1back-p.xlsx,instructions\1-BACK.png,"(25, 15)",,,,,,,,,0,0,0,0,0,1,1,1,,,,,,,,,,,,,,,,,,,,,,,,,,,,,,,,,,,,,,,,,,,,,,,,,,,,,,,,,,,,,,,,,,,,,,,,,,,,,,,,,,,,,,,,,,,,,,,,,12011,001,2024_Jun_17_0845,nback,2021.2.3,60.16260750105006,
2-back,instructions\back-2.png,conditions\2back-p.xlsx,instructions\2-BACK.png,"(25, 15)",practice,2,1,stim\yellow.png,stim\gray.png,stim\gray.png,stim\gray.png,None,0,0,0,0,0,2,2,2,0,0,0,0,,,,,,,,,,,,,,,,,87.41495189999114,None,space,1.9052553000219632,87.41495189999114,None,89.46701739999116,93.9751025000005,93.94077670000843,None,94.375028200011,95.37618250001105,94.375028200011,95.37618250001105,94.375028200011,95.37618250001105,94.375028200011,95.37618250001105,None,1,,94.375028200011,None,94.375028200011,None,94.375028200011,94.875294700003,94.375028200011,94.875294700003,94.375028200011,94.875294700003,94.375028200011,94.875294700003,94.375028200011,None,,,,,,,,,,,,,,,,,,,,,,,,,,,,,,,,,,,,,,,,,,12011,001,2024_Jun_17_0845,nback,2021.2.3,60.16260750105006,
2-back,instructions\back-2.png,conditions\2back-p.xlsx,instructions\2-BACK.png,"(25, 15)",practice,2,2,stim\gray.png,stim\yellow.png,stim\gray.png,stim\gray.png,None,0,0,0,0,0,2,2,2,0,1,1,1,,,,,,,,,,,,,,,,,,,,,,,,,,,95.86007659998722,96.86180710000917,95.86007659998722,96.86180710000917,95.86007659998722,96.86180710000917,95.86007659998722,96.86180710000917,None,1,,95.86007659998722,None,95.86007659998722,None,95.86007659998722,96.36086730001261,95.86007659998722,96.36086730001261,95.86007659998722,96.36086730001261,95.86007659998722,96.36086730001261,95.86007659998722,None,,,,,,,,,,,,,,,,,,,,,,,,,,,,,,,,,,,,,,,,,,12011,001,2024_Jun_17_0845,nback,2021.2.3,60.16260750105006,
2-back,instructions\back-2.png,conditions\2back-p.xlsx,instructions\2-BACK.png,"(25, 15)",practice,2,3,stim\gray.png,stim\gray.png,stim\yellow.png,stim\gray.png,up,0,0,0,0,0,2,2,2,0,2,2,2,,,,,,,,,,,,,,,,,,,,,,,,,,,97.362524199998,98.36490230000345,97.362524199998,98.36490230000345,97.362524199998,98.36490230000345,97.362524199998,98.36490230000345,up,1,0.35044249999918975,97.362524199998,None,97.362524199998,None,97.362524199998,97.86318859999301,97.362524199998,97.86318859999301,97.362524199998,97.86318859999301,97.362524199998,97.86318859999301,97.362524199998,None,,,,,,,,,,,,,,,,,,,,,,,,,,,,,,,,,,,,,,,,,,12011,001,2024_Jun_17_0845,nback,2021.2.3,60.16260750105006,
2-back,instructions\back-2.png,conditions\2back-p.xlsx,instructions\2-BACK.png,"(25, 15)",practice,2,4,stim\gray.png,stim\gray.png,stim\gray.png,stim\yellow.png,left,0,0,0,0,0,2,2,2,0,3,3,3,,,,,,,,,,,,,,,,,,,,,,,,,,,98.86470880001434,99.86720800001058,98.86470880001434,99.86720800001058,98.86470880001434,99.86720800001058,98.86470880001434,99.86720800001058,left,1,0.30421810000552796,98.86470880001434,None,98.86470880001434,None,98.86470880001434,99.36546259999159,98.86470880001434,99.36546259999159,98.86470880001434,99.36546259999159,98.86470880001434,99.36546259999159,98.86470880001434,None,,,,,,,,,,,,,,,,,,,,,,,,,,,,,,,,,,,,,,,,,,12011,001,2024_Jun_17_0845,nback,2021.2.3,60.16260750105006,
2-back,instructions\back-2.png,conditions\2back-p.xlsx,instructions\2-BACK.png,"(25, 15)",practice,2,2,stim\gray.png,stim\yellow.png,stim\gray.png,stim\gray.png,right,0,0,0,0,0,2,2,2,0,4,4,4,,,,,,,,,,,,,,,,,,,,,,,,,,,100.36699420001241,101.36965350000537,100.36699420001241,101.36965350000537,100.36699420001241,101.36965350000537,100.36699420001241,101.36965350000537,right,1,0.2496308000118006,100.36699420001241,None,100.36699420001241,None,100.36699420001241,100.86840129998745,100.36699420001241,100.86840129998745,100.36699420001241,100.86840129998745,100.36699420001241,100.86840129998745,100.36699420001241,None,,,,,,,,,,,,,,,,,,,,,,,,,,,,,,,,,,,,,,,,,,12011,001,2024_Jun_17_0845,nback,2021.2.3,60.16260750105006,
2-back,instructions\back-2.png,conditions\2back-p.xlsx,instructions\2-BACK.png,"(25, 15)",practice,2,1,stim\yellow.png,stim\gray.png,stim\gray.png,stim\gray.png,down,0,0,0,0,0,2,2,2,0,5,5,5,,,,,,,,,,,,,,,,,,,,,,,,,,,101.86911180001334,102.87074119999306,101.86911180001334,102.87074119999306,101.86911180001334,102.87074119999306,101.86911180001334,102.87074119999306,down,1,0.2353863000171259,101.86911180001334,None,101.86911180001334,None,101.86911180001334,102.37001029998646,101.86911180001334,102.37001029998646,101.86911180001334,102.37001029998646,101.86911180001334,102.37001029998646,101.86911180001334,None,,,,,,,,,,,,,,,,,,,,,,,,,,,,,,,,,,,,,,,,,,12011,001,2024_Jun_17_0845,nback,2021.2.3,60.16260750105006,
2-back,instructions\back-2.png,conditions\2back-p.xlsx,instructions\2-BACK.png,"(25, 15)",practice,2,4,stim\gray.png,stim\gray.png,stim\gray.png,stim\yellow.png,left,0,0,0,0,0,2,2,2,0,6,6,6,,,,,,,,,,,,,,,,,,,,,,,,,,,103.35478620001231,104.35629580001114,103.35478620001231,104.35629580001114,103.35478620001231,104.35629580001114,103.35478620001231,104.35629580001114,left,1,0.22179479998885654,103.35478620001231,None,103.35478620001231,None,103.35478620001231,103.85574880000786,103.35478620001231,103.85574880000786,103.35478620001231,103.85574880000786,103.35478620001231,103.85574880000786,103.35478620001231,None,,,,,,,,,,,,,,,,,,,,,,,,,,,,,,,,,,,,,,,,,,12011,001,2024_Jun_17_0845,nback,2021.2.3,60.16260750105006,
2-back,instructions\back-2.png,conditions\2back-p.xlsx,instructions\2-BACK.png,"(25, 15)",practice,2,3,stim\gray.png,stim\gray.png,stim\yellow.png,stim\gray.png,up,0,0,0,0,0,2,2,2,0,7,7,7,,,,,,,,,,,,,,,,,,,,,,,,,,,104.85711690000608,105.85860690000118,104.85711690000608,105.85860690000118,104.85711690000608,105.85860690000118,104.85711690000608,105.85860690000118,up,1,0.21634389998507686,104.85711690000608,None,104.85711690000608,None,104.85711690000608,105.3577038999938,104.85711690000608,105.3577038999938,104.85711690000608,105.3577038999938,104.85711690000608,105.3577038999938,104.85711690000608,None,,,,,,,,,,,,,,,,,,,,,,,,,,,,,,,,,,,,,,,,,,12011,001,2024_Jun_17_0845,nback,2021.2.3,60.16260750105006,
2-back,instructions\back-2.png,conditions\2back-p.xlsx,instructions\2-BACK.png,"(25, 15)",practice,2,3,stim\gray.png,stim\gray.png,stim\yellow.png,stim\gray.png,down,0,0,0,0,0,2,2,2,0,8,8,8,,,,,,,,,,,,,,,,,,,,,,,,,,,106.35918319999473,107.36167439998826,106.35918319999473,107.36167439998826,106.35918319999473,107.36167439998826,106.35918319999473,107.36167439998826,down,1,0.1774260999809485,106.35918319999473,None,106.35918319999473,None,106.35918319999473,106.8600657999923,106.35918319999473,106.8600657999923,106.35918319999473,106.8600657999923,106.35918319999473,106.8600657999923,106.35918319999473,None,,,,,,,,,,,,,,,,,,,,,,,,,,,,,,,,,,,,,,,,,,12011,001,2024_Jun_17_0845,nback,2021.2.3,60.16260750105006,
2-back,instructions\back-2.png,conditions\2back-p.xlsx,instructions\2-BACK.png,"(25, 15)",practice,2,4,stim\gray.png,stim\gray.png,stim\gray.png,stim\yellow.png,right,0,0,0,0,0,2,2,2,0,9,9,9,,,,,,,,,,,,,,,,,,,,,,,,,,,107.8615359000105,108.86392380000325,107.8615359000105,108.86392380000325,107.8615359000105,108.86392380000325,107.8615359000105,108.86392380000325,right,1,0.17934329999843612,107.8615359000105,None,107.8615359000105,None,107.8615359000105,108.36227800001507,107.8615359000105,108.36227800001507,107.8615359000105,108.36227800001507,107.8615359000105,108.36227800001507,107.8615359000105,None,,,,,,,,,,,,,,,,,,,,,,,,,,,,,,,,,,,,,,,,,,12011,001,2024_Jun_17_0845,nback,2021.2.3,60.16260750105006,
2-back,instructions\back-2.png,conditions\2back-p.xlsx,instructions\2-BACK.png,"(25, 15)",practice,2,1,stim\yellow.png,stim\gray.png,stim\gray.png,stim\gray.png,right,0,0,0,0,0,2,2,2,0,10,10,10,,,,,,,,,,,,,,,,,,,,,,,,,,,109.3647828999965,110.36594970000442,109.3647828999965,110.36594970000442,109.3647828999965,110.36594970000442,109.3647828999965,110.36594970000442,right,1,0.26011799997650087,109.3647828999965,None,109.3647828999965,None,109.3647828999965,109.86502200001269,109.3647828999965,109.86502200001269,109.3647828999965,109.86502200001269,109.3647828999965,109.86502200001269,109.3647828999965,None,,,,,,,,,,,,,,,,,,,,,,,,,,,,,,,,,,,,,,,,,,12011,001,2024_Jun_17_0845,nback,2021.2.3,60.16260750105006,
2-back,instructions\back-2.png,conditions\2back-p.xlsx,instructions\2-BACK.png,"(25, 15)",practice,2,2,stim\gray.png,stim\yellow.png,stim\gray.png,stim\gray.png,down,0,0,0,0,0,2,2,2,0,11,11,11,,,,,,,,,,,,,,,,,,,,,,,,,,,110.86606259999098,111.8677166000125,110.86606259999098,111.8677166000125,110.86606259999098,111.8677166000125,110.86606259999098,111.8677166000125,down,1,0.06306740001309663,110.86606259999098,None,110.86606259999098,None,110.86606259999098,111.36673430001247,110.86606259999098,111.36673430001247,110.86606259999098,111.36673430001247,110.86606259999098,111.36673430001247,110.86606259999098,None,,,,,,,,,,,,,,,,,,,,,,,,,,,,,,,,,,,,,,,,,,12011,001,2024_Jun_17_0845,nback,2021.2.3,60.16260750105006,
2-back,instructions\back-2.png,conditions\2back-p.xlsx,instructions\2-BACK.png,"(25, 15)",practice,2,4,stim\gray.png,stim\gray.png,stim\gray.png,stim\yellow.png,up,0,0,0,0,0,2,2,2,0,12,12,12,,,,,,,,,,,,,,,,,,,,,,,,,,,112.36842959999922,113.3699198999966,112.36842959999922,113.3699198999966,112.36842959999922,113.3699198999966,112.36842959999922,113.3699198999966,up,1,0.19244549999712035,112.36842959999922,None,112.36842959999922,None,112.36842959999922,112.86903629999142,112.36842959999922,112.86903629999142,112.36842959999922,112.86903629999142,112.36842959999922,112.86903629999142,112.36842959999922,None,,,,,,,,,,,,,,,,,,,,,,,,,,,,,,,,,,,,,,,,,,12011,001,2024_Jun_17_0845,nback,2021.2.3,60.16260750105006,
2-back,instructions\back-2.png,conditions\2back-p.xlsx,instructions\2-BACK.png,"(25, 15)",practice,2,3,stim\gray.png,stim\gray.png,stim\yellow.png,stim\gray.png,left,0,0,0,0,0,2,2,2,0,13,13,13,,,,,,,,,,,,,,,,,,,,,,,,,,,113.85385720001068,114.85678910001297,113.85385720001068,114.85678910001297,113.85385720001068,114.85678910001297,113.85385720001068,114.85678910001297,left,1,0.21905129999504425,113.85385720001068,None,113.85385720001068,None,113.85385720001068,114.3547063000151,113.85385720001068,114.3547063000151,113.85385720001068,114.3547063000151,113.85385720001068,114.3547063000151,113.85385720001068,None,,,,,,,,,,,,,,,,,,,,,,,,,,,,,,,,,,,,,,,,,,12011,001,2024_Jun_17_0845,nback,2021.2.3,60.16260750105006,
2-back,instructions\back-2.png,conditions\2back-p.xlsx,instructions\2-BACK.png,"(25, 15)",practice,2,1,stim\yellow.png,stim\gray.png,stim\gray.png,stim\gray.png,down,0,0,0,0,0,2,2,2,0,14,14,14,,,,,,,,,,,,,,,,,,,,,,,,,,,115.35652130001108,116.35749409999698,115.35652130001108,116.35749409999698,115.35652130001108,116.35749409999698,115.35652130001108,116.35749409999698,down,1,0.10034099998301826,115.35652130001108,None,115.35652130001108,None,115.35652130001108,115.85765829999582,115.35652130001108,115.85765829999582,115.35652130001108,115.85765829999582,115.35652130001108,115.85765829999582,115.35652130001108,None,,,,,,,,,,,,,,,,,,,,,,,,,,,,,,,,,,,,,,,,,,12011,001,2024_Jun_17_0845,nback,2021.2.3,60.16260750105006,
2-back,instructions\back-2.png,conditions\2back-p.xlsx,instructions\2-BACK.png,"(25, 15)",practice,2,2,stim\gray.png,stim\yellow.png,stim\gray.png,stim\gray.png,right,0,0,0,0,0,2,2,2,0,15,15,15,,,,,,,,,,,,,,,,,,,,,,,,,,,116.85844129999168,117.86019870001473,116.85844129999168,117.86019870001473,116.85844129999168,117.86019870001473,116.85844129999168,117.86019870001473,right,1,0.13444259998505004,116.85844129999168,None,116.85844129999168,None,116.85844129999168,117.35923959998763,116.85844129999168,117.35923959998763,116.85844129999168,117.35923959998763,116.85844129999168,117.35923959998763,116.85844129999168,None,,,,,,,,,,,,,,,,,,,,,,,,,,,,,,,,,,,,,,,,,,12011,001,2024_Jun_17_0845,nback,2021.2.3,60.16260750105006,
2-back,instructions\back-2.png,conditions\2back-p.xlsx,instructions\2-BACK.png,"(25, 15)",practice,2,3,stim\gray.png,stim\gray.png,stim\yellow.png,stim\gray.png,up,0,0,0,0,0,2,2,2,0,16,16,16,,,,,,,,,,,,,,,,,,,,,,,,,,,118.36086990000331,119.36297740001464,118.36086990000331,119.36297740001464,118.36086990000331,119.36297740001464,118.36086990000331,119.36297740001464,up,1,0.176190600002883,118.36086990000331,None,118.36086990000331,None,118.36086990000331,118.86151849999442,118.36086990000331,118.86151849999442,118.36086990000331,118.86151849999442,118.36086990000331,118.86151849999442,118.36086990000331,None,,,,,,,,,,,,,,,,,,,,,,,,,,,,,,,,,,,,,,,,,,12011,001,2024_Jun_17_0845,nback,2021.2.3,60.16260750105006,
2-back,instructions\back-2.png,conditions\2back-p.xlsx,instructions\2-BACK.png,"(25, 15)",practice,2,1,stim\yellow.png,stim\gray.png,stim\gray.png,stim\gray.png,left,0,0,0,0,0,2,2,2,0,17,17,17,,,,,,,,,,,,,,,,,,,,,,,,,,,119.86292409998714,120.86471739999251,119.86292409998714,120.86471739999251,119.86292409998714,120.86471739999251,119.86292409998714,120.86471739999251,left,1,0.19422529998701066,119.86292409998714,None,119.86292409998714,None,119.86292409998714,120.36395080000511,119.86292409998714,120.36395080000511,119.86292409998714,120.36395080000511,119.86292409998714,120.36395080000511,119.86292409998714,None,,,,,,,,,,,,,,,,,,,,,,,,,,,,,,,,,,,,,,,,,,12011,001,2024_Jun_17_0845,nback,2021.2.3,60.16260750105006,
2-back,instructions\back-2.png,conditions\2back-p.xlsx,instructions\2-BACK.png,"(25, 15)",practice,2,4,stim\gray.png,stim\gray.png,stim\gray.png,stim\yellow.png,right,0,0,0,0,0,2,2,2,0,18,18,18,,,,,,,,,,,,,,,,,,,,,,,,,,,121.36517490001279,122.3679298000061,121.36517490001279,122.3679298000061,121.36517490001279,122.3679298000061,121.36517490001279,122.3679298000061,right,1,0.21997730000293814,121.36517490001279,None,121.36517490001279,None,121.36517490001279,121.86604500000249,121.36517490001279,121.86604500000249,121.36517490001279,121.86604500000249,121.36517490001279,121.86604500000249,121.36517490001279,None,,,,,,,,,,,,,,,,,,,,,,,,,,,,,,,,,,,,,,,,,,12011,001,2024_Jun_17_0845,nback,2021.2.3,60.16260750105006,
2-back,instructions\back-2.png,conditions\2back-p.xlsx,instructions\2-BACK.png,"(25, 15)",practice,2,2,stim\gray.png,stim\yellow.png,stim\gray.png,stim\gray.png,up,0,0,0,0,0,2,2,2,0,19,19,19,,,,,,,,,,,,,,,,,,,,,,,,,,,122.86762309999904,123.86904150000191,122.86762309999904,123.86904150000191,122.86762309999904,123.86904150000191,122.86762309999904,123.86904150000191,up,1,0.1755680000060238,122.86762309999904,None,122.86762309999904,None,122.86762309999904,123.36822800000664,122.86762309999904,123.36822800000664,122.86762309999904,123.36822800000664,122.86762309999904,123.36822800000664,122.86762309999904,None,,,,,,,,,,,,,,,,,,,,,,,,,,,,,,,,,,,,,,,,,,12011,001,2024_Jun_17_0845,nback,2021.2.3,60.16260750105006,
2-back,instructions\back-2.png,conditions\2back-p.xlsx,instructions\2-BACK.png,"(25, 15)",,,,,,,,,0,0,0,0,0,2,2,2,,,,,,,,,,,,,,,,,,,,,,,,,,,,,,,,,,,,,,,,,,,,,,,,,,,,,,,,,,,,,,,,,,,,,,,,,,,,,,,,,,,,,,,,,,,,,,,,,12011,001,2024_Jun_17_0845,nback,2021.2.3,60.16260750105006,
,,,,,,,,,,,,,0,0,0,0,,,,,,,,,,,,,,,,,,,,,,,,,,,,,,,,,,,,,,,,,,,,,,,,,,,,,,,,,,,,124.3699431999994,None,space,18.0555990000139,124.3699431999994,None,,,,,,,,,,,,,,,,,,,,,,,,,,,,,,,,,,,,12011,001,2024_Jun_17_0845,nback,2021.2.3,60.16260750105006,
,,,,,,,,,,,,,,,,,,,,,,,,,,,,,,,,,,,,,,,,,,,,,,,,,,,,,,,,,,,,,,,,,,,,,,,,,,,,,,,,,,142.44693229999393,None,space,9.666832199989585,142.44693229999393,None,,,,,,,,,,,,,,,,,,,,,,,,,,,,,,12011,001,2024_Jun_17_0845,nback,2021.2.3,60.16260750105006,
1-back,instructions\back-1.png,conditions\11back-e.xlsx,,,experiment,1,3,stim\gray.png,stim\gray.png,stim\yellow.png,stim\gray.png,None,,,,,,,,,,,,,0,0,0,5,0,0,0,0,,,,,,,,,,,,,,,152.2787939000118,156.78550609998638,156.73606080000172,None,,,,,,,,,,,,,,,,,,,,,,,,,,,,,,,,,,,,,,None,1,157.16993460000958,None,157.16993460000958,None,157.16993460000958,158.1709022000141,157.16993460000958,158.1709022000141,157.16993460000958,158.1709022000141,157.16993460000958,158.1709022000141,157.16993460000958,157.6699573000078,157.16993460000958,157.6699573000078,157.16993460000958,157.6699573000078,157.16993460000958,157.6699573000078,157.16993460000958,None,,,,,,12011,001,2024_Jun_17_0845,nback,2021.2.3,60.16260750105006,
1-back,instructions\back-1.png,conditions\11back-e.xlsx,,,experiment,1,1,stim\yellow.png,stim\gray.png,stim\gray.png,stim\gray.png,right,,,,,,,,,,,,,0,0,0,5,0,1,1,1,,,,,,,,,,,,,,,,,,,,,,,,,,,,,,,,,,,,,,,,,,,,,,,,,,,,,,,,right,1,158.6549132000073,None,158.6549132000073,None,158.6549132000073,159.65615550000803,158.6549132000073,159.65615550000803,158.6549132000073,159.65615550000803,158.6549132000073,159.65615550000803,158.6549132000073,159.15583179998794,158.6549132000073,159.15583179998794,158.6549132000073,159.15583179998794,158.6549132000073,159.15583179998794,158.6549132000073,None,0.3315639999927953,,,,,12011,001,2024_Jun_17_0845,nback,2021.2.3,60.16260750105006,
1-back,instructions\back-1.png,conditions\11back-e.xlsx,,,experiment,1,4,stim\gray.png,stim\gray.png,stim\gray.png,stim\yellow.png,up,,,,,,,,,,,,,0,0,0,5,0,2,2,2,,,,,,,,,,,,,,,,,,,,,,,,,,,,,,,,,,,,,,,,,,,,,,,,,,,,,,,,up,1,160.15716709999833,None,160.15716709999833,None,160.15716709999833,161.15861159999622,160.15716709999833,161.15861159999622,160.15716709999833,161.15861159999622,160.15716709999833,161.15861159999622,160.15716709999833,160.65781820000848,160.15716709999833,160.65781820000848,160.15716709999833,160.65781820000848,160.15716709999833,160.65781820000848,160.15716709999833,None,0.32580600000801496,,,,,12011,001,2024_Jun_17_0845,nback,2021.2.3,60.16260750105006,
1-back,instructions\back-1.png,conditions\11back-e.xlsx,,,experiment,1,2,stim\gray.png,stim\yellow.png,stim\gray.png,stim\gray.png,down,,,,,,,,,,,,,0,0,0,5,0,3,3,3,,,,,,,,,,,,,,,,,,,,,,,,,,,,,,,,,,,,,,,,,,,,,,,,,,,,,,,,None,0,161.65927209999063,None,161.65927209999063,None,161.65927209999063,162.66094390000217,161.65927209999063,162.66094390000217,161.65927209999063,162.66094390000217,161.65927209999063,162.66094390000217,161.65927209999063,162.16113130000303,161.65927209999063,162.16113130000303,161.65927209999063,162.16113130000303,161.65927209999063,162.16113130000303,161.65927209999063,None,,,,,,12011,001,2024_Jun_17_0845,nback,2021.2.3,60.16260750105006,
1-back,instructions\back-1.png,conditions\11back-e.xlsx,,,experiment,1,1,stim\yellow.png,stim\gray.png,stim\gray.png,stim\gray.png,left,,,,,,,,,,,,,0,0,0,5,0,4,4,4,,,,,,,,,,,,,,,,,,,,,,,,,,,,,,,,,,,,,,,,,,,,,,,,,,,,,,,,left,1,163.1617186999938,None,163.1617186999938,None,163.1617186999938,164.1632413000043,163.1617186999938,164.1632413000043,163.1617186999938,164.1632413000043,163.1617186999938,164.1632413000043,163.1617186999938,163.66235739999684,163.1617186999938,163.66235739999684,163.1617186999938,163.66235739999684,163.1617186999938,163.66235739999684,163.1617186999938,None,0.2573236000025645,,,,,12011,001,2024_Jun_17_0845,nback,2021.2.3,60.16260750105006,
1-back,instructions\back-1.png,conditions\11back-e.xlsx,,,experiment,1,2,stim\gray.png,stim\yellow.png,stim\gray.png,stim\gray.png,up,,,,,,,,,,,,,0,0,0,5,0,5,5,5,,,,,,,,,,,,,,,,,,,,,,,,,,,,,,,,,,,,,,,,,,,,,,,,,,,,,,,,up,1,164.64721779999672,None,164.64721779999672,None,164.64721779999672,165.64871310000308,164.64721779999672,165.64871310000308,164.64721779999672,165.64871310000308,164.64721779999672,165.64871310000308,164.64721779999672,165.14835609999136,164.64721779999672,165.14835609999136,164.64721779999672,165.14835609999136,164.64721779999672,165.14835609999136,164.64721779999672,None,0.27520030000596307,,,,,12011,001,2024_Jun_17_0845,nback,2021.2.3,60.16260750105006,
1-back,instructions\back-1.png,conditions\11back-e.xlsx,,,experiment,1,3,stim\gray.png,stim\gray.png,stim\yellow.png,stim\gray.png,left,,,,,,,,,,,,,0,0,0,5,0,6,6,6,,,,,,,,,,,,,,,,,,,,,,,,,,,,,,,,,,,,,,,,,,,,,,,,,,,,,,,,left,1,166.14983040001243,None,166.14983040001243,None,166.14983040001243,167.15060170000652,166.14983040001243,167.15060170000652,166.14983040001243,167.15060170000652,166.14983040001243,167.15060170000652,166.14983040001243,166.65012320000096,166.14983040001243,166.65012320000096,166.14983040001243,166.65012320000096,166.14983040001243,166.65012320000096,166.14983040001243,None,0.276638900017133,,,,,12011,001,2024_Jun_17_0845,nback,2021.2.3,60.16260750105006,
1-back,instructions\back-1.png,conditions\11back-e.xlsx,,,experiment,1,4,stim\gray.png,stim\gray.png,stim\gray.png,stim\yellow.png,right,,,,,,,,,,,,,0,0,0,5,0,7,7,7,,,,,,,,,,,,,,,,,,,,,,,,,,,,,,,,,,,,,,,,,,,,,,,,,,,,,,,,right,1,167.6518420999928,None,167.6518420999928,None,167.6518420999928,168.6535695999919,167.6518420999928,168.6535695999919,167.6518420999928,168.6535695999919,167.6518420999928,168.6535695999919,167.6518420999928,168.15255060000345,167.6518420999928,168.15255060000345,167.6518420999928,168.15255060000345,167.6518420999928,168.15255060000345,167.6518420999928,None,0.29453530002501793,,,,,12011,001,2024_Jun_17_0845,nback,2021.2.3,60.16260750105006,
1-back,instructions\back-1.png,conditions\11back-e.xlsx,,,experiment,1,4,stim\gray.png,stim\gray.png,stim\gray.png,stim\yellow.png,down,,,,,,,,,,,,,0,0,0,5,0,8,8,8,,,,,,,,,,,,,,,,,,,,,,,,,,,,,,,,,,,,,,,,,,,,,,,,,,,,,,,,down,1,169.1538150999986,None,169.1538150999986,None,169.1538150999986,170.15570870001102,169.1538150999986,170.15570870001102,169.1538150999986,170.15570870001102,169.1538150999986,170.15570870001102,169.1538150999986,169.65502710000146,169.1538150999986,169.65502710000146,169.1538150999986,169.65502710000146,169.1538150999986,169.65502710000146,169.1538150999986,None,0.23298450000584126,,,,,12011,001,2024_Jun_17_0845,nback,2021.2.3,60.16260750105006,
1-back,instructions\back-1.png,conditions\11back-e.xlsx,,,experiment,1,3,stim\gray.png,stim\gray.png,stim\yellow.png,stim\gray.png,down,,,,,,,,,,,,,0,0,0,5,0,9,9,9,,,,,,,,,,,,,,,,,,,,,,,,,,,,,,,,,,,,,,,,,,,,,,,,,,,,,,,,down,1,170.6562549000082,None,170.6562549000082,None,170.6562549000082,171.657741300005,170.6562549000082,171.657741300005,170.6562549000082,171.657741300005,170.6562549000082,171.657741300005,170.6562549000082,171.15708070000983,170.6562549000082,171.15708070000983,170.6562549000082,171.15708070000983,170.6562549000082,171.15708070000983,170.6562549000082,None,0.3222935999801848,,,,,12011,001,2024_Jun_17_0845,nback,2021.2.3,60.16260750105006,
1-back,instructions\back-1.png,conditions\11back-e.xlsx,,,experiment,1,1,stim\yellow.png,stim\gray.png,stim\gray.png,stim\gray.png,right,,,,,,,,,,,,,0,0,0,5,0,10,10,10,,,,,,,,,,,,,,,,,,,,,,,,,,,,,,,,,,,,,,,,,,,,,,,,,,,,,,,,right,1,172.15846040000906,None,172.15846040000906,None,172.15846040000906,173.1600274000084,172.15846040000906,173.1600274000084,172.15846040000906,173.1600274000084,172.15846040000906,173.1600274000084,172.15846040000906,172.65920560000814,172.15846040000906,172.65920560000814,172.15846040000906,172.65920560000814,172.15846040000906,172.65920560000814,172.15846040000906,None,0.2759869000001345,,,,,12011,001,2024_Jun_17_0845,nback,2021.2.3,60.16260750105006,
1-back,instructions\back-1.png,conditions\11back-e.xlsx,,,experiment,1,2,stim\gray.png,stim\yellow.png,stim\gray.png,stim\gray.png,up,,,,,,,,,,,,,0,0,0,5,0,11,11,11,,,,,,,,,,,,,,,,,,,,,,,,,,,,,,,,,,,,,,,,,,,,,,,,,,,,,,,,up,1,173.66088800001307,None,173.66088800001307,None,173.66088800001307,174.66336710000178,173.66088800001307,174.66336710000178,173.66088800001307,174.66336710000178,173.66088800001307,174.66336710000178,173.66088800001307,174.16152019999572,173.66088800001307,174.16152019999572,173.66088800001307,174.16152019999572,173.66088800001307,174.16152019999572,173.66088800001307,None,0.23000070001580752,,,,,12011,001,2024_Jun_17_0845,nback,2021.2.3,60.16260750105006,
1-back,instructions\back-1.png,conditions\11back-e.xlsx,,,experiment,1,3,stim\gray.png,stim\gray.png,stim\yellow.png,stim\gray.png,left,,,,,,,,,,,,,0,0,0,5,0,12,12,12,,,,,,,,,,,,,,,,,,,,,,,,,,,,,,,,,,,,,,,,,,,,,,,,,,,,,,,,left,1,175.16309550000005,None,175.16309550000005,None,175.16309550000005,176.16449389999616,175.16309550000005,176.16449389999616,175.16309550000005,176.16449389999616,175.16309550000005,176.16449389999616,175.16309550000005,175.6637289999926,175.16309550000005,175.6637289999926,175.16309550000005,175.6637289999926,175.16309550000005,175.6637289999926,175.16309550000005,None,0.22381170000880957,,,,,12011,001,2024_Jun_17_0845,nback,2021.2.3,60.16260750105006,
1-back,instructions\back-1.png,conditions\11back-e.xlsx,,,experiment,1,4,stim\gray.png,stim\gray.png,stim\gray.png,stim\yellow.png,right,,,,,,,,,,,,,0,0,0,5,0,13,13,13,,,,,,,,,,,,,,,,,,,,,,,,,,,,,,,,,,,,,,,,,,,,,,,,,,,,,,,,right,1,176.64859639998758,None,176.64859639998758,None,176.64859639998758,177.6499962999951,176.64859639998758,177.6499962999951,176.64859639998758,177.6499962999951,176.64859639998758,177.6499962999951,176.64859639998758,177.1495983999921,176.64859639998758,177.1495983999921,176.64859639998758,177.1495983999921,176.64859639998758,177.1495983999921,176.64859639998758,None,0.2186768999963533,,,,,12011,001,2024_Jun_17_0845,nback,2021.2.3,60.16260750105006,
1-back,instructions\back-1.png,conditions\11back-e.xlsx,,,experiment,1,1,stim\yellow.png,stim\gray.png,stim\gray.png,stim\gray.png,down,,,,,,,,,,,,,0,0,0,5,0,14,14,14,,,,,,,,,,,,,,,,,,,,,,,,,,,,,,,,,,,,,,,,,,,,,,,,,,,,,,,,down,1,178.15079789998708,None,178.15079789998708,None,178.15079789998708,179.15239510001265,178.15079789998708,179.15239510001265,178.15079789998708,179.15239510001265,178.15079789998708,179.15239510001265,178.15079789998708,178.6521400999918,178.15079789998708,178.6521400999918,178.15079789998708,178.6521400999918,178.15079789998708,178.6521400999918,178.15079789998708,None,0.212290600000415,,,,,12011,001,2024_Jun_17_0845,nback,2021.2.3,60.16260750105006,
1-back,instructions\back-1.png,conditions\11back-e.xlsx,,,experiment,1,2,stim\gray.png,stim\yellow.png,stim\gray.png,stim\gray.png,up,,,,,,,,,,,,,0,0,0,5,0,15,15,15,,,,,,,,,,,,,,,,,,,,,,,,,,,,,,,,,,,,,,,,,,,,,,,,,,,,,,,,up,1,179.65319720000844,None,179.65319720000844,None,179.65319720000844,180.65539950001403,179.65319720000844,180.65539950001403,179.65319720000844,180.65539950001403,179.65319720000844,180.65539950001403,179.65319720000844,180.15402429999085,179.65319720000844,180.15402429999085,179.65319720000844,180.15402429999085,179.65319720000844,180.15402429999085,179.65319720000844,None,0.19777139998041093,,,,,12011,001,2024_Jun_17_0845,nback,2021.2.3,60.16260750105006,
1-back,instructions\back-1.png,conditions\11back-e.xlsx,,,experiment,1,2,stim\gray.png,stim\yellow.png,stim\gray.png,stim\gray.png,left,,,,,,,,,,,,,0,0,0,5,0,16,16,16,,,,,,,,,,,,,,,,,,,,,,,,,,,,,,,,,,,,,,,,,,,,,,,,,,,,,,,,left,1,181.15540310001234,None,181.15540310001234,None,181.15540310001234,182.15733499999624,181.15540310001234,182.15733499999624,181.15540310001234,182.15733499999624,181.15540310001234,182.15733499999624,181.15540310001234,181.65617140001268,181.15540310001234,181.65617140001268,181.15540310001234,181.65617140001268,181.15540310001234,181.65617140001268,181.15540310001234,None,0.20740529999602586,,,,,12011,001,2024_Jun_17_0845,nback,2021.2.3,60.16260750105006,
1-back,instructions\back-1.png,conditions\11back-e.xlsx,,,experiment,1,1,stim\yellow.png,stim\gray.png,stim\gray.png,stim\gray.png,left,,,,,,,,,,,,,0,0,0,5,0,17,17,17,,,,,,,,,,,,,,,,,,,,,,,,,,,,,,,,,,,,,,,,,,,,,,,,,,,,,,,,left,1,182.6578034000122,None,182.6578034000122,None,182.6578034000122,183.65926630000467,182.6578034000122,183.65926630000467,182.6578034000122,183.65926630000467,182.6578034000122,183.65926630000467,182.6578034000122,183.1583968999912,182.6578034000122,183.1583968999912,182.6578034000122,183.1583968999912,182.6578034000122,183.1583968999912,182.6578034000122,None,0.6729708000202663,,,,,12011,001,2024_Jun_17_0845,nback,2021.2.3,60.16260750105006,
1-back,instructions\back-1.png,conditions\11back-e.xlsx,,,experiment,1,4,stim\gray.png,stim\gray.png,stim\gray.png,stim\yellow.png,up,,,,,,,,,,,,,0,0,0,5,0,18,18,18,,,,,,,,,,,,,,,,,,,,,,,,,,,,,,,,,,,,,,,,,,,,,,,,,,,,,,,,up,1,184.1601697000151,None,184.1601697000151,None,184.1601697000151,185.16288829999394,184.1601697000151,185.16288829999394,184.1601697000151,185.16288829999394,184.1601697000151,185.16288829999394,184.1601697000151,184.66145409998717,184.1601697000151,184.66145409998717,184.1601697000151,184.66145409998717,184.1601697000151,184.66145409998717,184.1601697000151,None,0.6267033999902196,,,,,12011,001,2024_Jun_17_0845,nback,2021.2.3,60.16260750105006,
1-back,instructions\back-1.png,conditions\11back-e.xlsx,,,experiment,1,3,stim\gray.png,stim\gray.png,stim\yellow.png,stim\gray.png,down,,,,,,,,,,,,,0,0,0,5,0,19,19,19,,,,,,,,,,,,,,,,,,,,,,,,,,,,,,,,,,,,,,,,,,,,,,,,,,,,,,,,down,1,185.66217570001027,None,185.66217570001027,None,185.66217570001027,186.6636822000146,185.66217570001027,186.6636822000146,185.66217570001027,186.6636822000146,185.66217570001027,186.6636822000146,185.66217570001027,186.1635135000106,185.66217570001027,186.1635135000106,185.66217570001027,186.1635135000106,185.66217570001027,186.1635135000106,185.66217570001027,None,0.5732832000066992,,,,,12011,001,2024_Jun_17_0845,nback,2021.2.3,60.16260750105006,
1-back,instructions\back-1.png,conditions\11back-e.xlsx,,,,,,,,,,,,,,,,,,,,,,,0,0,0,5,,,,,,,,,,,,,,,,,,,,,,,,,,,,,,,,,,,,,,,,,,,,,,,,,,,,,,,,,,,,,,,,,,,,,,,,,,,,,,,,,,,,,187.14856180001516,None,,,12011,001,2024_Jun_17_0845,nback,2021.2.3,60.16260750105006,
1-back,instructions\back-1.png,conditions\12back-e.xlsx,,,experiment,1,2,stim\gray.png,stim\yellow.png,stim\gray.png,stim\gray.png,None,,,,,,,,,,,,,0,1,1,6,0,0,0,0,,,,,,,,,,,,,,,188.2660850000102,192.7733816000109,192.741108599992,None,,,,,,,,,,,,,,,,,,,,,,,,,,,,,,,,,,,,,,None,1,193.17370899999514,None,193.17370899999514,None,193.17370899999514,194.17518530000234,193.17370899999514,194.17518530000234,193.17370899999514,194.17518530000234,193.17370899999514,194.17518530000234,193.17370899999514,193.67428820001078,193.17370899999514,193.67428820001078,193.17370899999514,193.67428820001078,193.17370899999514,193.67428820001078,193.17370899999514,None,,,,,,12011,001,2024_Jun_17_0845,nback,2021.2.3,60.16260750105006,
1-back,instructions\back-1.png,conditions\12back-e.xlsx,,,experiment,1,3,stim\gray.png,stim\gray.png,stim\yellow.png,stim\gray.png,left,,,,,,,,,,,,,0,1,1,6,0,1,1,1,,,,,,,,,,,,,,,,,,,,,,,,,,,,,,,,,,,,,,,,,,,,,,,,,,,,,,,,left,1,194.66048719998798,None,194.66048719998798,None,194.66048719998798,195.66070330000366,194.66048719998798,195.66070330000366,194.66048719998798,195.66070330000366,194.66048719998798,195.66070330000366,194.66048719998798,195.16055349999806,194.66048719998798,195.16055349999806,194.66048719998798,195.16055349999806,194.66048719998798,195.16055349999806,194.66048719998798,None,0.24666699999943376,,,,,12011,001,2024_Jun_17_0845,nback,2021.2.3,60.16260750105006,
1-back,instructions\back-1.png,conditions\12back-e.xlsx,,,experiment,1,4,stim\gray.png,stim\gray.png,stim\gray.png,stim\yellow.png,right,,,,,,,,,,,,,0,1,1,6,0,2,2,2,,,,,,,,,,,,,,,,,,,,,,,,,,,,,,,,,,,,,,,,,,,,,,,,,,,,,,,,right,1,196.1614009999903,None,196.1614009999903,None,196.1614009999903,197.1629144999897,196.1614009999903,197.1629144999897,196.1614009999903,197.1629144999897,196.1614009999903,197.1629144999897,196.1614009999903,196.66216780000832,196.1614009999903,196.66216780000832,196.1614009999903,196.66216780000832,196.1614009999903,196.66216780000832,196.1614009999903,None,0.3217104999930598,,,,,12011,001,2024_Jun_17_0845,nback,2021.2.3,60.16260750105006,
1-back,instructions\back-1.png,conditions\12back-e.xlsx,,,experiment,1,3,stim\gray.png,stim\gray.png,stim\yellow.png,stim\gray.png,down,,,,,,,,,,,,,0,1,1,6,0,3,3,3,,,,,,,,,,,,,,,,,,,,,,,,,,,,,,,,,,,,,,,,,,,,,,,,,,,,,,,,down,1,197.6635088000039,None,197.6635088000039,None,197.6635088000039,198.66521269999794,197.6635088000039,198.66521269999794,197.6635088000039,198.66521269999794,197.6635088000039,198.66521269999794,197.6635088000039,198.16418789999443,197.6635088000039,198.16418789999443,197.6635088000039,198.16418789999443,197.6635088000039,198.16418789999443,197.6635088000039,None,0.25967619998846203,,,,,12011,001,2024_Jun_17_0845,nback,2021.2.3,60.16260750105006,
1-back,instructions\back-1.png,conditions\12back-e.xlsx,,,experiment,1,1,stim\yellow.png,stim\gray.png,stim\gray.png,stim\gray.png,right,,,,,,,,,,,,,0,1,1,6,0,4,4,4,,,,,,,,,,,,,,,,,,,,,,,,,,,,,,,,,,,,,,,,,,,,,,,,,,,,,,,,right,1,199.14919769999688,None,199.14919769999688,None,199.14919769999688,200.15151440000045,199.14919769999688,200.15151440000045,199.14919769999688,200.15151440000045,199.14919769999688,200.15151440000045,199.14919769999688,199.6498685000115,199.14919769999688,199.6498685000115,199.14919769999688,199.6498685000115,199.14919769999688,199.6498685000115,199.14919769999688,None,0.23805600000196137,,,,,12011,001,2024_Jun_17_0845,nback,2021.2.3,60.16260750105006,
1-back,instructions\back-1.png,conditions\12back-e.xlsx,,,experiment,1,2,stim\gray.png,stim\yellow.png,stim\gray.png,stim\gray.png,up,,,,,,,,,,,,,0,1,1,6,0,5,5,5,,,,,,,,,,,,,,,,,,,,,,,,,,,,,,,,,,,,,,,,,,,,,,,,,,,,,,,,up,1,200.65155959999538,None,200.65155959999538,None,200.65155959999538,201.6530805999937,200.65155959999538,201.6530805999937,200.65155959999538,201.6530805999937,200.65155959999538,201.6530805999937,200.65155959999538,201.153401699994,200.65155959999538,201.153401699994,200.65155959999538,201.153401699994,200.65155959999538,201.153401699994,200.65155959999538,None,0.20769350000773557,,,,,12011,001,2024_Jun_17_0845,nback,2021.2.3,60.16260750105006,
1-back,instructions\back-1.png,conditions\12back-e.xlsx,,,experiment,1,2,stim\gray.png,stim\yellow.png,stim\gray.png,stim\gray.png,left,,,,,,,,,,,,,0,1,1,6,0,6,6,6,,,,,,,,,,,,,,,,,,,,,,,,,,,,,,,,,,,,,,,,,,,,,,,,,,,,,,,,left,1,202.15389849999337,None,202.15389849999337,None,202.15389849999337,203.155565699999,202.15389849999337,203.155565699999,202.15389849999337,203.155565699999,202.15389849999337,203.155565699999,202.15389849999337,202.65477490000194,202.15389849999337,202.65477490000194,202.15389849999337,202.65477490000194,202.15389849999337,202.65477490000194,202.15389849999337,None,0.24990059999981895,,,,,12011,001,2024_Jun_17_0845,nback,2021.2.3,60.16260750105006,
1-back,instructions\back-1.png,conditions\12back-e.xlsx,,,experiment,1,4,stim\gray.png,stim\gray.png,stim\gray.png,stim\yellow.png,left,,,,,,,,,,,,,0,1,1,6,0,7,7,7,,,,,,,,,,,,,,,,,,,,,,,,,,,,,,,,,,,,,,,,,,,,,,,,,,,,,,,,left,1,203.65684360000887,None,203.65684360000887,None,203.65684360000887,204.65799480001442,203.65684360000887,204.65799480001442,203.65684360000887,204.65799480001442,203.65684360000887,204.65799480001442,203.65684360000887,204.16053729999112,203.65684360000887,204.16053729999112,203.65684360000887,204.16053729999112,203.65684360000887,204.16053729999112,203.65684360000887,None,0.2984760999970604,,,,,12011,001,2024_Jun_17_0845,nback,2021.2.3,60.16260750105006,
1-back,instructions\back-1.png,conditions\12back-e.xlsx,,,experiment,1,1,stim\yellow.png,stim\gray.png,stim\gray.png,stim\gray.png,down,,,,,,,,,,,,,0,1,1,6,0,8,8,8,,,,,,,,,,,,,,,,,,,,,,,,,,,,,,,,,,,,,,,,,,,,,,,,,,,,,,,,down,1,205.15835869999137,None,205.15835869999137,None,205.15835869999137,206.1604970000044,205.15835869999137,206.1604970000044,205.15835869999137,206.1604970000044,205.15835869999137,206.1604970000044,205.15835869999137,205.65952509999624,205.15835869999137,205.65952509999624,205.15835869999137,205.65952509999624,205.15835869999137,205.65952509999624,205.15835869999137,None,0.25311089999740943,,,,,12011,001,2024_Jun_17_0845,nback,2021.2.3,60.16260750105006,
1-back,instructions\back-1.png,conditions\12back-e.xlsx,,,experiment,1,3,stim\gray.png,stim\gray.png,stim\yellow.png,stim\gray.png,up,,,,,,,,,,,,,0,1,1,6,0,9,9,9,,,,,,,,,,,,,,,,,,,,,,,,,,,,,,,,,,,,,,,,,,,,,,,,,,,,,,,,up,1,206.66054310000618,None,206.66054310000618,None,206.66054310000618,207.66217319999123,206.66054310000618,207.66217319999123,206.66054310000618,207.66217319999123,206.66054310000618,207.66217319999123,206.66054310000618,207.16130969999358,206.66054310000618,207.16130969999358,206.66054310000618,207.16130969999358,206.66054310000618,207.16130969999358,206.66054310000618,None,0.3828765999933239,,,,,12011,001,2024_Jun_17_0845,nback,2021.2.3,60.16260750105006,
1-back,instructions\back-1.png,conditions\12back-e.xlsx,,,experiment,1,4,stim\gray.png,stim\gray.png,stim\gray.png,stim\yellow.png,right,,,,,,,,,,,,,0,1,1,6,0,10,10,10,,,,,,,,,,,,,,,,,,,,,,,,,,,,,,,,,,,,,,,,,,,,,,,,,,,,,,,,right,1,208.1627662999963,None,208.1627662999963,None,208.1627662999963,209.16436819999944,208.1627662999963,209.16436819999944,208.1627662999963,209.16436819999944,208.1627662999963,209.16436819999944,208.1627662999963,208.663787700003,208.1627662999963,208.663787700003,208.1627662999963,208.663787700003,208.1627662999963,208.663787700003,208.1627662999963,None,0.29702139997971244,,,,,12011,001,2024_Jun_17_0845,nback,2021.2.3,60.16260750105006,
1-back,instructions\back-1.png,conditions\12back-e.xlsx,,,experiment,1,3,stim\gray.png,stim\gray.png,stim\yellow.png,stim\gray.png,down,,,,,,,,,,,,,0,1,1,6,0,11,11,11,,,,,,,,,,,,,,,,,,,,,,,,,,,,,,,,,,,,,,,,,,,,,,,,,,,,,,,,down,1,209.6484696000116,None,209.6484696000116,None,209.6484696000116,210.64985960000195,209.6484696000116,210.64985960000195,209.6484696000116,210.64985960000195,209.6484696000116,210.64985960000195,209.6484696000116,210.14917140000034,209.6484696000116,210.14917140000034,209.6484696000116,210.14917140000034,209.6484696000116,210.14917140000034,209.6484696000116,None,0.2675167999987025,,,,,12011,001,2024_Jun_17_0845,nback,2021.2.3,60.16260750105006,
1-back,instructions\back-1.png,conditions\12back-e.xlsx,,,experiment,1,1,stim\yellow.png,stim\gray.png,stim\gray.png,stim\gray.png,left,,,,,,,,,,,,,0,1,1,6,0,12,12,12,,,,,,,,,,,,,,,,,,,,,,,,,,,,,,,,,,,,,,,,,,,,,,,,,,,,,,,,right,0,211.15097519999836,None,211.15097519999836,None,211.15097519999836,212.15224220001255,211.15097519999836,212.15224220001255,211.15097519999836,212.15224220001255,211.15097519999836,212.15224220001255,211.15097519999836,211.6521550999896,211.15097519999836,211.6521550999896,211.15097519999836,211.6521550999896,211.15097519999836,211.6521550999896,211.15097519999836,None,0.27652519999537617,,,,,12011,001,2024_Jun_17_0845,nback,2021.2.3,60.16260750105006,
1-back,instructions\back-1.png,conditions\12back-e.xlsx,,,experiment,1,4,stim\gray.png,stim\gray.png,stim\gray.png,stim\yellow.png,up,,,,,,,,,,,,,0,1,1,6,0,13,13,13,,,,,,,,,,,,,,,,,,,,,,,,,,,,,,,,,,,,,,,,,,,,,,,,,,,,,,,,up,1,212.65281699999468,None,212.65281699999468,None,212.65281699999468,213.65445770000224,212.65281699999468,213.65445770000224,212.65281699999468,213.65445770000224,212.65281699999468,213.65445770000224,212.65281699999468,213.15498059999663,212.65281699999468,213.15498059999663,212.65281699999468,213.15498059999663,212.65281699999468,213.15498059999663,212.65281699999468,None,0.26278069999534637,,,,,12011,001,2024_Jun_17_0845,nback,2021.2.3,60.16260750105006,
1-back,instructions\back-1.png,conditions\12back-e.xlsx,,,experiment,1,1,stim\yellow.png,stim\gray.png,stim\gray.png,stim\gray.png,down,,,,,,,,,,,,,0,1,1,6,0,14,14,14,,,,,,,,,,,,,,,,,,,,,,,,,,,,,,,,,,,,,,,,,,,,,,,,,,,,,,,,down,1,214.15531150001334,None,214.15531150001334,None,214.15531150001334,215.15671979999752,214.15531150001334,215.15671979999752,214.15531150001334,215.15671979999752,214.15531150001334,215.15671979999752,214.15531150001334,214.65600200000335,214.15531150001334,214.65600200000335,214.15531150001334,214.65600200000335,214.15531150001334,214.65600200000335,214.15531150001334,None,0.30434070000774227,,,,,12011,001,2024_Jun_17_0845,nback,2021.2.3,60.16260750105006,
1-back,instructions\back-1.png,conditions\12back-e.xlsx,,,experiment,1,2,stim\gray.png,stim\yellow.png,stim\gray.png,stim\gray.png,up,,,,,,,,,,,,,0,1,1,6,0,15,15,15,,,,,,,,,,,,,,,,,,,,,,,,,,,,,,,,,,,,,,,,,,,,,,,,,,,,,,,,up,1,215.65760509998654,None,215.65760509998654,None,215.65760509998654,216.65979450001032,215.65760509998654,216.65979450001032,215.65760509998654,216.65979450001032,215.65760509998654,216.65979450001032,215.65760509998654,216.15920530000585,215.65760509998654,216.15920530000585,215.65760509998654,216.15920530000585,215.65760509998654,216.15920530000585,215.65760509998654,None,0.33036369999172166,,,,,12011,001,2024_Jun_17_0845,nback,2021.2.3,60.16260750105006,
1-back,instructions\back-1.png,conditions\12back-e.xlsx,,,experiment,1,1,stim\yellow.png,stim\gray.png,stim\gray.png,stim\gray.png,left,,,,,,,,,,,,,0,1,1,6,0,16,16,16,,,,,,,,,,,,,,,,,,,,,,,,,,,,,,,,,,,,,,,,,,,,,,,,,,,,,,,,left,1,217.1596695999906,None,217.1596695999906,None,217.1596695999906,218.1612204000121,217.1596695999906,218.1612204000121,217.1596695999906,218.1612204000121,217.1596695999906,218.1612204000121,217.1596695999906,217.66069349998725,217.1596695999906,217.66069349998725,217.1596695999906,217.66069349998725,217.1596695999906,217.66069349998725,217.1596695999906,None,0.22806759999366477,,,,,12011,001,2024_Jun_17_0845,nback,2021.2.3,60.16260750105006,
1-back,instructions\back-1.png,conditions\12back-e.xlsx,,,experiment,1,3,stim\gray.png,stim\gray.png,stim\yellow.png,stim\gray.png,up,,,,,,,,,,,,,0,1,1,6,0,17,17,17,,,,,,,,,,,,,,,,,,,,,,,,,,,,,,,,,,,,,,,,,,,,,,,,,,,,,,,,up,1,218.6620716000034,None,218.6620716000034,None,218.6620716000034,219.66351380001288,218.6620716000034,219.66351380001288,218.6620716000034,219.66351380001288,218.6620716000034,219.66351380001288,218.6620716000034,219.1630007000058,218.6620716000034,219.1630007000058,218.6620716000034,219.1630007000058,218.6620716000034,219.1630007000058,218.6620716000034,None,0.2777324999915436,,,,,12011,001,2024_Jun_17_0845,nback,2021.2.3,60.16260750105006,
1-back,instructions\back-1.png,conditions\12back-e.xlsx,,,experiment,1,2,stim\gray.png,stim\yellow.png,stim\gray.png,stim\gray.png,right,,,,,,,,,,,,,0,1,1,6,0,18,18,18,,,,,,,,,,,,,,,,,,,,,,,,,,,,,,,,,,,,,,,,,,,,,,,,,,,,,,,,right,1,220.14760709999246,None,220.14760709999246,None,220.14760709999246,221.14915360001032,220.14760709999246,221.14915360001032,220.14760709999246,221.14915360001032,220.14760709999246,221.14915360001032,220.14760709999246,220.64891009998973,220.14760709999246,220.64891009998973,220.14760709999246,220.64891009998973,220.14760709999246,220.64891009998973,220.14760709999246,None,0.31233380001503974,,,,,12011,001,2024_Jun_17_0845,nback,2021.2.3,60.16260750105006,
1-back,instructions\back-1.png,conditions\12back-e.xlsx,,,experiment,1,4,stim\gray.png,stim\gray.png,stim\gray.png,stim\yellow.png,left,,,,,,,,,,,,,0,1,1,6,0,19,19,19,,,,,,,,,,,,,,,,,,,,,,,,,,,,,,,,,,,,,,,,,,,,,,,,,,,,,,,,left,1,221.6497720000043,None,221.6497720000043,None,221.6497720000043,222.65234289999353,221.6497720000043,222.65234289999353,221.6497720000043,222.65234289999353,221.6497720000043,222.65234289999353,221.6497720000043,222.15066990000196,221.6497720000043,222.15066990000196,221.6497720000043,222.15066990000196,221.6497720000043,222.15066990000196,221.6497720000043,None,0.27481530001387,,,,,12011,001,2024_Jun_17_0845,nback,2021.2.3,60.16260750105006,
1-back,instructions\back-1.png,conditions\12back-e.xlsx,,,,,,,,,,,,,,,,,,,,,,,0,1,1,6,,,,,,,,,,,,,,,,,,,,,,,,,,,,,,,,,,,,,,,,,,,,,,,,,,,,,,,,,,,,,,,,,,,,,,,,,,,,,,,,,,,,,223.15219140000409,None,,,12011,001,2024_Jun_17_0845,nback,2021.2.3,60.16260750105006,
2-back,instructions\back-2.png,conditions\21back-e.xlsx,,,experiment,2,3,stim\gray.png,stim\gray.png,stim\yellow.png,stim\gray.png,None,,,,,,,,,,,,,0,2,2,3,0,0,0,0,,,,,,,,,,,,,,,224.2702988999954,228.7787229999958,228.74450299999444,None,,,,,,,,,,,,,,,,,,,,,,,,,,,,,,,,,,,,,,None,1,229.17906699999003,None,229.17906699999003,None,229.17906699999003,230.18149479999556,229.17906699999003,230.18149479999556,229.17906699999003,230.18149479999556,229.17906699999003,230.18149479999556,229.17906699999003,229.67870930000208,229.17906699999003,229.67870930000208,229.17906699999003,229.67870930000208,229.17906699999003,229.67870930000208,229.17906699999003,None,,,,,,12011,001,2024_Jun_17_0845,nback,2021.2.3,60.16260750105006,
2-back,instructions\back-2.png,conditions\21back-e.xlsx,,,experiment,2,4,stim\gray.png,stim\gray.png,stim\gray.png,stim\yellow.png,None,,,,,,,,,,,,,0,2,2,3,0,1,1,1,,,,,,,,,,,,,,,,,,,,,,,,,,,,,,,,,,,,,,,,,,,,,,,,,,,,,,,,None,1,230.66345039999578,None,230.66345039999578,None,230.66345039999578,231.6649628999876,230.66345039999578,231.6649628999876,230.66345039999578,231.6649628999876,230.66345039999578,231.6649628999876,230.66345039999578,231.1646633000055,230.66345039999578,231.1646633000055,230.66345039999578,231.1646633000055,230.66345039999578,231.1646633000055,230.66345039999578,None,,,,,,12011,001,2024_Jun_17_0845,nback,2021.2.3,60.16260750105006,
2-back,instructions\back-2.png,conditions\21back-e.xlsx,,,experiment,2,1,stim\yellow.png,stim\gray.png,stim\gray.png,stim\gray.png,right,,,,,,,,,,,,,0,2,2,3,0,2,2,2,,,,,,,,,,,,,,,,,,,,,,,,,,,,,,,,,,,,,,,,,,,,,,,,,,,,,,,,right,1,232.1497931999911,None,232.1497931999911,None,232.1497931999911,233.15049950001412,232.1497931999911,233.15049950001412,232.1497931999911,233.15049950001412,232.1497931999911,233.15049950001412,232.1497931999911,232.64975059998687,232.1497931999911,232.64975059998687,232.1497931999911,232.64975059998687,232.1497931999911,232.64975059998687,232.1497931999911,None,0.1986095000174828,,,,,12011,001,2024_Jun_17_0845,nback,2021.2.3,60.16260750105006,
2-back,instructions\back-2.png,conditions\21back-e.xlsx,,,experiment,2,2,stim\gray.png,stim\yellow.png,stim\gray.png,stim\gray.png,down,,,,,,,,,,,,,0,2,2,3,0,3,3,3,,,,,,,,,,,,,,,,,,,,,,,,,,,,,,,,,,,,,,,,,,,,,,,,,,,,,,,,down,1,233.6513025999884,None,233.6513025999884,None,233.6513025999884,234.6533921000082,233.6513025999884,234.6533921000082,233.6513025999884,234.6533921000082,233.6513025999884,234.6533921000082,233.6513025999884,234.1521933999902,233.6513025999884,234.1521933999902,233.6513025999884,234.1521933999902,233.6513025999884,234.1521933999902,233.6513025999884,None,0.23323870002059266,,,,,12011,001,2024_Jun_17_0845,nback,2021.2.3,60.16260750105006,
2-back,instructions\back-2.png,conditions\21back-e.xlsx,,,experiment,2,1,stim\yellow.png,stim\gray.png,stim\gray.png,stim\gray.png,up,,,,,,,,,,,,,0,2,2,3,0,4,4,4,,,,,,,,,,,,,,,,,,,,,,,,,,,,,,,,,,,,,,,,,,,,,,,,,,,,,,,,up,1,235.15365399999428,None,235.15365399999428,None,235.15365399999428,236.1549670000095,235.15365399999428,236.1549670000095,235.15365399999428,236.1549670000095,235.15365399999428,236.1549670000095,235.15365399999428,235.6542186999868,235.15365399999428,235.6542186999868,235.15365399999428,235.6542186999868,235.15365399999428,235.6542186999868,235.15365399999428,None,0.25088410000898875,,,,,12011,001,2024_Jun_17_0845,nback,2021.2.3,60.16260750105006,
2-back,instructions\back-2.png,conditions\21back-e.xlsx,,,experiment,2,2,stim\gray.png,stim\yellow.png,stim\gray.png,stim\gray.png,left,,,,,,,,,,,,,0,2,2,3,0,5,5,5,,,,,,,,,,,,,,,,,,,,,,,,,,,,,,,,,,,,,,,,,,,,,,,,,,,,,,,,left,1,236.65612470000633,None,236.65612470000633,None,236.65612470000633,237.6573791000119,236.65612470000633,237.6573791000119,236.65612470000633,237.6573791000119,236.65612470000633,237.6573791000119,236.65612470000633,237.1571210999973,236.65612470000633,237.1571210999973,236.65612470000633,237.1571210999973,236.65612470000633,237.1571210999973,236.65612470000633,None,0.2762120999977924,,,,,12011,001,2024_Jun_17_0845,nback,2021.2.3,60.16260750105006,
2-back,instructions\back-2.png,conditions\21back-e.xlsx,,,experiment,2,3,stim\gray.png,stim\gray.png,stim\yellow.png,stim\gray.png,up,,,,,,,,,,,,,0,2,2,3,0,6,6,6,,,,,,,,,,,,,,,,,,,,,,,,,,,,,,,,,,,,,,,,,,,,,,,,,,,,,,,,up,1,238.15810490000877,None,238.15810490000877,None,238.15810490000877,239.16169020000962,238.15810490000877,239.16169020000962,238.15810490000877,239.16169020000962,238.15810490000877,239.16169020000962,238.15810490000877,238.65886870000395,238.15810490000877,238.65886870000395,238.15810490000877,238.65886870000395,238.15810490000877,238.65886870000395,238.15810490000877,None,0.2624700000160374,,,,,12011,001,2024_Jun_17_0845,nback,2021.2.3,60.16260750105006,
2-back,instructions\back-2.png,conditions\21back-e.xlsx,,,experiment,2,4,stim\gray.png,stim\gray.png,stim\gray.png,stim\yellow.png,left,,,,,,,,,,,,,0,2,2,3,0,7,7,7,,,,,,,,,,,,,,,,,,,,,,,,,,,,,,,,,,,,,,,,,,,,,,,,,,,,,,,,left,1,239.6604983000143,None,239.6604983000143,None,239.6604983000143,240.66206289999536,239.6604983000143,240.66206289999536,239.6604983000143,240.66206289999536,239.6604983000143,240.66206289999536,239.6604983000143,240.16188759999932,239.6604983000143,240.16188759999932,239.6604983000143,240.16188759999932,239.6604983000143,240.16188759999932,239.6604983000143,None,0.24089139999705367,,,,,12011,001,2024_Jun_17_0845,nback,2021.2.3,60.16260750105006,
2-back,instructions\back-2.png,conditions\21back-e.xlsx,,,experiment,2,3,stim\gray.png,stim\gray.png,stim\yellow.png,stim\gray.png,right,,,,,,,,,,,,,0,2,2,3,0,8,8,8,,,,,,,,,,,,,,,,,,,,,,,,,,,,,,,,,,,,,,,,,,,,,,,,,,,,,,,,right,1,241.16252039998653,None,241.16252039998653,None,241.16252039998653,242.16476690000854,241.16252039998653,242.16476690000854,241.16252039998653,242.16476690000854,241.16252039998653,242.16476690000854,241.16252039998653,241.66332759999204,241.16252039998653,241.66332759999204,241.16252039998653,241.66332759999204,241.16252039998653,241.66332759999204,241.16252039998653,None,0.2099696000223048,,,,,12011,001,2024_Jun_17_0845,nback,2021.2.3,60.16260750105006,
2-back,instructions\back-2.png,conditions\21back-e.xlsx,,,experiment,2,1,stim\yellow.png,stim\gray.png,stim\gray.png,stim\gray.png,down,,,,,,,,,,,,,0,2,2,3,0,9,9,9,,,,,,,,,,,,,,,,,,,,,,,,,,,,,,,,,,,,,,,,,,,,,,,,,,,,,,,,down,1,242.6481378999888,None,242.6481378999888,None,242.6481378999888,243.64953819999937,242.6481378999888,243.64953819999937,242.6481378999888,243.64953819999937,242.6481378999888,243.64953819999937,242.6481378999888,243.14879909998854,242.6481378999888,243.14879909998854,242.6481378999888,243.14879909998854,242.6481378999888,243.14879909998854,242.6481378999888,None,0.21230250000371598,,,,,12011,001,2024_Jun_17_0845,nback,2021.2.3,60.16260750105006,
2-back,instructions\back-2.png,conditions\21back-e.xlsx,,,experiment,2,4,stim\gray.png,stim\gray.png,stim\gray.png,stim\yellow.png,right,,,,,,,,,,,,,0,2,2,3,0,10,10,10,,,,,,,,,,,,,,,,,,,,,,,,,,,,,,,,,,,,,,,,,,,,,,,,,,,,,,,,right,1,244.1512822000077,None,244.1512822000077,None,244.1512822000077,245.15202639999916,244.1512822000077,245.15202639999916,244.1512822000077,245.15202639999916,244.1512822000077,245.15202639999916,244.1512822000077,244.65119959998992,244.1512822000077,244.65119959998992,244.1512822000077,244.65119959998992,244.1512822000077,244.65119959998992,244.1512822000077,None,0.29357579999486916,,,,,12011,001,2024_Jun_17_0845,nback,2021.2.3,60.16260750105006,
2-back,instructions\back-2.png,conditions\21back-e.xlsx,,,experiment,2,2,stim\gray.png,stim\yellow.png,stim\gray.png,stim\gray.png,up,,,,,,,,,,,,,0,2,2,3,0,11,11,11,,,,,,,,,,,,,,,,,,,,,,,,,,,,,,,,,,,,,,,,,,,,,,,,,,,,,,,,up,1,245.65253220000886,None,245.65253220000886,None,245.65253220000886,246.65542009999626,245.65253220000886,246.65542009999626,245.65253220000886,246.65542009999626,245.65253220000886,246.65542009999626,245.65253220000886,246.15348129998893,245.65253220000886,246.15348129998893,245.65253220000886,246.15348129998893,245.65253220000886,246.15348129998893,245.65253220000886,None,0.2159057000244502,,,,,12011,001,2024_Jun_17_0845,nback,2021.2.3,60.16260750105006,
2-back,instructions\back-2.png,conditions\21back-e.xlsx,,,experiment,2,4,stim\gray.png,stim\gray.png,stim\gray.png,stim\yellow.png,down,,,,,,,,,,,,,0,2,2,3,0,12,12,12,,,,,,,,,,,,,,,,,,,,,,,,,,,,,,,,,,,,,,,,,,,,,,,,,,,,,,,,down,1,247.15490480000153,None,247.15490480000153,None,247.15490480000153,248.15653480001492,247.15490480000153,248.15653480001492,247.15490480000153,248.15653480001492,247.15490480000153,248.15653480001492,247.15490480000153,247.65628150000703,247.15490480000153,247.65628150000703,247.15490480000153,247.65628150000703,247.15490480000153,247.65628150000703,247.15490480000153,None,0.20969550000154413,,,,,12011,001,2024_Jun_17_0845,nback,2021.2.3,60.16260750105006,
2-back,instructions\back-2.png,conditions\21back-e.xlsx,,,experiment,2,3,stim\gray.png,stim\gray.png,stim\yellow.png,stim\gray.png,left,,,,,,,,,,,,,0,2,2,3,0,13,13,13,,,,,,,,,,,,,,,,,,,,,,,,,,,,,,,,,,,,,,,,,,,,,,,,,,,,,,,,left,1,248.65733409998938,None,248.65733409998938,None,248.65733409998938,249.6600832999975,248.65733409998938,249.6600832999975,248.65733409998938,249.6600832999975,248.65733409998938,249.6600832999975,248.65733409998938,249.15823060000548,248.65733409998938,249.15823060000548,248.65733409998938,249.15823060000548,248.65733409998938,249.15823060000548,248.65733409998938,None,0.2113412999897264,,,,,12011,001,2024_Jun_17_0845,nback,2021.2.3,60.16260750105006,
2-back,instructions\back-2.png,conditions\21back-e.xlsx,,,experiment,2,1,stim\yellow.png,stim\gray.png,stim\gray.png,stim\gray.png,down,,,,,,,,,,,,,0,2,2,3,0,14,14,14,,,,,,,,,,,,,,,,,,,,,,,,,,,,,,,,,,,,,,,,,,,,,,,,,,,,,,,,down,1,250.1594475999882,None,250.1594475999882,None,250.1594475999882,251.16148499998963,250.1594475999882,251.16148499998963,250.1594475999882,251.16148499998963,250.1594475999882,251.16148499998963,250.1594475999882,250.6612005000061,250.1594475999882,250.6612005000061,250.1594475999882,250.6612005000061,250.1594475999882,250.6612005000061,250.1594475999882,None,0.2454911999811884,,,,,12011,001,2024_Jun_17_0845,nback,2021.2.3,60.16260750105006,
2-back,instructions\back-2.png,conditions\21back-e.xlsx,,,experiment,2,2,stim\gray.png,stim\yellow.png,stim\gray.png,stim\gray.png,right,,,,,,,,,,,,,0,2,2,3,0,15,15,15,,,,,,,,,,,,,,,,,,,,,,,,,,,,,,,,,,,,,,,,,,,,,,,,,,,,,,,,right,1,251.66178500000387,None,251.66178500000387,None,251.66178500000387,252.66332920000423,251.66178500000387,252.66332920000423,251.66178500000387,252.66332920000423,251.66178500000387,252.66332920000423,251.66178500000387,252.16263259999687,251.66178500000387,252.16263259999687,251.66178500000387,252.16263259999687,251.66178500000387,252.16263259999687,251.66178500000387,None,0.2234390999947209,,,,,12011,001,2024_Jun_17_0845,nback,2021.2.3,60.16260750105006,
2-back,instructions\back-2.png,conditions\21back-e.xlsx,,,experiment,2,2,stim\gray.png,stim\yellow.png,stim\gray.png,stim\gray.png,up,,,,,,,,,,,,,0,2,2,3,0,16,16,16,,,,,,,,,,,,,,,,,,,,,,,,,,,,,,,,,,,,,,,,,,,,,,,,,,,,,,,,up,1,253.14735690000816,None,253.14735690000816,None,253.14735690000816,254.1490279000136,253.14735690000816,254.1490279000136,253.14735690000816,254.1490279000136,253.14735690000816,254.1490279000136,253.14735690000816,253.64867850000155,253.14735690000816,253.64867850000155,253.14735690000816,253.64867850000155,253.14735690000816,253.64867850000155,253.14735690000816,None,0.24926930002402514,,,,,12011,001,2024_Jun_17_0845,nback,2021.2.3,60.16260750105006,
2-back,instructions\back-2.png,conditions\21back-e.xlsx,,,experiment,2,1,stim\yellow.png,stim\gray.png,stim\gray.png,stim\gray.png,left,,,,,,,,,,,,,0,2,2,3,0,17,17,17,,,,,,,,,,,,,,,,,,,,,,,,,,,,,,,,,,,,,,,,,,,,,,,,,,,,,,,,left,1,254.64972889999626,None,254.64972889999626,None,254.64972889999626,255.65115900000092,254.64972889999626,255.65115900000092,254.64972889999626,255.65115900000092,254.64972889999626,255.65115900000092,254.64972889999626,255.15045370001462,254.64972889999626,255.15045370001462,254.64972889999626,255.15045370001462,254.64972889999626,255.15045370001462,254.64972889999626,None,0.2269860999949742,,,,,12011,001,2024_Jun_17_0845,nback,2021.2.3,60.16260750105006,
2-back,instructions\back-2.png,conditions\21back-e.xlsx,,,experiment,2,4,stim\gray.png,stim\gray.png,stim\gray.png,stim\yellow.png,left,,,,,,,,,,,,,0,2,2,3,0,18,18,18,,,,,,,,,,,,,,,,,,,,,,,,,,,,,,,,,,,,,,,,,,,,,,,,,,,,,,,,left,1,256.1519329000148,None,256.1519329000148,None,256.1519329000148,257.15345559999696,256.1519329000148,257.15345559999696,256.1519329000148,257.15345559999696,256.1519329000148,257.15345559999696,256.1519329000148,256.65303990000393,256.1519329000148,256.65303990000393,256.1519329000148,256.65303990000393,256.1519329000148,256.65303990000393,256.1519329000148,None,0.18090099998516962,,,,,12011,001,2024_Jun_17_0845,nback,2021.2.3,60.16260750105006,
2-back,instructions\back-2.png,conditions\21back-e.xlsx,,,experiment,2,3,stim\gray.png,stim\gray.png,stim\yellow.png,stim\gray.png,up,,,,,,,,,,,,,0,2,2,3,0,19,19,19,,,,,,,,,,,,,,,,,,,,,,,,,,,,,,,,,,,,,,,,,,,,,,,,,,,,,,,,up,1,257.6541755000071,None,257.6541755000071,None,257.6541755000071,258.6557010000106,257.6541755000071,258.6557010000106,257.6541755000071,258.6557010000106,257.6541755000071,258.6557010000106,257.6541755000071,258.1547722000105,257.6541755000071,258.1547722000105,257.6541755000071,258.1547722000105,257.6541755000071,258.1547722000105,257.6541755000071,None,0.15868769999360666,,,,,12011,001,2024_Jun_17_0845,nback,2021.2.3,60.16260750105006,
2-back,instructions\back-2.png,conditions\21back-e.xlsx,,,,,,,,,,,,,,,,,,,,,,,0,2,2,3,,,,,,,,,,,,,,,,,,,,,,,,,,,,,,,,,,,,,,,,,,,,,,,,,,,,,,,,,,,,,,,,,,,,,,,,,,,,,,,,,,,,,259.15635520001524,None,,,12011,001,2024_Jun_17_0845,nback,2021.2.3,60.16260750105006,
0-back,instructions\back-0.png,conditions\01back-e.xlsx,,,experiment,0,2,stim\gray.png,stim\yellow.png,stim\gray.png,stim\gray.png,left,,,,,,,,,,,,,0,3,3,4,0,0,0,0,,,,,,,,,,,,,,,260.2922546000045,264.7997264000005,264.74812360000215,None,,,,,,,,,,,,,,,,,,,,,,,,,,,,,,,,,,,,,,left,1,265.1672458999965,None,265.1672458999965,None,265.1672458999965,266.16703879999113,265.1672458999965,266.16703879999113,265.1672458999965,266.16703879999113,265.1672458999965,266.16703879999113,265.1672458999965,265.66696729999967,265.1672458999965,265.66696729999967,265.1672458999965,265.66696729999967,265.1672458999965,265.66696729999967,265.1672458999965,None,0.4620532999979332,,,,,12011,001,2024_Jun_17_0845,nback,2021.2.3,60.16260750105006,
0-back,instructions\back-0.png,conditions\01back-e.xlsx,,,experiment,0,4,stim\gray.png,stim\gray.png,stim\gray.png,stim\yellow.png,down,,,,,,,,,,,,,0,3,3,4,0,1,1,1,,,,,,,,,,,,,,,,,,,,,,,,,,,,,,,,,,,,,,,,,,,,,,,,,,,,,,,,down,1,266.6509737999877,None,266.6509737999877,None,266.6509737999877,267.65335340000456,266.6509737999877,267.65335340000456,266.6509737999877,267.65335340000456,266.6509737999877,267.65335340000456,266.6509737999877,267.1516530000081,266.6509737999877,267.1516530000081,266.6509737999877,267.1516530000081,266.6509737999877,267.1516530000081,266.6509737999877,None,0.41016150001087226,,,,,12011,001,2024_Jun_17_0845,nback,2021.2.3,60.16260750105006,
0-back,instructions\back-0.png,conditions\01back-e.xlsx,,,experiment,0,1,stim\yellow.png,stim\gray.png,stim\gray.png,stim\gray.png,up,,,,,,,,,,,,,0,3,3,4,0,2,2,2,,,,,,,,,,,,,,,,,,,,,,,,,,,,,,,,,,,,,,,,,,,,,,,,,,,,,,,,up,1,268.1533178999962,None,268.1533178999962,None,268.1533178999962,269.1557104999956,268.1533178999962,269.1557104999956,268.1533178999962,269.1557104999956,268.1533178999962,269.1557104999956,268.1533178999962,268.6541591999994,268.1533178999962,268.6541591999994,268.1533178999962,268.6541591999994,268.1533178999962,268.6541591999994,268.1533178999962,None,0.3004627999907825,,,,,12011,001,2024_Jun_17_0845,nback,2021.2.3,60.16260750105006,
0-back,instructions\back-0.png,conditions\01back-e.xlsx,,,experiment,0,2,stim\gray.png,stim\yellow.png,stim\gray.png,stim\gray.png,left,,,,,,,,,,,,,0,3,3,4,0,3,3,3,,,,,,,,,,,,,,,,,,,,,,,,,,,,,,,,,,,,,,,,,,,,,,,,,,,,,,,,left,1,269.65563359999214,None,269.65563359999214,None,269.65563359999214,270.6581702000112,269.65563359999214,270.6581702000112,269.65563359999214,270.6581702000112,269.65563359999214,270.6581702000112,269.65563359999214,270.1563165000116,269.65563359999214,270.1563165000116,269.65563359999214,270.1563165000116,269.65563359999214,270.1563165000116,269.65563359999214,None,0.3095210999890696,,,,,12011,001,2024_Jun_17_0845,nback,2021.2.3,60.16260750105006,
0-back,instructions\back-0.png,conditions\01back-e.xlsx,,,experiment,0,3,stim\gray.png,stim\gray.png,stim\yellow.png,stim\gray.png,right,,,,,,,,,,,,,0,3,3,4,0,4,4,4,,,,,,,,,,,,,,,,,,,,,,,,,,,,,,,,,,,,,,,,,,,,,,,,,,,,,,,,right,1,271.15788529999554,None,271.15788529999554,None,271.15788529999554,272.15945860001375,271.15788529999554,272.15945860001375,271.15788529999554,272.15945860001375,271.15788529999554,272.15945860001375,271.15788529999554,271.6592895000067,271.15788529999554,271.6592895000067,271.15788529999554,271.6592895000067,271.15788529999554,271.6592895000067,271.15788529999554,None,0.2954427999793552,,,,,12011,001,2024_Jun_17_0845,nback,2021.2.3,60.16260750105006,
0-back,instructions\back-0.png,conditions\01back-e.xlsx,,,experiment,0,1,stim\yellow.png,stim\gray.png,stim\gray.png,stim\gray.png,up,,,,,,,,,,,,,0,3,3,4,0,5,5,5,,,,,,,,,,,,,,,,,,,,,,,,,,,,,,,,,,,,,,,,,,,,,,,,,,,,,,,,up,1,272.6600799000007,None,272.6600799000007,None,272.6600799000007,273.66166680000606,272.6600799000007,273.66166680000606,272.6600799000007,273.66166680000606,272.6600799000007,273.66166680000606,272.6600799000007,273.16100580000784,272.6600799000007,273.16100580000784,272.6600799000007,273.16100580000784,272.6600799000007,273.16100580000784,272.6600799000007,None,0.38527900000917725,,,,,12011,001,2024_Jun_17_0845,nback,2021.2.3,60.16260750105006,
0-back,instructions\back-0.png,conditions\01back-e.xlsx,,,experiment,0,4,stim\gray.png,stim\gray.png,stim\gray.png,stim\yellow.png,down,,,,,,,,,,,,,0,3,3,4,0,6,6,6,,,,,,,,,,,,,,,,,,,,,,,,,,,,,,,,,,,,,,,,,,,,,,,,,,,,,,,,down,1,274.1631803000055,None,274.1631803000055,None,274.1631803000055,275.16432499999064,274.1631803000055,275.16432499999064,274.1631803000055,275.16432499999064,274.1631803000055,275.16432499999064,274.1631803000055,274.6634342999896,274.1631803000055,274.6634342999896,274.1631803000055,274.6634342999896,274.1631803000055,274.6634342999896,274.1631803000055,None,0.3229200000059791,,,,,12011,001,2024_Jun_17_0845,nback,2021.2.3,60.16260750105006,
0-back,instructions\back-0.png,conditions\01back-e.xlsx,,,experiment,0,3,stim\gray.png,stim\gray.png,stim\yellow.png,stim\gray.png,right,,,,,,,,,,,,,0,3,3,4,0,7,7,7,,,,,,,,,,,,,,,,,,,,,,,,,,,,,,,,,,,,,,,,,,,,,,,,,,,,,,,,right,1,275.6478461000079,None,275.6478461000079,None,275.6478461000079,276.65093720000004,275.6478461000079,276.65093720000004,275.6478461000079,276.65093720000004,275.6478461000079,276.65093720000004,275.6478461000079,276.1486333000066,275.6478461000079,276.1486333000066,275.6478461000079,276.1486333000066,275.6478461000079,276.1486333000066,275.6478461000079,None,0.3015134999877773,,,,,12011,001,2024_Jun_17_0845,nback,2021.2.3,60.16260750105006,
0-back,instructions\back-0.png,conditions\01back-e.xlsx,,,experiment,0,4,stim\gray.png,stim\gray.png,stim\gray.png,stim\yellow.png,down,,,,,,,,,,,,,0,3,3,4,0,8,8,8,,,,,,,,,,,,,,,,,,,,,,,,,,,,,,,,,,,,,,,,,,,,,,,,,,,,,,,,down,1,277.1501445999893,None,277.1501445999893,None,277.1501445999893,278.1518565000151,277.1501445999893,278.1518565000151,277.1501445999893,278.1518565000151,277.1501445999893,278.1518565000151,277.1501445999893,277.6510774999915,277.1501445999893,277.6510774999915,277.1501445999893,277.6510774999915,277.1501445999893,277.6510774999915,277.1501445999893,None,0.3591061999904923,,,,,12011,001,2024_Jun_17_0845,nback,2021.2.3,60.16260750105006,
0-back,instructions\back-0.png,conditions\01back-e.xlsx,,,experiment,0,3,stim\gray.png,stim\gray.png,stim\yellow.png,stim\gray.png,right,,,,,,,,,,,,,0,3,3,4,0,9,9,9,,,,,,,,,,,,,,,,,,,,,,,,,,,,,,,,,,,,,,,,,,,,,,,,,,,,,,,,right,1,278.6525693000003,None,278.6525693000003,None,278.6525693000003,279.6539888000116,278.6525693000003,279.6539888000116,278.6525693000003,279.6539888000116,278.6525693000003,279.6539888000116,278.6525693000003,279.15317539998796,278.6525693000003,279.15317539998796,278.6525693000003,279.15317539998796,278.6525693000003,279.15317539998796,278.6525693000003,None,0.31317500001750886,,,,,12011,001,2024_Jun_17_0845,nback,2021.2.3,60.16260750105006,
0-back,instructions\back-0.png,conditions\01back-e.xlsx,,,experiment,0,3,stim\gray.png,stim\gray.png,stim\yellow.png,stim\gray.png,right,,,,,,,,,,,,,0,3,3,4,0,10,10,10,,,,,,,,,,,,,,,,,,,,,,,,,,,,,,,,,,,,,,,,,,,,,,,,,,,,,,,,right,1,280.15470680000726,None,280.15470680000726,None,280.15470680000726,281.1565886999888,280.15470680000726,281.1565886999888,280.15470680000726,281.1565886999888,280.15470680000726,281.1565886999888,280.15470680000726,280.65603770001326,280.15470680000726,280.65603770001326,280.15470680000726,280.65603770001326,280.15470680000726,280.65603770001326,280.15470680000726,None,0.31448629999067634,,,,,12011,001,2024_Jun_17_0845,nback,2021.2.3,60.16260750105006,
0-back,instructions\back-0.png,conditions\01back-e.xlsx,,,experiment,0,1,stim\yellow.png,stim\gray.png,stim\gray.png,stim\gray.png,up,,,,,,,,,,,,,0,3,3,4,0,11,11,11,,,,,,,,,,,,,,,,,,,,,,,,,,,,,,,,,,,,,,,,,,,,,,,,,,,,,,,,up,1,281.65702290000627,None,281.65702290000627,None,281.65702290000627,282.6585059000063,281.65702290000627,282.6585059000063,281.65702290000627,282.6585059000063,281.65702290000627,282.6585059000063,281.65702290000627,282.1586821000092,281.65702290000627,282.1586821000092,281.65702290000627,282.1586821000092,281.65702290000627,282.1586821000092,281.65702290000627,None,0.31667169998399913,,,,,12011,001,2024_Jun_17_0845,nback,2021.2.3,60.16260750105006,
0-back,instructions\back-0.png,conditions\01back-e.xlsx,,,experiment,0,3,stim\gray.png,stim\gray.png,stim\yellow.png,stim\gray.png,right,,,,,,,,,,,,,0,3,3,4,0,12,12,12,,,,,,,,,,,,,,,,,,,,,,,,,,,,,,,,,,,,,,,,,,,,,,,,,,,,,,,,right,1,283.15985600001295,None,283.15985600001295,None,283.15985600001295,284.16080919999513,283.15985600001295,284.16080919999513,283.15985600001295,284.16080919999513,283.15985600001295,284.16080919999513,283.15985600001295,283.66007280000485,283.15985600001295,283.66007280000485,283.15985600001295,283.66007280000485,283.15985600001295,283.66007280000485,283.15985600001295,None,0.31748030000017025,,,,,12011,001,2024_Jun_17_0845,nback,2021.2.3,60.16260750105006,
0-back,instructions\back-0.png,conditions\01back-e.xlsx,,,experiment,0,1,stim\yellow.png,stim\gray.png,stim\gray.png,stim\gray.png,up,,,,,,,,,,,,,0,3,3,4,0,13,13,13,,,,,,,,,,,,,,,,,,,,,,,,,,,,,,,,,,,,,,,,,,,,,,,,,,,,,,,,up,1,284.66198559998884,None,284.66198559998884,None,284.66198559998884,285.662897400005,284.66198559998884,285.662897400005,284.66198559998884,285.662897400005,284.66198559998884,285.662897400005,284.66198559998884,285.16223909999826,284.66198559998884,285.16223909999826,284.66198559998884,285.16223909999826,284.66198559998884,285.16223909999826,284.66198559998884,None,0.3121413000044413,,,,,12011,001,2024_Jun_17_0845,nback,2021.2.3,60.16260750105006,
0-back,instructions\back-0.png,conditions\01back-e.xlsx,,,experiment,0,4,stim\gray.png,stim\gray.png,stim\gray.png,stim\yellow.png,down,,,,,,,,,,,,,0,3,3,4,0,14,14,14,,,,,,,,,,,,,,,,,,,,,,,,,,,,,,,,,,,,,,,,,,,,,,,,,,,,,,,,down,1,286.1639023000025,None,286.1639023000025,None,286.1639023000025,287.16538910000236,286.1639023000025,287.16538910000236,286.1639023000025,287.16538910000236,286.1639023000025,287.16538910000236,286.1639023000025,286.66459430000396,286.1639023000025,286.66459430000396,286.1639023000025,286.66459430000396,286.1639023000025,286.66459430000396,286.1639023000025,None,0.33757169998716563,,,,,12011,001,2024_Jun_17_0845,nback,2021.2.3,60.16260750105006,
0-back,instructions\back-0.png,conditions\01back-e.xlsx,,,experiment,0,2,stim\gray.png,stim\yellow.png,stim\gray.png,stim\gray.png,left,,,,,,,,,,,,,0,3,3,4,0,15,15,15,,,,,,,,,,,,,,,,,,,,,,,,,,,,,,,,,,,,,,,,,,,,,,,,,,,,,,,,left,1,287.6494681999902,None,287.6494681999902,None,287.6494681999902,288.65084069999284,287.6494681999902,288.65084069999284,287.6494681999902,288.65084069999284,287.6494681999902,288.65084069999284,287.6494681999902,288.15011469999445,287.6494681999902,288.15011469999445,287.6494681999902,288.15011469999445,287.6494681999902,288.15011469999445,287.6494681999902,None,0.3479661000019405,,,,,12011,001,2024_Jun_17_0845,nback,2021.2.3,60.16260750105006,
0-back,instructions\back-0.png,conditions\01back-e.xlsx,,,experiment,0,1,stim\yellow.png,stim\gray.png,stim\gray.png,stim\gray.png,up,,,,,,,,,,,,,0,3,3,4,0,16,16,16,,,,,,,,,,,,,,,,,,,,,,,,,,,,,,,,,,,,,,,,,,,,,,,,,,,,,,,,up,1,289.15154990000883,None,289.15154990000883,None,289.15154990000883,290.1537517000106,289.15154990000883,290.1537517000106,289.15154990000883,290.1537517000106,289.15154990000883,290.1537517000106,289.15154990000883,289.6531848000013,289.15154990000883,289.6531848000013,289.15154990000883,289.6531848000013,289.15154990000883,289.6531848000013,289.15154990000883,None,0.27043659999617375,,,,,12011,001,2024_Jun_17_0845,nback,2021.2.3,60.16260750105006,
0-back,instructions\back-0.png,conditions\01back-e.xlsx,,,experiment,0,2,stim\gray.png,stim\yellow.png,stim\gray.png,stim\gray.png,left,,,,,,,,,,,,,0,3,3,4,0,17,17,17,,,,,,,,,,,,,,,,,,,,,,,,,,,,,,,,,,,,,,,,,,,,,,,,,,,,,,,,left,1,290.6538728000014,None,290.6538728000014,None,290.6538728000014,291.65604440000607,290.6538728000014,291.65604440000607,290.6538728000014,291.65604440000607,290.6538728000014,291.65604440000607,290.6538728000014,291.15449099999387,290.6538728000014,291.15449099999387,290.6538728000014,291.15449099999387,290.6538728000014,291.15449099999387,290.6538728000014,None,0.30395210001734085,,,,,12011,001,2024_Jun_17_0845,nback,2021.2.3,60.16260750105006,
